UnixTime(ms),Ax,Ay,Az,Gx,Gy,Gz,QuatW,QuatX,QuatY,QuatZ
1756816747770,0.00000000,0.00000000,0.00000000,0.00000000,0.00000000,0.00000000,0.99589146,0.08496602,-0.00229046,0.03123659
1756816747781,-0.02408066,-0.12000351,-0.10434952,-0.00891796,0.00081476,0.00476493,0.99589480,0.08491742,-0.00228602,0.03126256
1756816747788,-0.09841171,-0.07572709,-0.07650749,0.00027105,0.00683839,0.00997517,0.99589362,0.08491842,-0.00226071,0.03129946
1756816747797,-0.03550888,0.29140101,0.04821234,0.01333915,0.01272528,0.00693642,0.99588811,0.08497378,-0.00220791,0.03132825
1756816747808,-0.05834901,0.11283760,0.01123733,0.01734681,0.00179348,0.00841284,0.99587844,0.08507005,-0.00219795,0.03137494
1756816747819,0.03239180,-0.02029714,-0.04518499,0.02114566,0.00057980,0.01677177,0.99586560,0.08518635,-0.00219476,0.03146719
1756816747830,-0.00197040,-0.03709223,-0.02327537,0.02136443,0.00326199,0.00965198,0.99585390,0.08530386,-0.00217682,0.03152027
1756816747841,0.02725717,-0.04034397,0.03075827,0.01109658,0.00548684,0.01004069,0.99584686,0.08536600,-0.00214610,0.03157650
1756816747852,0.00877493,-0.09935885,-0.01767863,0.00681308,0.00378409,0.00373880,0.99584307,0.08540313,-0.00212547,0.03159688
1756816747863,0.00262648,-0.03788177,-0.04337838,0.00634233,0.00779114,0.00132964,0.99583988,0.08543864,-0.00208184,0.03160432
1756816747874,-0.02470204,0.03465255,-0.03970851,-0.00354393,0.01170022,0.00326365,0.99584109,0.08541951,-0.00201866,0.03162195
1756816747885,-0.05669791,-0.07755232,-0.00882042,0.00133066,0.01064441,-0.00105573,0.99584076,0.08542703,-0.00195852,0.03161598
1756816747896,0.09023924,0.14952214,0.21098133,-0.01716467,0.01830024,-0.00638675,0.99585025,0.08533176,-0.00185695,0.03158053
1756816747907,0.01765741,-0.00839596,0.08514258,-0.00482333,0.00518721,-0.00390850,0.99585328,0.08530499,-0.00182816,0.03155884
1756816747918,-0.01257788,0.01250796,0.00556329,-0.00650967,0.00411323,-0.00815693,0.99585785,0.08526886,-0.00180534,0.03151357
1756816747929,0.11024041,-0.03561738,-0.08574686,-0.01134680,0.00839884,-0.00591721,0.99586430,0.08520646,-0.00175914,0.03148103
1756816747941,0.02344721,-0.07526048,-0.06637833,-0.00210352,-0.00206485,-0.00539221,0.99586624,0.08519468,-0.00177070,0.03145083
1756816747952,0.01778699,-0.07218550,0.00089518,0.00118576,-0.00172368,0.00176429,0.99586536,0.08520126,-0.00178027,0.03146062
1756816747963,-0.03918494,0.01855219,0.10316282,0.00033615,-0.01122827,0.00561549,0.99586410,0.08520312,-0.00184259,0.03149179
1756816747974,0.01122844,0.05510708,0.12459372,0.00132300,-0.01828584,0.00443346,0.99586248,0.08521053,-0.00194499,0.03151662
1756816747985,0.00401997,-0.02357436,0.00690080,0.01204794,-0.01960453,-0.01016356,0.99585836,0.08527680,-0.00205281,0.03146072
1756816747996,-0.02643994,0.10466384,-0.02382871,-0.01351463,-0.01861702,-0.00465820,0.99586538,0.08520179,-0.00215614,0.03143486
1756816748007,-0.03676611,-0.17897214,-0.08223999,-0.00248245,-0.00674448,-0.00591979,0.99586751,0.08518801,-0.00219357,0.03140201
1756816748018,-0.07007607,-0.02831763,0.00319238,-0.01574962,0.00808919,-0.01230330,0.99587732,0.08509981,-0.00214827,0.03133311
1756816748029,-0.07055189,0.05349985,-0.02680467,-0.02014808,0.02051801,-0.00819973,0.99588854,0.08498799,-0.00203440,0.03128760
1756816748041,0.06047058,0.10149515,0.03204941,-0.01076413,0.03379739,0.01441404,0.99589149,0.08492825,-0.00184682,0.03136760
1756816748052,-0.11759039,0.02526979,-0.10605160,0.01193612,0.01933425,0.01896859,0.99588263,0.08499509,-0.00173855,0.03147382
1756816748063,0.04971330,0.19296482,0.10664419,-0.00215071,0.02320823,0.02529502,0.99587942,0.08498316,-0.00160974,0.03161421
1756816748074,-0.04087811,0.09956009,-0.06845270,-0.01746644,-0.00228214,0.00642651,0.99588653,0.08488622,-0.00162241,0.03164988
1756816748085,0.04595764,-0.06046869,-0.05043247,-0.01295911,-0.00777544,-0.00267500,0.99589306,0.08481430,-0.00166556,0.03163503
1756816748096,0.07535534,-0.17370397,-0.08329290,0.01111985,-0.00917805,-0.00066684,0.99588774,0.08487712,-0.00171742,0.03163126
1756816748107,-0.02653285,0.05455524,0.05599297,0.00085251,-0.01179092,0.00149553,0.99588696,0.08488181,-0.00178227,0.03163949
1756816748119,0.01380918,-0.04080233,0.01757002,0.00419305,0.00016734,0.00398811,0.99588421,0.08490571,-0.00178131,0.03166222
1756816748130,-0.09861320,0.05059154,0.02648564,0.01698233,-0.00140537,0.00991219,0.99587458,0.08499827,-0.00178897,0.03171624
1756816748141,-0.04274882,0.08269252,0.07353889,0.01111065,-0.00462340,0.00152187,0.99586900,0.08505993,-0.00181463,0.03172469
1756816748152,0.04780755,-0.01863999,0.02037857,0.00651970,-0.01076610,-0.00993106,0.99586754,0.08509644,-0.00187492,0.03166908
1756816748163,0.09672593,-0.15597288,0.04341372,-0.00181507,-0.01359829,-0.02074183,0.99587198,0.08508618,-0.00195175,0.03155188
1756816748174,0.12490731,-0.18177314,-0.01742118,0.00417103,0.00486677,-0.02356585,0.99587415,0.08510892,-0.00192523,0.03142345
1756816748185,-0.07222962,0.02824781,0.04124094,-0.01281046,0.00051555,-0.01208015,0.99588235,0.08503782,-0.00192237,0.03135641
1756816748197,-0.07344075,0.03707390,0.10369611,-0.01019579,0.00082483,0.00115167,0.99588703,0.08498072,-0.00191775,0.03136285
1756816748208,-0.05369360,0.02108914,-0.01116637,0.00652360,0.00754108,0.01246406,0.99588179,0.08501725,-0.00187552,0.03143265
1756816748219,-0.08012673,0.04485579,-0.01772702,-0.00453858,0.00767276,0.01183608,0.99588194,0.08499229,-0.00183332,0.03149775
1756816748230,0.15519739,-0.04734104,-0.01169337,-0.01143253,0.01876482,0.01711177,0.99588456,0.08492827,-0.00172824,0.03159358
1756816748241,-0.00891906,-0.10202595,-0.05074485,-0.01138154,0.01721678,-0.00839606,0.99589171,0.08486396,-0.00163096,0.03154614
1756816748252,-0.04984418,-0.01755358,-0.03510105,-0.00825052,0.01144950,-0.00674591,0.99589685,0.08481859,-0.00156799,0.03150904
1756816748263,0.05949426,0.17264933,0.00551492,-0.00737826,0.01482062,0.00014156,0.99590043,0.08477764,-0.00148574,0.03150982
1756816748274,0.07740235,0.13085645,-0.06808988,-0.00516904,0.02211817,0.01464720,0.99590048,0.08474895,-0.00136298,0.03159111
1756816748286,-0.07011888,0.05310825,-0.07694563,0.00716748,0.01448605,0.01669074,0.99589420,0.08478909,-0.00128186,0.03168458
1756816748297,0.03421185,-0.07585835,-0.05915799,0.00882841,0.00848833,0.01512964,0.99588735,0.08483853,-0.00123432,0.03176931
1756816748308,0.04058440,-0.17083710,0.03646484,-0.01127227,0.00380722,0.00339211,0.99589210,0.08477596,-0.00121319,0.03178814
1756816748341,0.02360125,0.03907027,0.02693997,-0.01965240,-0.00957118,-0.01845924,0.99592901,0.08445268,-0.00137064,0.03148448
1756816748354,0.06357366,0.05795335,-0.05205081,-0.00780697,-0.01129819,-0.00454562,0.99593430,0.08440038,-0.00144634,0.03145403
1756816748366,0.01765227,-0.07703152,-0.10156337,-0.00220979,-0.01446954,0.00187088,0.99593492,0.08438756,-0.00153026,0.03146488
1756816748376,0.05404453,-0.13125235,-0.02088889,-0.00157419,-0.01054721,-0.00091779,0.99593568,0.08437929,-0.00158563,0.03146006
1756816748387,0.01182459,-0.05406235,0.11650435,-0.01473936,-0.01119063,-0.01163657,0.99594455,0.08429749,-0.00164774,0.03139547
1756816748399,-0.02601594,-0.01000718,0.04392551,-0.05070113,-0.02026052,-0.01800599,0.99597296,0.08399835,-0.00176728,0.03128924
1756816748411,0.00495567,-0.06647564,0.14382698,-0.06132591,0.00210398,-0.02252853,0.99600730,0.08363960,-0.00175497,0.03115745
1756816748423,-0.05355666,0.10604688,0.05181498,-0.06386000,0.00933297,-0.03252984,0.99604463,0.08326602,-0.00170037,0.03096715
1756816748434,-0.03483360,0.02553755,-0.07336827,-0.01159372,0.02929798,-0.02278767,0.99605472,0.08319819,-0.00152898,0.03083384
1756816748446,-0.07475227,0.01950514,-0.10975744,0.00306424,0.03713474,0.00442060,0.99605274,0.08321597,-0.00131360,0.03085948
1756816748458,-0.02104058,0.02181230,-0.12890125,0.00897502,0.03688295,0.02083291,0.99604490,0.08326802,-0.00109968,0.03098031
1756816748469,-0.10453847,-0.01913118,0.08117235,-0.01204856,0.02185845,0.01325656,0.99604848,0.08319814,-0.00097290,0.03105720
1756816748481,0.05005444,-0.06240020,0.00310072,0.02195820,0.01957190,0.00761757,0.99603656,0.08332550,-0.00085938,0.03110138
1756816748492,-0.01946155,0.01730740,-0.07933914,-0.00259586,0.00518820,0.00226480,0.99603743,0.08331057,-0.00082955,0.03111440
1756816748503,0.10123933,0.11274175,-0.04270170,0.00017348,0.00525165,-0.01604481,0.99604015,0.08331153,-0.00080040,0.03102535
1756816748515,0.10802511,-0.01074094,0.09868026,-0.01136724,-0.00446256,0.00275249,0.99604510,0.08324617,-0.00082606,0.03104118
1756816748526,-0.18716434,0.09289342,0.05861000,-0.01451449,-0.01342150,-0.00854440,0.99605346,0.08316344,-0.00090256,0.03099248
1756816748537,-0.11747594,0.11809927,-0.10471901,-0.00996928,-0.00488969,0.00455507,0.99605733,0.08310711,-0.00093019,0.03101821
1756816748549,-0.02710837,0.14758716,-0.09582194,-0.01180453,0.00403114,0.00004398,0.99606296,0.08303983,-0.00090721,0.03101846
1756816748560,0.15731297,-0.10909861,-0.05996697,0.00166774,0.01203597,0.01039889,0.99606038,0.08304933,-0.00083861,0.03107774
1756816748572,0.02408751,-0.08793648,0.03653766,0.01544859,0.00095791,0.00178688,0.99605285,0.08313585,-0.00083324,0.03108775
1756816748583,0.03504079,-0.03681427,-0.06387359,0.02262576,-0.00662446,0.00154630,0.99604177,0.08326481,-0.00087100,0.03109656
1756816748594,0.09241563,-0.09616088,-0.00871413,0.01497300,0.00186657,-0.00860217,0.99603617,0.08335016,-0.00086036,0.03104753
1756816748606,-0.00504502,-0.09043328,0.00126126,0.01094595,-0.00572518,-0.01543899,0.99603366,0.08341255,-0.00089300,0.03095952
1756816748617,-0.02362417,-0.05990841,0.09080022,-0.00479803,-0.00052221,-0.01229321,0.99603809,0.08338544,-0.00089595,0.03089007
1756816748628,-0.02263940,0.03912755,0.05823228,-0.00538972,0.00658816,-0.01327234,0.99604299,0.08335499,-0.00085872,0.03081508
1756816748640,-0.03515587,0.07319745,0.03556376,-0.01164517,0.00757830,0.00259121,0.99604803,0.08328978,-0.00081629,0.03082959
1756816748651,0.03174796,0.01507536,-0.00148287,0.00119495,0.00363329,0.00366935,0.99604682,0.08329665,-0.00079539,0.03085069
1756816748662,0.11216610,-0.05145118,0.02415879,0.00954417,0.00044033,0.00068173,0.99604228,0.08334962,-0.00079295,0.03085447
1756816748673,0.03289600,0.03049040,-0.00169318,-0.00756211,-0.01499780,-0.01281688,0.99604792,0.08330765,-0.00087619,0.03078334
1756816748685,0.05386564,-0.07670477,0.05369209,-0.01321514,-0.00575338,-0.01748686,0.99605759,0.08322968,-0.00091013,0.03068017
1756816748696,-0.07699418,-0.02821744,-0.03083405,0.00541971,-0.00681037,-0.02911431,0.99605994,0.08325895,-0.00094691,0.03052295
1756816748707,-0.12679855,0.11203180,-0.02144400,0.01216923,-0.00030335,-0.02669705,0.99605881,0.08332709,-0.00094861,0.03037345
1756816748720,-0.02469713,0.02859252,0.00117629,0.01065809,0.00650018,-0.00655973,0.99605445,0.08339477,-0.00090733,0.03033179
1756816748728,0.03596072,0.17652141,0.20961329,0.00620336,0.00700184,0.01270269,0.99605054,0.08342176,-0.00087687,0.03038705
1756816748739,-0.02243903,-0.20498837,0.20030910,-0.00155314,-0.00281403,0.00756629,0.99605000,0.08341368,-0.00089151,0.03042639
1756816748751,-0.05457788,-0.01206255,-0.03447400,-0.00208860,-0.02406846,0.00851338,0.99604934,0.08340104,-0.00103712,0.03047790
1756816748788,0.01406212,0.01912915,-0.03961799,-0.01075828,0.00307107,0.00191396,0.99606513,0.08319986,-0.00097969,0.03051369
1756816748905,-0.00284744,0.00117303,-0.00323515,-0.00479388,0.00391586,0.00181323,0.99608544,0.08291966,-0.00075081,0.03061967
1756816748908,-30.79637551,45.14074540,26.77481714,0.56328081,0.54063703,0.48851083,0.99600477,0.08365193,-0.00004798,0.03125474
1756816748960,1.54448139,-2.25000104,-1.28143932,0.00485281,-0.00500748,-0.00710727,0.99599992,0.08377834,-0.00017843,0.03106959
1756816748976,-0.02568435,-0.12320218,0.35551134,-0.01699813,-0.00280322,0.01506542,0.99600782,0.08363811,-0.00020155,0.03119388
1756816748999,-0.01630590,0.04311290,-0.25565168,-0.00160632,0.02422259,0.00978906,0.99600588,0.08361988,0.00007337,0.03130499
1756816749021,0.11565237,-0.00857634,-0.02936012,0.01320215,0.01667312,0.00369980,0.99599230,0.08376576,0.00025761,0.03134587
1756816749037,-0.03134304,0.16731469,0.03170322,-0.01150064,0.00044704,-0.02142006,0.99600509,0.08367606,0.00026110,0.03117879
1756816749050,-0.01252679,-0.07186121,-0.14998320,0.01793022,-0.00503971,-0.01166006,0.99599744,0.08379619,0.00022733,0.03110067
1756816749062,-0.12014539,-0.01600229,-0.10786684,0.02600700,0.00645307,-0.00765895,0.99598562,0.08395353,0.00026637,0.03105433
1756816749075,-0.11518021,-0.01750209,-0.16015266,0.01307414,0.02158165,0.00281619,0.99597814,0.08403524,0.00040126,0.03107194
1756816749087,0.05466480,0.04965299,0.02112726,0.01056839,0.00773876,0.01708987,0.99596949,0.08409918,0.00044808,0.03117533
1756816749099,0.05984744,-0.04585976,0.13719685,0.00377296,-0.00886742,0.01598655,0.99596451,0.08412220,0.00039399,0.03127285
1756816749111,-0.00533034,0.02991881,0.09465492,-0.01394256,-0.02058113,-0.00478816,0.99597245,0.08403924,0.00027153,0.03124436
1756816749123,0.02126327,-0.00394284,-0.07807984,-0.00888183,-0.00474311,-0.02090174,0.99598074,0.08398684,0.00024354,0.03112104
1756816749135,-0.12925770,0.03374231,-0.00328522,0.00358673,0.02108201,-0.01214507,0.99598116,0.08400818,0.00036898,0.03104877
1756816749146,-0.09145441,0.18076403,-0.00101062,0.01698138,0.03444222,0.00411213,0.99597201,0.08410667,0.00056875,0.03107263
1756816749158,0.07663201,-0.10565884,0.00841623,0.05801946,0.05579201,0.01638212,0.99594032,0.08444318,0.00089234,0.03116764
1756816749169,0.02524870,-0.00943366,-0.03521529,0.03573623,0.01339050,-0.00687589,0.99592390,0.08465045,0.00097001,0.03112776
1756816749181,0.05701701,-0.06384716,0.12864541,0.02403553,0.00436749,-0.00520657,0.99591325,0.08478625,0.00099468,0.03109834
1756816749192,-0.08995588,0.03095688,-0.02423592,0.00538818,0.00622999,-0.02741150,0.99591548,0.08481723,0.00103050,0.03094073
1756816749204,-0.04577211,-0.04660611,-0.04129485,0.00775527,0.03532465,-0.01114630,0.99591340,0.08486260,0.00123715,0.03087552
1756816749216,-0.14813285,-0.01349167,-0.06964709,-0.00603987,0.03478321,-0.00059441,0.99591620,0.08482787,0.00143716,0.03087210
1756816749227,0.03981181,0.02894871,0.03096507,0.00599945,0.05224297,0.02168616,0.99590897,0.08486207,0.00173494,0.03099572
1756816749238,-0.01934115,0.02539576,-0.00240050,0.01983215,0.04520978,-0.00147823,0.99589920,0.08497412,0.00199038,0.03098736
1756816749250,0.04443950,0.05680836,0.00738066,0.00294393,0.03785160,0.01033976,0.99589545,0.08499105,0.00220802,0.03104682
1756816749261,0.07539416,0.00928889,0.06491368,-0.02629326,0.03368197,0.02318385,0.99590351,0.08484381,0.00239664,0.03117665
1756816749272,-0.06557174,-0.09687603,-0.06006402,-0.01928835,0.00728439,0.00019339,0.99591265,0.08473483,0.00243780,0.03117774
1756816749284,0.08024197,-0.10393493,0.05957274,-0.02737974,0.02210557,-0.00990346,0.99592750,0.08457740,0.00256491,0.03112079
1756816749295,-0.06351298,-0.10437666,-0.15772882,-0.02973981,-0.00150612,0.00744609,0.99594035,0.08441085,0.00255647,0.03116249
1756816749306,0.04890127,0.05317455,0.04799961,-0.02939843,0.01912185,-0.00122724,0.99595410,0.08424769,0.00266260,0.03115568
1756816749317,-0.01516653,0.01672676,0.04610515,-0.01183123,0.00174594,0.03242191,0.99595397,0.08418084,0.00267246,0.03133887
1756816749329,-0.08915723,0.11501221,-0.12229945,0.00646081,0.00948397,0.00298720,0.99595021,0.08421735,0.00272605,0.03135574
1756816749340,0.00764589,0.21253630,-0.10696868,0.01826012,-0.00530735,0.02080200,0.99593764,0.08432234,0.00269553,0.03147535
1756816749351,0.04464519,0.03999568,-0.05737260,0.02300158,-0.01169129,0.01854136,0.99592399,0.08444770,0.00263181,0.03157640
1756816749362,0.09173292,-0.18729340,-0.00447701,0.05859526,-0.02473596,0.00142259,0.99589621,0.08477584,0.00249329,0.03158437
1756816749373,-0.04276481,-0.13352403,0.13470916,0.00144320,-0.02566722,-0.00959292,0.99589758,0.08478392,0.00234956,0.03153065
1756816749385,-0.01302432,-0.05741027,0.05379567,0.00354089,-0.00416708,-0.00163888,0.99589622,0.08480392,0.00232601,0.03152139
1756816749396,-0.15744347,0.03913252,0.05275483,-0.00168405,-0.00349112,-0.01528887,0.99589978,0.08479449,0.00230646,0.03143577
1756816749407,-0.07883666,-0.00321245,0.03598878,-0.00891112,0.01141379,-0.00068724,0.99590407,0.08474370,0.00237152,0.03143186
1756816749418,-0.12376368,0.03138076,0.02441613,-0.01413542,0.00642644,0.01351498,0.99590825,0.08466595,0.00240687,0.03150619
1756816749429,0.27047063,-0.07407237,0.00415818,-0.00143845,0.02143625,0.01718609,0.99590561,0.08465797,0.00252584,0.03160157
1756816749441,0.03138869,-0.02514697,-0.14040257,-0.00735008,-0.00977625,0.01584223,0.99590643,0.08461681,0.00247109,0.03169029
1756816749452,0.17628606,-0.10662248,0.02922262,-0.01350703,-0.00184672,0.01184984,0.99591076,0.08454117,0.00246075,0.03175665
1756816749463,0.02072629,0.04003500,0.03381169,-0.01707807,-0.00985355,-0.01221539,0.99592110,0.08444639,0.00240606,0.03168885
1756816749474,-0.03788474,0.03954872,0.05677147,-0.03177001,-0.01717359,-0.02456694,0.99594076,0.08426848,0.00230989,0.03155128
1756816749485,-0.07911490,0.08558995,-0.00974087,-0.04314094,-0.01599216,-0.04282981,0.99596895,0.08402689,0.00222033,0.03131143
1756816749496,0.07330546,-0.07260785,-0.01867029,-0.00829142,0.01199076,0.00020103,0.99597264,0.08398087,0.00228688,0.03131255
1756816749508,0.00289438,0.04044431,0.01815030,-0.00540665,0.00250966,-0.00446985,0.99597601,0.08395005,0.00230119,0.03128707
1756816749519,0.00881033,0.08687437,0.05502750,0.00239110,0.00118170,0.00800354,0.99597339,0.08396380,0.00230798,0.03133309
1756816749530,0.09473745,0.03196168,0.04606833,-0.00056625,-0.01506826,0.01237235,0.99597174,0.08396077,0.00222737,0.03139928
1756816749541,0.11826269,-0.06944655,0.03636341,0.00948579,-0.01786012,0.00238270,0.99596706,0.08401389,0.00212735,0.03141262
1756816749553,-0.04926737,-0.07603501,-0.02683011,0.00887709,-0.01813456,-0.00744624,0.99596437,0.08406405,0.00202489,0.03137055
1756816749564,-0.03182144,0.10273736,0.00093756,0.00396634,-0.00594434,0.00299864,0.99596205,0.08408606,0.00199190,0.03138719
1756816749575,-0.14199399,0.01883562,0.01679897,0.00097118,-0.00973034,-0.00027595,0.99596174,0.08409174,0.00193498,0.03138558
1756816749586,0.01128161,-0.03070904,-0.04172624,0.01589914,-0.00182124,0.01158720,0.99595253,0.08417760,0.00192514,0.03144815
1756816749597,0.03011248,0.13654391,-0.04439333,0.00704672,0.00335411,0.01105253,0.99594730,0.08421635,0.00194359,0.03150894
1756816749608,0.03517082,0.19969618,0.08981474,-0.02611805,0.00439582,0.01251589,0.99595738,0.08407009,0.00196820,0.03157903
1756816749620,-0.05464393,0.02991588,-0.00760263,-0.00820243,-0.00237351,0.01101401,0.99595933,0.08402416,0.00195491,0.03164071
1756816749631,0.02400682,-0.09878524,-0.03977237,0.01788206,-0.00863463,0.02133660,0.99594727,0.08412341,0.00190699,0.03175913
1756816749642,0.00257425,-0.02380570,0.00228495,0.01113661,-0.01403561,0.02215788,0.99593794,0.08418744,0.00182629,0.03188653
1756816749653,0.11295274,-0.01646872,-0.04626894,0.02984905,-0.00687868,0.02049824,0.99592035,0.08435310,0.00178811,0.03200030
1756816749664,0.08659388,-0.19985433,-0.04583670,0.01763252,-0.02384724,0.00938552,0.99591061,0.08445096,0.00165576,0.03205239
1756816749678,0.06513813,-0.05349525,0.04361831,0.00195329,-0.00524433,0.00210375,0.99590910,0.08446405,0.00162062,0.03206648
1756816749686,0.19987487,-0.17519246,0.08086151,-0.01586069,-0.02369281,-0.01851217,0.99591741,0.08439744,0.00152111,0.03198873
1756816749697,-0.04363595,0.04076825,0.06588949,-0.03059789,-0.02004208,-0.02002725,0.99593567,0.08422609,0.00140887,0.03187658
1756816749708,0.00377293,-0.09344900,0.08211041,-0.04073958,-0.04250188,-0.02181490,0.99595894,0.08399998,0.00117299,0.03175551
1756816749720,0.00981114,-0.04323405,0.01156512,-0.03707747,-0.00912367,-0.01460253,0.99597945,0.08378864,0.00112098,0.03167227
1756816749731,0.06562690,-0.03736097,-0.20897030,-0.03715108,0.00489077,-0.00702241,0.99599815,0.08358059,0.00114837,0.03163295
1756816749742,0.08524003,-0.01408851,-0.02373703,-0.04129251,0.00948492,0.00664548,0.99601677,0.08334316,0.00120291,0.03167116
1756816749753,-0.03832402,-0.13013844,-0.07232377,-0.03104692,-0.01372550,-0.00392084,0.99603168,0.08317396,0.00112811,0.03164979
1756816749764,0.04863388,-0.09399448,0.02150312,-0.05049124,-0.00449987,-0.00324301,0.99605564,0.08289373,0.00110313,0.03163179
1756816749776,-0.03840729,-0.04935604,-0.03634037,-0.06387696,-0.01017498,-0.02426441,0.99609002,0.08253283,0.00104564,0.03149470
1756816749787,0.06860896,-0.00307838,-0.01621896,-0.03965148,-0.01607714,-0.03289182,0.99611407,0.08231276,0.00095642,0.03131215
1756816749798,-0.03565280,0.10515831,-0.06412290,-0.05357500,-0.02191131,-0.04451453,0.99614702,0.08201006,0.00083262,0.03106064
1756816749809,-0.04465916,0.11769266,-0.04966942,-0.05321833,0.01990900,-0.02608249,0.99617596,0.08171204,0.00094411,0.03091458
1756816749820,-0.02938449,0.13775616,-0.17040454,0.01169341,0.01248990,0.00766414,0.99616930,0.08177635,0.00101280,0.03095673
1756816749832,-0.13205328,0.12539206,0.05103307,0.00023235,0.00955785,-0.00830235,0.99617060,0.08177767,0.00106680,0.03090982
1756816749843,-0.02872375,0.03396842,0.01680524,-0.01548850,0.00124439,0.00418965,0.99617709,0.08168938,0.00107390,0.03093370
1756816749854,0.02425971,0.05020448,-0.02014470,-0.02144643,0.00008829,-0.01214524,0.99618862,0.08157357,0.00107437,0.03086812
1756816749865,-0.08637887,0.00542776,-0.08705076,-0.00898296,-0.01377888,-0.01629722,0.99619557,0.08152371,0.00099790,0.03077767
1756816749876,0.02095005,-0.04812857,-0.00436852,-0.01612609,-0.01655623,-0.03335465,0.99620880,0.08143341,0.00090519,0.03059088
1756816749887,-0.00570197,0.06440986,0.14611311,-0.02761357,-0.01304917,-0.00501762,0.99622236,0.08127877,0.00083211,0.03056279
1756816749899,0.01092879,-0.07484213,0.09336984,-0.01169217,-0.00458743,-0.00699759,0.99622892,0.08121330,0.00080642,0.03052360
1756816749910,-0.02866185,0.15713272,-0.02899319,0.01112876,0.00068572,-0.01919731,0.99622711,0.08127617,0.00081030,0.03041513
1756816749921,-0.02384146,0.05976081,-0.17324876,0.02899510,-0.00241103,-0.00746500,0.99621524,0.08143710,0.00079691,0.03037370
1756816749932,0.20118509,-0.12545222,0.01211087,0.03053602,0.01444058,-0.00864694,0.99620288,0.08160504,0.00087634,0.03032614
1756816749943,0.02409494,-0.07294119,0.14940732,0.00404910,0.01124577,-0.01789167,0.99620402,0.08162792,0.00093988,0.03022506
1756816749955,0.00883049,-0.16865298,0.21816782,0.00349766,0.01657222,-0.03047059,0.99620748,0.08164751,0.00103268,0.03005442
1756816749966,-0.17913705,0.08605305,0.09776511,-0.00727655,0.00076102,-0.02594775,0.99621519,0.08160676,0.00103694,0.02990911
1756816749977,-0.00665230,0.01858896,0.00974087,-0.00925522,0.00771134,-0.00468076,0.99622018,0.08155493,0.00108013,0.02988290
1756816749988,-0.00563047,-0.00732344,0.01368759,-0.00853510,0.00685179,-0.01362139,0.99622617,0.08150842,0.00111747,0.02980867
1756816749999,0.00881123,-0.07506469,-0.12652199,-0.00048785,-0.00352353,-0.01333190,0.99622866,0.08150566,0.00109756,0.02973334
1756816750010,0.07475432,0.02775887,-0.07466602,-0.00249587,0.00426280,-0.01756571,0.99623271,0.08149168,0.00112143,0.02963497
1756816750021,-0.08406491,-0.04020742,0.01134903,-0.01652452,0.00660485,-0.02161169,0.99624373,0.08139997,0.00115809,0.02951503
1756816750033,-0.04668329,0.09788770,0.06143811,-0.00685577,0.00693775,-0.01381490,0.99624906,0.08136192,0.00119659,0.02943835
1756816750044,-0.14311164,0.19805135,0.01732702,-0.00718619,0.00414594,-0.01417481,0.99625471,0.08132132,0.00122002,0.02935827
1756816750055,-0.06450552,0.13429803,-0.06541098,0.00500082,0.00881182,-0.00247943,0.99625279,0.08134907,0.00126892,0.02934451
1756816750066,0.07993494,-0.18304571,-0.03388972,0.02492108,0.01647304,0.01877566,0.99623803,0.08148988,0.00136200,0.02945059
1756816750078,0.01158849,-0.10747088,-0.02842381,0.02935984,0.01182765,0.02039669,0.99622063,0.08165870,0.00143000,0.02956787
1756816750088,0.05573030,-0.07984233,0.02419677,0.01065286,0.00218738,0.01965932,0.99621289,0.08171516,0.00144160,0.02967206
1756816750100,-0.09795563,0.02106776,-0.05665889,-0.01553172,-0.00989333,-0.00554848,0.99622102,0.08162818,0.00138620,0.02964099
1756816750111,-0.02381677,-0.00836948,-0.09839752,-0.02692453,-0.01034220,-0.01857476,0.99623640,0.08147875,0.00132880,0.02953790
1756816750122,0.07017025,-0.02832354,-0.05013842,-0.03641477,0.00468854,-0.00725569,0.99625422,0.08127483,0.00135505,0.02949727
1756816750133,-0.04300239,-0.00075358,-0.15585398,-0.02964777,0.01847212,-0.00654213,0.99626869,0.08110880,0.00145850,0.02946063
1756816750144,-0.05619661,-0.00230121,0.05304350,-0.02849831,0.01210886,0.00041316,0.99628139,0.08095063,0.00152570,0.02946293
1756816750156,0.03263968,-0.01159420,0.06254064,-0.03039093,-0.00613979,0.01912918,0.99629217,0.08077892,0.00149101,0.02957101
1756816750167,0.08378913,-0.09525470,0.11401390,-0.02875110,-0.00225231,-0.00877281,0.99630682,0.08061648,0.00147828,0.02952144
1756816750178,0.04990832,-0.03578040,-0.05760334,-0.02960538,-0.01771734,-0.01469675,0.99632237,0.08045513,0.00138173,0.02944134
1756816750189,0.08375975,0.04348020,-0.02068710,-0.01779292,-0.01377826,-0.02315359,0.99633434,0.08035549,0.00130457,0.02931168
1756816750200,0.07062100,-0.05356305,0.06859308,0.00753276,-0.02319211,-0.03426115,0.99633670,0.08039730,0.00117585,0.02912153
1756816750211,0.00841170,0.08367353,0.12315431,-0.01103909,-0.03150000,-0.02277891,0.99634560,0.08033548,0.00099945,0.02899397
1756816750222,-0.03461077,0.12058872,0.12814041,-0.02133493,-0.04921948,-0.00697161,0.99635651,0.08021707,0.00072628,0.02895528
1756816750233,-0.02319317,0.03057686,-0.02851844,0.00688927,-0.02958944,0.01734343,0.99635068,0.08025565,0.00056058,0.02905240
1756816750247,-0.04141255,0.02269810,0.01002755,0.00287115,-0.01158980,0.01305667,0.99634658,0.08027503,0.00048235,0.02914054
1756816750255,-0.10926862,-0.05851619,0.14264796,0.00352184,-0.01075655,-0.01004968,0.99634665,0.08029017,0.00043610,0.02909732
1756816750267,-0.11801762,-0.02715582,-0.04357425,0.01886492,-0.00545489,0.00862117,0.99633673,0.08039582,0.00040555,0.02914560
1756816750278,-0.00984807,0.03666655,0.00735258,0.00834370,0.00514962,0.01391814,0.99633072,0.08044212,0.00043413,0.02922285
1756816750289,0.01166080,0.08360462,0.02466789,0.00761090,0.00843512,0.00764924,0.99632600,0.08048475,0.00048137,0.02926568
1756816750301,0.13331217,-0.01030645,0.00252788,-0.00195796,0.01262129,0.01406557,0.99632442,0.08047300,0.00055709,0.02935008
1756816750311,0.08727823,0.09410054,0.08717686,-0.00704969,0.01319819,-0.00007089,0.99632738,0.08043599,0.00062639,0.02934970
1756816750323,0.03398943,-0.05219768,0.11087027,-0.01648572,-0.00506098,-0.00004066,0.99633472,0.08034532,0.00059855,0.02934948
1756816750334,0.11211292,0.00085779,-0.05505430,-0.02206097,-0.00434264,-0.00978459,0.99634630,0.08022177,0.00057423,0.02929469
1756816750345,0.05820766,0.07072713,-0.09051885,-0.03132528,-0.01049466,-0.01002072,0.99636209,0.08004635,0.00051546,0.02923857
1756816750356,0.10311071,-0.09528906,-0.15371574,-0.00256861,-0.01308109,-0.00341444,0.99636385,0.08003197,0.00044221,0.02921945
1756816750367,-0.01454765,-0.02466503,0.02622995,-0.00195700,-0.02520802,-0.00860264,0.99636621,0.08002091,0.00029978,0.02917084
1756816750379,0.03949086,0.11449607,0.13222179,-0.03334541,-0.03550269,-0.02103139,0.99638434,0.07983751,0.00010452,0.02905517
1756816750390,-0.00747736,0.03400349,0.03326584,-0.01184589,-0.05729497,-0.02250222,0.99639330,0.07977117,-0.00021634,0.02892916
1756816750401,-0.02660922,0.07418507,0.08600479,-0.00036388,-0.04091966,-0.02894693,0.99639808,0.07976914,-0.00044549,0.02876706
1756816750412,-0.05888774,0.07847760,0.03631608,0.01480963,-0.04296411,-0.02883606,0.99639599,0.07985059,-0.00068179,0.02860846
1756816750423,-0.03924277,0.03028577,-0.05027928,0.02492088,-0.02623651,-0.02419488,0.99638844,0.07999264,-0.00083134,0.02847055
1756816750434,-0.00604376,0.02927870,-0.03367000,0.02913988,-0.00877571,-0.02134502,0.99637869,0.08015582,-0.00088048,0.02835102
1756816750446,-0.09722374,0.00109687,-0.03564741,0.04487354,-0.00396827,-0.02137426,0.99636197,0.08040487,-0.00090250,0.02823239
1756816750457,-0.03483106,0.06157606,0.10715387,0.03914065,0.01169539,-0.01641468,0.99634705,0.08062210,-0.00083759,0.02814129
1756816750469,0.03533913,-0.11264010,-0.00879828,0.05379778,0.00547962,0.00230202,0.99632074,0.08094220,-0.00080499,0.02815498
1756816750479,0.04331291,-0.02409474,0.12290554,0.02801995,-0.00244151,0.01525916,0.99630663,0.08108790,-0.00081769,0.02823433
1756816750490,0.03957102,-0.17061459,0.08088987,0.00965071,0.00104712,0.00536994,0.99630143,0.08114146,-0.00081187,0.02826413
1756816750501,-0.04075285,-0.12843274,-0.00373925,0.00178697,-0.00707807,0.00470437,0.99629984,0.08115147,-0.00085151,0.02829048
1756816750512,-0.01591801,-0.18105070,-0.01294823,-0.02334428,-0.01190495,-0.00153117,0.99631066,0.08102074,-0.00091818,0.02828190
1756816750524,0.09479533,-0.04294114,-0.01389856,-0.02605938,-0.01362392,-0.00859000,0.99632381,0.08087481,-0.00099447,0.02823380
1756816750535,-0.31929332,-0.00580664,0.03182912,-0.02986370,-0.01426216,-0.01497084,0.99633952,0.08070907,-0.00107363,0.02815071
1756816750546,-0.06258374,0.16959115,0.01620945,-0.02679929,-0.01538644,-0.01854917,0.99635463,0.08055765,-0.00116056,0.02804591
1756816750557,-0.03304155,0.00822067,-0.12825115,0.00552380,-0.01499244,0.00048986,0.99635197,0.08058831,-0.00124377,0.02804863
1756816750568,0.21962916,0.01772355,-0.17729975,-0.01204342,-0.00338835,0.00056083,0.99635726,0.08052147,-0.00126258,0.02805174
1756816750579,-0.02343717,-0.00152629,-0.09954912,-0.00814950,-0.00335275,0.00187114,0.99636063,0.08047583,-0.00128135,0.02806222
1756816750591,-0.01384344,-0.04040953,-0.02146274,-0.00074253,-0.00063363,-0.00521613,0.99636178,0.08047171,-0.00128487,0.02803327
1756816750602,0.02438882,-0.15366500,-0.01048810,-0.00670624,-0.00158241,-0.01228943,0.99636678,0.08043382,-0.00129381,0.02796383
1756816750613,-0.08433131,-0.00605261,-0.03286175,-0.00484827,-0.01374130,-0.01629137,0.99637138,0.08040691,-0.00137007,0.02787342
1756816750624,-0.04208753,0.13223027,-0.00919153,-0.00915457,-0.01899293,-0.01663642,0.99637791,0.08035610,-0.00147548,0.02778109
1756816750635,-0.09217666,0.11189666,-0.02614244,0.01063261,-0.03197025,-0.01289279,0.99637480,0.08041618,-0.00165612,0.02770824
1756816750646,-0.08442978,0.13295834,-0.05453804,0.01325650,-0.04002103,-0.00636594,0.99636945,0.08048975,-0.00187823,0.02767291
1756816750657,-0.08949646,0.04950462,-0.13738917,0.01791436,-0.04510624,-0.00208725,0.99636123,0.08058917,-0.00212857,0.02766133
1756816750669,-0.10618634,0.07169544,-0.08163529,0.02713907,-0.02549572,-0.00589174,0.99634963,0.08073980,-0.00227007,0.02762863
1756816750680,-0.29246399,-0.01135004,-0.05453264,0.01518068,-0.02872104,-0.03227706,0.99634734,0.08082557,-0.00243235,0.02744626
1756816750691,-0.00116698,-0.00024798,0.09359176,0.02185337,-0.00765890,-0.01589653,0.99633968,0.08094904,-0.00247562,0.02735645
1756816750702,-0.14257046,-0.08916756,-0.00797139,0.03496501,-0.01953831,-0.00314647,0.99632438,0.08113960,-0.00258210,0.02733930
1756816750713,-0.01557367,0.04388807,0.09021545,0.01948090,-0.03403369,0.01557047,0.99631268,0.08124772,-0.00277099,0.02742571
1756816750725,-0.08990999,-0.03586027,0.11804050,0.02366442,-0.04630703,0.00453451,0.99630030,0.08138142,-0.00303262,0.02745133
1756816750736,-0.17275233,-0.13512480,0.11564992,0.02408627,-0.06765124,0.00913008,0.99628689,0.08151390,-0.00340471,0.02750155
1756816750747,0.03891338,-0.03016902,-0.04482565,0.01133634,-0.05966220,0.02003325,0.99627722,0.08157851,-0.00374478,0.02761574
1756816750758,-0.13038731,-0.02542122,-0.06997401,-0.00769991,-0.05725800,0.02306089,0.99627591,0.08153578,-0.00406256,0.02774373
1756816750769,-0.15698163,0.01023654,-0.07292752,-0.00167285,-0.04336647,0.01969679,0.99627261,0.08152649,-0.00430325,0.02785304
1756816750780,-0.20846537,0.07691644,-0.04973267,0.00417181,-0.03160127,0.04670514,0.99626276,0.08154944,-0.00447705,0.02810992
1756816750791,-0.15118325,0.10099019,-0.02421164,0.02965140,-0.02325633,0.06682590,0.99623770,0.08171697,-0.00460845,0.02848749
1756816750803,-0.09545892,0.15158881,0.09907656,0.01298517,-0.00767476,0.08802435,0.99621714,0.08179034,-0.00465181,0.02898483
1756816750814,-0.10428292,0.14806444,-0.00656291,0.03974890,-0.03343335,0.09680667,0.99618297,0.08200697,-0.00483403,0.02951242
1756816750825,0.11599562,0.04656297,0.06643004,0.04735883,-0.03233945,0.07287903,0.99614772,0.08227454,-0.00501674,0.02992419
1756816750836,0.03490383,0.11054464,-0.10214070,0.04711212,-0.05422951,0.07041078,0.99611271,0.08253602,-0.00531772,0.03031497
1756816750847,0.17047706,0.11428417,-0.05667729,0.06238691,-0.05630512,0.07899921,0.99606840,0.08288538,-0.00563303,0.03075736
1756816750858,0.05674855,-0.01359792,-0.04911317,0.06773091,-0.04846960,0.08035553,0.99602078,0.08326806,-0.00590688,0.03121137
1756816750870,0.16158168,0.09097963,0.09146363,0.08439910,-0.04362432,0.08942188,0.99596436,0.08373648,-0.00614899,0.03170766
1756816750881,0.08177832,0.02408002,0.03225867,0.07137713,-0.04210771,0.10776588,0.99591078,0.08412905,-0.00638059,0.03230038
1756816750892,0.09994147,0.02309272,0.10671264,0.05782088,-0.02196497,0.08811818,0.99586565,0.08445863,-0.00650579,0.03280265
1756816750903,-0.09902535,0.04960008,-0.03791824,0.10120028,-0.04539618,0.10467526,0.99579688,0.08502029,-0.00675774,0.03338360
1756816750914,0.19495716,0.00387106,0.02201129,0.09227641,-0.03971500,0.11152471,0.99573055,0.08553243,-0.00697815,0.03400256
1756816750925,0.17899293,0.03812576,0.05901929,0.05958981,-0.05013234,0.09270064,0.99568240,0.08586315,-0.00725639,0.03451705
1756816750937,0.14325462,-0.01312463,0.08922662,0.02257961,-0.03765640,0.06616171,0.99565679,0.08599072,-0.00746915,0.03489086
1756816750948,0.25802887,0.10307751,0.09598405,0.07050764,-0.08833945,0.08631812,0.99560270,0.08637852,-0.00795501,0.03536561
1756816750959,0.10475020,-0.31595773,-0.18621067,0.05952037,-0.08682235,0.05378269,0.99555859,0.08671481,-0.00844556,0.03566948
1756816750970,0.32563500,-0.31295788,0.05865650,0.02647344,-0.00486599,0.02299420,0.99554113,0.08686041,-0.00847232,0.03579595
1756816750981,0.03608659,0.01935935,0.07489458,0.03195487,-0.05819435,0.02841260,0.99551694,0.08703936,-0.00879821,0.03595506
1756816750992,0.13168333,0.01245146,0.09921927,0.03163293,-0.04494508,0.03267428,0.99549277,0.08721492,-0.00904766,0.03613641
1756816751004,0.15961855,-0.08972629,-0.07766483,0.03870985,-0.03031975,-0.00212221,0.99547227,0.08743557,-0.00922048,0.03612431
1756816751014,0.11215197,0.00323678,-0.01013262,0.04300857,-0.02192265,-0.00687641,0.99545190,0.08766996,-0.00933996,0.03608683
1756816751026,0.12174458,-0.07299134,0.00839821,0.03520166,-0.01781225,0.00615285,0.99543233,0.08786709,-0.00943971,0.03612129
1756816751037,0.01140395,-0.00014663,0.12401796,0.04460248,-0.01688090,-0.00335205,0.99541003,0.08811687,-0.00953424,0.03610252
1756816751048,-0.01131661,-0.07509666,0.11060198,0.03199062,-0.01517742,-0.00476262,0.99539458,0.08829282,-0.00961772,0.03607632
1756816751059,0.01384868,-0.11248825,-0.10806479,0.06021100,0.00069439,0.00622984,0.99536255,0.08863903,-0.00961372,0.03611214
1756816751070,0.05383670,-0.02448247,-0.02001419,0.02573729,0.03517764,-0.00765255,0.99535323,0.08878187,-0.00941849,0.03606967
1756816751082,-0.08161190,0.01887825,0.09438068,0.00355241,0.04746150,-0.01911324,0.99535773,0.08880141,-0.00915745,0.03596455
1756816751093,0.04833417,-0.03150414,0.10327026,0.01432061,0.05368114,-0.00627709,0.99535453,0.08888232,-0.00885415,0.03592908
1756816751104,0.05808151,-0.02528275,0.17143770,-0.03466349,0.05219128,-0.00892193,0.99537620,0.08868820,-0.00856188,0.03587912
1756816751115,0.13167990,-0.00343420,0.11716924,-0.01420421,0.06475595,-0.01889233,0.99538978,0.08861079,-0.00820896,0.03577616
1756816751126,-0.01820980,0.01502405,-0.10713661,0.00621209,0.05836588,-0.02994929,0.99539548,0.08864651,-0.00787336,0.03560395
1756816751137,0.00775630,0.15352389,0.07328159,-0.01201628,0.07222637,-0.04499549,0.99541293,0.08858162,-0.00748333,0.03536097
1756816751148,-0.02142640,0.10392434,-0.03441863,-0.01914446,0.04854589,-0.00865616,0.99542619,0.08847441,-0.00721148,0.03531250
1756816751160,0.06754348,-0.04659409,0.09071775,0.00422132,0.04363484,-0.00553531,0.99542692,0.08849784,-0.00696930,0.03528178
1756816751171,-0.00676654,-0.02977903,0.14045700,-0.00911924,0.02311622,-0.00732867,0.99543400,0.08844541,-0.00683638,0.03523964
1756816751182,0.09500228,0.00141919,0.18202678,-0.02189663,0.00345375,-0.01722140,0.99544778,0.08832826,-0.00681791,0.03514750
1756816751193,0.09894525,-0.04995543,0.06975039,-0.02311997,0.00213400,-0.02361004,0.99546400,0.08819879,-0.00680596,0.03501529
1756816751204,-0.18779140,0.05082402,-0.05865539,0.00577020,-0.02118900,-0.04588577,0.99546928,0.08823081,-0.00692356,0.03476062
1756816751215,-0.11466449,0.12858863,-0.02110202,0.00443267,-0.00725917,-0.03767377,0.99547414,0.08825564,-0.00696421,0.03454965
1756816751226,-0.01045362,0.06363215,-0.02922262,0.02203591,0.00257581,-0.03276147,0.99546964,0.08837904,-0.00694978,0.03436618
1756816751238,0.06557271,-0.04549515,-0.00712747,0.04110189,-0.00253309,0.00787246,0.99544756,0.08860921,-0.00696397,0.03441027
1756816751249,0.02827174,-0.14046113,0.04453635,0.03757370,-0.02064497,-0.00164344,0.99542865,0.08881586,-0.00707752,0.03440123
1756816751260,-0.03536952,-0.06088863,0.12660544,0.03821564,-0.00170306,-0.00000035,0.99540947,0.08902987,-0.00708705,0.03440123
1756816751271,0.00824992,0.00769168,0.16679299,0.03517039,-0.01697387,0.00529312,0.99539030,0.08922507,-0.00718126,0.03443061
1756816751282,-0.09489379,0.07432433,-0.07597282,0.02721950,-0.00761020,0.01136398,0.99537411,0.08937750,-0.00722387,0.03449424
1756816751293,-0.14073237,0.06806301,-0.05614635,0.01195213,-0.01008049,0.02532995,0.99536256,0.08944562,-0.00728133,0.03463863
1756816751304,-0.14891766,0.06796549,-0.04531186,-0.00477161,-0.01386761,0.04083103,0.99535657,0.08941962,-0.00735691,0.03486115
1756816751316,-0.09071475,-0.00771354,-0.07407147,-0.01925585,-0.01566369,0.03252959,0.99535918,0.08931275,-0.00744385,0.03504169
1756816751327,-0.11933049,-0.11949017,-0.23496239,-0.01344758,-0.01275437,0.02890116,0.99535969,0.08923677,-0.00751591,0.03520499
1756816751338,-0.16912322,-0.04201397,-0.11358362,-0.03304059,-0.00703329,0.01696539,0.99537237,0.08905505,-0.00755459,0.03529829
1756816751349,-0.06502834,-0.07042035,-0.26006456,-0.00307664,0.01137225,0.00580467,0.99537325,0.08903766,-0.00749034,0.03533109
1756816751360,-0.09039570,0.04974846,-0.17168124,-0.00119151,0.01285596,0.01543866,0.99537136,0.08903117,-0.00742027,0.03541523
1756816751371,-0.05199420,-0.06796129,-0.21320106,0.00339567,0.00729901,0.02100111,0.99536588,0.08904984,-0.00738013,0.03553074
1756816751382,-0.11528501,0.01303149,-0.15478629,0.00649902,0.02183924,0.01644345,0.99536013,0.08908689,-0.00725564,0.03562447
1756816751394,-0.08167985,0.03324142,-0.13340447,-0.00611619,0.01824654,0.00187741,0.99536352,0.08905294,-0.00715438,0.03563489
1756816751405,-0.06337317,-0.03277317,-0.23680281,-0.00002572,0.02467956,-0.01130685,0.99536676,0.08905280,-0.00701740,0.03557213
1756816751416,-0.10010990,0.03674947,-0.11618630,0.01566003,0.02533726,-0.04799285,0.99536946,0.08914050,-0.00687552,0.03530337
1756816751427,-0.03973980,0.04831992,-0.02185531,0.01907166,0.02886205,-0.02431545,0.99536569,0.08925111,-0.00670812,0.03516234
1756816751438,-0.19074029,0.05115479,-0.10359482,0.00699763,0.01643546,-0.00697266,0.99536422,0.08928890,-0.00661936,0.03512469
1756816751449,-0.10622836,-0.00701043,-0.04116406,0.00790735,0.01401791,-0.01280271,0.99536331,0.08933239,-0.00654227,0.03505428
1756816751460,-0.02816664,-0.15876123,-0.00855078,0.00107327,0.01824009,-0.02100872,0.99536761,0.08933845,-0.00643921,0.03493558
1756816751472,-0.10586740,-0.21583844,-0.04972073,-0.01761087,0.01178126,-0.02855223,0.99538235,0.08924071,-0.00637382,0.03477711
1756816751483,-0.05418164,-0.12452216,-0.01378729,-0.03636920,0.02860493,-0.01937525,0.99540518,0.08903887,-0.00621507,0.03466958
1756816751494,-0.07898033,-0.04685733,0.01033670,-0.02310587,0.03175924,-0.01198416,0.99542031,0.08890832,-0.00603563,0.03460187
1756816751505,-0.21163746,-0.04653840,-0.04745759,-0.01151061,0.02420903,-0.00006897,0.99542689,0.08884386,-0.00590006,0.03460148
1756816751516,-0.14931262,0.01092569,-0.01545355,-0.02813101,0.04342941,0.01470064,0.99543915,0.08869054,-0.00566337,0.03468160
1756816751527,-0.08552344,0.04080251,0.14688000,-0.02952933,0.03533929,0.02516851,0.99545025,0.08852223,-0.00546193,0.03482506
1756816751539,-0.15563855,-0.11833337,0.01029273,-0.03531697,0.02624752,0.01424945,0.99546568,0.08832622,-0.00531626,0.03490415
1756816751550,-0.06724329,0.00946176,-0.00628894,-0.04438068,0.01567974,-0.01485729,0.99549085,0.08807990,-0.00522923,0.03482169
1756816751561,0.00137412,-0.00283050,-0.18024576,-0.02237282,0.00006393,-0.00832847,0.99550356,0.08795462,-0.00522888,0.03477505
1756816751572,0.08732221,0.03692520,-0.13945868,-0.02168041,0.01341100,-0.01710825,0.99551776,0.08783537,-0.00515512,0.03468095
1756816751583,-0.01401304,0.16535894,0.03884686,-0.01551305,0.01713625,-0.00691050,0.99552726,0.08774850,-0.00505915,0.03464225
1756816751594,-0.17676122,-0.01961724,-0.06129623,0.00274495,0.01060650,0.00643898,0.99552495,0.08776387,-0.00499976,0.03467831
1756816751605,0.10553845,0.07084671,0.22299176,-0.01835723,0.01963727,0.03212975,0.99552824,0.08766199,-0.00489077,0.03485663
1756816751617,-0.09020857,-0.01568539,-0.12146259,-0.01079934,0.01389900,0.01800510,0.99553042,0.08760097,-0.00481224,0.03495836
1756816751628,0.01307017,0.06135395,-0.12545030,-0.01566674,0.00439911,0.01778075,0.99553480,0.08751246,-0.00478739,0.03505882
1756816751639,-0.11348654,0.02179775,-0.09008048,-0.01981429,-0.00551337,0.01686050,0.99554107,0.08740150,-0.00481826,0.03515324
1756816751650,0.21451539,0.05062636,0.20917048,-0.03229864,0.01470430,0.03873344,0.99554941,0.08722547,-0.00473812,0.03536434
1756816751661,-0.23192078,0.03803927,-0.03681937,-0.02748498,-0.00745865,0.03527962,0.99555559,0.08707293,-0.00477952,0.03556014
1756816751672,0.07073531,-0.05264300,-0.09307019,-0.01480010,0.01071820,0.04255876,0.99555458,0.08699005,-0.00471950,0.03579847
1756816751684,-0.03615969,0.02411226,-0.09096397,-0.01543098,0.01970117,0.04176558,0.99555421,0.08690286,-0.00460818,0.03603444
1756816751695,-0.00795429,0.08274936,0.02771586,-0.01306674,0.03787852,0.03885348,0.99555366,0.08683034,-0.00439796,0.03625008
1756816751706,0.14029175,-0.00245945,-0.03362164,0.00810765,0.04062242,0.04529106,0.99554152,0.08687534,-0.00417250,0.03650145
1756816751717,-0.16544752,-0.01746749,-0.05273035,-0.00143717,0.02923847,0.04568775,0.99553355,0.08686736,-0.00401023,0.03675501
1756816751728,0.29381224,0.04799575,0.14608742,-0.01722911,0.04088777,0.04084473,0.99553439,0.08677088,-0.00378126,0.03698374
1756816751739,-0.07610439,-0.23613640,-0.13567223,-0.00371873,0.03083864,0.04814738,0.99552686,0.08675024,-0.00361010,0.03725096
1756816751750,-0.02128565,0.13721059,0.09046399,-0.00589274,0.02999572,0.02846702,0.99552437,0.08671754,-0.00344363,0.03740895
1756816751762,0.26710456,0.07695155,0.04694284,0.00491408,0.02847710,0.05249755,0.99551143,0.08674506,-0.00328416,0.03770294
1756816751773,0.07911490,0.06789564,0.06082107,-0.00168098,0.01836043,0.06243834,0.99549928,0.08673564,-0.00318134,0.03805260
1756816751784,0.04517153,-0.20940340,0.04631183,0.01635804,0.02222017,0.06684058,0.99547750,0.08682643,-0.00305802,0.03842356
1756816751795,0.21895689,0.17147036,0.13668169,0.00888355,0.02328798,0.04933313,0.99546272,0.08687662,-0.00292644,0.03870229
1756816751806,-0.17670254,0.03794694,-0.10818348,-0.01961306,0.01780621,0.07040938,0.99545723,0.08676777,-0.00282761,0.03909306
1756816751817,0.34903621,-0.06408465,0.35339009,-0.00947864,0.01821435,0.05518219,0.99545002,0.08671516,-0.00272653,0.03939933
1756816751829,0.02770262,-0.06526634,0.07550147,-0.00036758,0.00771694,0.05612017,0.99543772,0.08671309,-0.00268292,0.03971640
1756816751840,0.13110188,-0.04123610,-0.00075524,-0.00866052,0.04101517,0.05718738,0.99542934,0.08666242,-0.00244299,0.04005095
1756816751851,0.00345955,-0.00851086,-0.12953405,-0.01580407,0.04427361,0.07039923,0.99542224,0.08658024,-0.00221276,0.04041703
1756816751862,0.25433548,-0.06756698,-0.09906962,0.02339407,0.04589556,0.04736860,0.99539979,0.08671593,-0.00194657,0.04069176
1756816751873,0.08034907,0.02044146,-0.09931630,0.00502508,0.02644277,0.03462927,0.99538985,0.08674356,-0.00180113,0.04088223
1756816751884,0.20432188,0.09064818,0.20966662,-0.03451893,0.03406851,0.02557935,0.99540071,0.08655716,-0.00161716,0.04102035
1756816751896,0.16198375,0.05028426,0.32850055,-0.01768168,0.02413208,0.01822418,0.99540544,0.08645549,-0.00147840,0.04112514
1756816751908,0.07050925,-0.06975876,0.12305675,0.00313911,0.01337847,0.01187450,0.99540101,0.08647417,-0.00139880,0.04119580
1756816751918,0.08184303,0.05097862,0.02970902,-0.00343424,0.01216056,0.00799352,0.99540093,0.08645665,-0.00133678,0.04123656
1756816751928,0.19430622,0.02601075,0.06670776,-0.02265049,0.01470434,0.02472782,0.99540601,0.08633661,-0.00125885,0.04136762
1756816751940,0.09834332,-0.04973123,-0.01776791,-0.00469223,0.00073723,0.00475090,0.99540721,0.08630986,-0.00125465,0.04139470
1756816751951,0.24509893,-0.11743256,0.10043430,-0.00606208,-0.00543488,-0.01609058,0.99541374,0.08627652,-0.00128454,0.04130620
1756816751962,0.13191074,-0.05051837,0.12416695,-0.01873361,-0.02755290,-0.03220964,0.99543052,0.08616880,-0.00144297,0.04112100
1756816751973,0.13597912,-0.01361616,0.18816263,-0.03059775,-0.04848028,-0.07533094,0.99546168,0.08600051,-0.00170961,0.04070668
1756816751985,0.08582375,0.00490219,0.12978424,-0.03399190,-0.03672480,-0.02938741,0.99548485,0.08580676,-0.00191894,0.04053917
1756816751996,0.02256529,-0.01090075,0.22589498,-0.04936695,-0.03420089,-0.04235236,0.99551671,0.08554018,-0.00210363,0.04031047
1756816752007,0.06177406,-0.11962520,0.01128112,-0.01040286,-0.00187408,-0.02229483,0.99552665,0.08548244,-0.00211403,0.04018673
1756816752018,-0.14573545,0.07980720,-0.00140381,-0.01940506,-0.02159362,-0.01939614,0.99554033,0.08537183,-0.00223711,0.04007617
1756816752029,0.02853572,-0.03188530,-0.00603247,-0.01860327,-0.01607742,0.00183469,0.99554871,0.08526673,-0.00232795,0.04008654
1756816752040,0.07785950,0.03059471,0.09571898,-0.02749225,-0.02610464,-0.00826306,0.99556287,0.08511827,-0.00246891,0.04004192
1756816752052,-0.05502256,0.00339971,0.04670241,-0.04776360,-0.04842490,-0.01610211,0.99558930,0.08484363,-0.00274736,0.03994933
1756816752063,-0.06718641,0.10372877,0.24223088,-0.06282265,-0.05141711,-0.03019280,0.99562452,0.08449810,-0.00303015,0.03978327
1756816752074,-0.16990157,0.08741786,0.01050762,-0.05526621,-0.05918421,-0.02727920,0.99565576,0.08418861,-0.00336158,0.03963051
1756816752085,-0.10809994,0.07439017,-0.10572412,-0.03758037,-0.03791280,-0.02905468,0.99567926,0.08397816,-0.00357389,0.03946780
1756816752096,-0.02948157,-0.10313220,-0.26472618,-0.01284987,0.00574024,-0.01292309,0.99568823,0.08390684,-0.00354204,0.03939608
1756816752107,-0.18818446,0.07126080,-0.24115669,-0.00135625,0.01237201,0.00088785,0.99568891,0.08389932,-0.00347337,0.03940100
1756816752118,-0.13029058,0.01550682,-0.07580720,-0.00879829,0.01651596,0.00801761,0.99569155,0.08385093,-0.00338253,0.03944510
1756816752129,-0.16165099,0.17926412,-0.02466968,-0.00517764,0.03468770,0.03051833,0.99568785,0.08382193,-0.00318828,0.03961600
1756816752141,-0.05814475,0.03390104,-0.01446846,-0.00095936,0.04180240,0.05627266,0.99567633,0.08381651,-0.00295210,0.03993394
1756816752152,0.00338935,-0.00514993,-0.07036121,0.00677427,0.03368748,0.01185439,0.99567111,0.08385377,-0.00276682,0.03999914
1756816752163,-0.01520256,0.04597327,-0.12335822,0.01376797,0.01682118,0.00784136,0.99566303,0.08393156,-0.00267178,0.04004345
1756816752175,0.08805880,0.08040581,-0.06367642,0.01510197,0.02530623,0.00268303,0.99565540,0.08401915,-0.00252500,0.04005901
1756816752185,-0.01358081,0.08450380,-0.11799418,0.03832717,0.01027753,0.00926882,0.99563694,0.08421654,-0.00247207,0.04010674
1756816752196,-0.06505763,0.05738979,-0.00268949,0.03478211,0.00240511,0.00557797,0.99561890,0.08441479,-0.00245836,0.04013854
1756816752207,0.04131014,-0.05596886,-0.01828967,0.03203727,-0.02255396,0.02211548,0.99559835,0.08459420,-0.00258467,0.04026238
1756816752218,0.10787508,-0.02565040,0.02441890,0.00971117,-0.02844229,0.02727504,0.99558732,0.08464761,-0.00274110,0.04041240
1756816752230,0.16605882,-0.19475812,-0.07830281,0.00430825,-0.04508470,0.01286351,0.99558166,0.08467152,-0.00299132,0.04048379
1756816752241,0.06779229,-0.16276555,-0.01527804,-0.02264799,-0.05281404,0.00581165,0.99559018,0.08454470,-0.00328708,0.04051634
1756816752252,0.05083900,-0.10866853,0.00627186,-0.03455972,-0.05518843,-0.01158014,0.99560785,0.08435462,-0.00359061,0.04045264
1756816752263,0.06719691,-0.18036976,-0.18791031,-0.03871893,-0.03966370,-0.00888009,0.99562739,0.08413779,-0.00381273,0.04040292
1756816752274,-0.09123160,-0.10044534,-0.08743028,-0.04170543,-0.03059537,-0.01797895,0.99565051,0.08390424,-0.00398406,0.04030223
1756816752285,-0.08933094,0.00640544,-0.05583184,-0.04500767,0.00259184,-0.01993734,0.99567629,0.08365220,-0.00396955,0.04019058
1756816752297,-0.04551707,0.10732075,0.06664290,-0.02514167,0.01347818,-0.00236823,0.99568883,0.08351266,-0.00389475,0.04017744
1756816752308,-0.13877802,0.00098290,-0.05060503,-0.01486394,0.02548625,0.00574091,0.99569505,0.08342942,-0.00375202,0.04020959
1756816752319,-0.15314427,0.03031607,-0.05978269,0.00500062,0.05216972,0.00544066,0.99569249,0.08345793,-0.00345466,0.04024060
1756816752330,-0.01989846,0.13622797,-0.17000978,0.02411957,0.05790321,0.01125106,0.99567991,0.08359058,-0.00313619,0.04030248
1756816752341,-0.04700214,0.05326945,-0.12312690,0.02444760,0.06090418,0.02633562,0.99566359,0.08372627,-0.00279817,0.04044865
1756816752353,-0.04785954,0.08918362,0.01780633,0.00927522,0.05832367,0.01825518,0.99565579,0.08377914,-0.00246573,0.04055270
1756816752364,0.01196112,-0.04516552,-0.01162446,0.01698873,0.05110141,0.02230118,0.99564369,0.08387173,-0.00218722,0.04067424
1756816752375,0.07312358,0.03643876,0.03598365,0.02836714,0.03721863,0.00880597,0.99562858,0.08403200,-0.00197694,0.04072399
1756816752386,0.11249682,0.06525512,0.06838500,0.01395350,0.03263485,0.00534223,0.99562104,0.08411084,-0.00179255,0.04075418
1756816752398,0.07471905,-0.01195360,-0.01771642,0.01223958,0.00930554,0.00840764,0.99561314,0.08418183,-0.00173858,0.04080294
1756816752408,0.06156876,0.05061797,-0.08440051,0.00351301,0.00361064,-0.00841785,0.99561342,0.08420009,-0.00171980,0.04075917
1756816752419,0.11162712,-0.11807369,0.03189999,0.00622206,0.01407629,-0.00020713,0.99561065,0.08423494,-0.00164098,0.04075801
1756816752430,0.06614618,-0.18931069,-0.14592092,-0.00481990,-0.00669614,-0.01185005,0.99561554,0.08420819,-0.00167814,0.04069224
1756816752442,0.11533122,-0.05771259,0.00581492,-0.00388316,-0.00620308,-0.01523723,0.99562085,0.08418625,-0.00171319,0.04060615
1756816752453,0.09948130,0.01545282,0.15357797,-0.02625100,-0.02335420,-0.00779564,0.99563457,0.08404187,-0.00184163,0.04056328
1756816752467,-0.08206606,0.10503242,0.27974746,-0.02993107,-0.04420329,-0.02374627,0.99565888,0.08382786,-0.00215769,0.04039349
1756816752474,0.65711649,-0.21681177,-0.11987447,-0.05489055,-0.05600420,-0.04747324,0.99568260,0.08362477,-0.00236490,0.04021784
1756816752486,-0.28257305,0.06521626,0.17457856,-0.04389475,-0.02481770,-0.04621649,0.99571356,0.08337676,-0.00250512,0.03995672
1756816752497,-0.09298088,0.03495879,-0.02120474,-0.02770531,-0.01404431,-0.03107745,0.99573331,0.08322161,-0.00258377,0.03978268
1756816752508,-0.09841156,0.03740689,0.05537918,0.00925337,-0.01166322,-0.01277413,0.99573168,0.08327297,-0.00264850,0.03971179
1756816752519,-0.14212759,0.11807218,0.12672767,0.00854539,-0.00431998,0.01372902,0.99572448,0.08332125,-0.00267291,0.03978935
1756816752530,-0.03269254,0.10267135,-0.02180846,0.01451235,-0.01957204,0.00175017,0.99571711,0.08340107,-0.00278056,0.03979898
1756816752542,-0.06643508,0.02189257,0.09953380,0.02192035,-0.01080268,0.01969516,0.99570211,0.08352492,-0.00284159,0.03991026
1756816752553,0.05686837,-0.00630933,0.08690466,0.02643080,-0.00445438,0.01277502,0.99568674,0.08367293,-0.00286654,0.03998180
1756816752564,-0.08956852,-0.07505187,0.13779773,0.02862489,-0.01113862,0.00497261,0.99567195,0.08383323,-0.00292891,0.04000965
1756816752575,-0.12699863,0.03352440,0.06179573,0.01047862,0.00291165,-0.00695130,0.99566859,0.08389243,-0.00291246,0.03997037
1756816752586,-0.00616840,0.06137650,0.03539966,0.01972467,0.02292613,0.00597449,0.99565849,0.08400092,-0.00278637,0.04000323
1756816752598,-0.10172842,0.08908286,-0.02453361,0.04465937,0.04220755,0.01848333,0.99563383,0.08425101,-0.00255001,0.04010674
1756816752609,-0.07782132,0.12102261,0.02816957,0.04687204,0.03138643,0.00703201,0.99561064,0.08451115,-0.00237581,0.04014576
1756816752620,-0.00721522,0.08862457,-0.01746444,0.01414960,0.04054712,0.00262175,0.99560383,0.08459039,-0.00214875,0.04016045
1756816752631,-0.14176431,-0.08532243,-0.25780187,0.03535667,0.03214464,-0.00241082,0.99558762,0.08479192,-0.00196552,0.04014670
1756816752642,-0.14440537,-0.07547855,-0.14729615,0.04728556,0.03002449,-0.01367244,0.99556878,0.08505199,-0.00180039,0.04007151
1756816752653,-0.00960571,-0.03707203,0.02216702,0.04140380,0.04509904,-0.01281353,0.99555255,0.08527971,-0.00155234,0.04000103
1756816752665,0.14237786,0.14757252,0.35391730,0.02355101,0.04590614,0.00996958,0.99553925,0.08541278,-0.00129297,0.04005736
1756816752676,0.00956923,-0.00140220,0.15707544,0.03584082,0.03620059,0.01323577,0.99551909,0.08561528,-0.00108844,0.04013214
1756816752687,0.02257784,0.05875667,0.15351197,0.02649531,0.03779700,0.00104374,0.99550663,0.08575968,-0.00088245,0.04013783
1756816752698,0.10364909,-0.00932338,0.03050862,0.03253725,0.02892424,-0.01651854,0.99549477,0.08594188,-0.00072047,0.04004533
1756816752710,0.05781997,0.00147088,0.02185276,0.02250583,0.01395784,-0.03080597,0.99549076,0.08607129,-0.00064021,0.03986819
1756816752720,0.05326746,-0.02411545,0.06841269,0.04054419,0.00819981,-0.04018207,0.99548059,0.08628820,-0.00059634,0.03965322
1756816752731,0.06298991,-0.11872310,-0.05943011,0.01525560,0.00908187,-0.03613191,0.99548126,0.08637516,-0.00054458,0.03944727
1756816752742,-0.01526825,-0.11272573,0.11718637,0.02695825,0.00184829,-0.01659938,0.99547209,0.08652208,-0.00053450,0.03935680
1756816752754,-0.07206540,-0.10813245,0.00734302,0.03528436,0.01715648,-0.00289925,0.99545573,0.08671791,-0.00043929,0.03934071
1756816752765,-0.15907508,0.08088295,0.12295548,0.01862794,0.02378911,0.00083217,0.99544642,0.08682316,-0.00030488,0.03934541
1756816752776,-0.02619292,0.06891271,0.09426235,-0.00108030,0.03688037,0.02032746,0.99544249,0.08681711,-0.00009835,0.03945924
1756816752787,-0.12622005,-0.12617321,-0.08679663,0.01931252,0.03785437,0.01028824,0.99543097,0.08692333,0.00010985,0.03951583
1756816752798,-0.01406919,0.01974771,-0.05623357,0.03123806,0.05105777,0.00265629,0.99541502,0.08709826,0.00039577,0.03953070
1756816752810,-0.00118345,-0.03565859,-0.18184193,0.03774661,0.04280555,0.01793416,0.99539198,0.08731342,0.00063977,0.03963293
1756816752821,0.02047748,0.09334973,-0.01598359,0.00525098,0.04755909,0.02919357,0.99538284,0.08734230,0.00090134,0.03979349
1756816752832,0.14146081,-0.15015677,-0.28483093,0.02237435,0.02781195,0.03156585,0.99536460,0.08746759,0.00105709,0.03997026
1756816752843,0.07608483,-0.08994677,-0.02464362,0.02203917,0.01513644,0.02517831,0.99534768,0.08759322,0.00114337,0.04011378
1756816752854,-0.00562190,-0.06112103,-0.06284867,-0.01137396,-0.00375128,0.00828735,0.99535134,0.08753123,0.00112292,0.04015895
1756816752865,0.00731218,0.08448013,0.06970521,-0.00512008,0.01227858,-0.00826861,0.99535557,0.08750307,0.00119045,0.04011347
1756816752877,0.06596888,-0.03821428,-0.11448865,-0.02548513,-0.01024261,-0.01779714,0.99537248,0.08735780,0.00113207,0.04001202
1756816752888,-0.03965273,-0.02831667,-0.07230973,-0.02143438,-0.01248003,-0.02182985,0.99538813,0.08723670,0.00106156,0.03988869
1756816752899,-0.08482602,0.03390873,-0.08720133,-0.01470839,-0.01174434,-0.00828614,0.99539694,0.08715727,0.00099814,0.03984394
1756816752910,-0.01368608,0.05388796,-0.08248492,0.00306460,-0.00428310,0.01209432,0.99539271,0.08717459,0.00097394,0.03991227
1756816752921,-0.01452517,0.11190018,-0.03461389,0.00476440,0.00050935,0.02389134,0.99538514,0.08720079,0.00097674,0.04004368
1756816752932,-0.04994211,-0.13168511,-0.12236278,0.00932937,-0.00281378,0.02223734,0.99537564,0.08725257,0.00096112,0.04016709
1756816752943,0.02242477,-0.06549793,-0.05840244,0.00857920,-0.01413481,0.01054009,0.99536912,0.08730061,0.00088197,0.04022612
1756816752954,0.07056194,-0.13087072,-0.07982765,0.00969804,-0.01741308,-0.00650909,0.99536591,0.08735492,0.00078446,0.04018967
1756816752966,0.08379484,0.08212998,0.07222753,-0.00527745,-0.01708485,-0.00895145,0.99537051,0.08732590,0.00069049,0.04014043
1756816752977,0.02627660,-0.05416552,-0.01890723,-0.00454340,-0.01293740,-0.00491666,0.99537390,0.08730045,0.00061804,0.04011290
1756816752988,0.04092347,0.05148706,0.07403543,-0.02127873,-0.00218551,0.00605869,0.99538290,0.08718236,0.00060591,0.04014653
1756816752999,-0.05623851,0.01077189,-0.01065268,-0.01670227,-0.00103777,0.00720598,0.99538947,0.08708883,0.00060010,0.04018688
1756816753010,0.02646751,0.00243999,-0.07035428,-0.00530754,0.01116664,0.00979990,0.99538981,0.08705884,0.00066319,0.04024225
1756816753021,-0.00792956,-0.03837555,-0.11703945,-0.00678431,0.02217295,0.01418640,0.99538983,0.08702152,0.00078514,0.04032027
1756816753032,0.31388851,-0.14231541,-0.17414319,-0.00996167,0.04667956,0.02495643,0.99538880,0.08696624,0.00104421,0.04045878
1756816753044,-0.02803471,0.04971426,-0.02303692,0.00964840,0.02966395,0.01085917,0.99538142,0.08702027,0.00121033,0.04051959
1756816753055,0.07327739,0.05755203,0.02796117,-0.01357883,0.02004005,0.02084754,0.99538315,0.08694491,0.00132155,0.04063530
1756816753066,-0.18903845,0.12470207,0.16473014,-0.00268879,0.01077671,0.00685061,0.99538281,0.08692985,0.00138190,0.04067366
1756816753077,0.10069366,0.02104886,-0.01361407,-0.00288816,-0.00241582,0.01841927,0.99538000,0.08691353,0.00136825,0.04077773
1756816753088,0.11338930,0.04201930,0.03728092,-0.01977219,0.00139077,0.01382288,0.99538642,0.08680379,0.00137597,0.04085445
1756816753099,0.10950817,-0.02903115,0.03576345,-0.01546649,-0.01493366,0.00745576,0.99539226,0.08671873,0.00129384,0.04089545
1756816753111,0.03200017,0.02570487,0.01816425,-0.01362261,-0.01557705,0.00072113,0.99539885,0.08664244,0.00120661,0.04089949
1756816753122,0.00456121,0.00728720,-0.08872114,0.00899824,-0.01665170,-0.00205406,0.99539507,0.08669238,0.00111419,0.04088809
1756816753133,0.07677463,0.12637475,0.01148266,0.00348408,-0.01243785,0.00170446,0.99539304,0.08671207,0.00104392,0.04089772
1756816753144,0.07838744,-0.00878063,-0.07226391,0.00837823,-0.00674277,0.00010659,0.99538897,0.08675899,0.00100616,0.04089832
1756816753155,0.09573360,-0.02608972,0.01576822,0.00816097,-0.01233653,-0.00305839,0.99538584,0.08680346,0.00093892,0.04088165
1756816753166,-0.07971434,-0.05317479,0.11242937,0.00446010,-0.02330384,-0.01493461,0.99538722,0.08682866,0.00080726,0.04079727
1756816753177,-0.01022542,-0.09117589,0.02428991,-0.00020153,-0.03276107,-0.02831970,0.99539388,0.08682754,0.00062543,0.04064010
1756816753188,-0.01686406,-0.06981340,0.04410362,0.00022228,-0.00288444,-0.03018612,0.99540067,0.08682879,0.00060928,0.04047105
1756816753200,-0.03232801,0.05214622,-0.02103836,0.01717583,-0.01454139,-0.01683868,0.99539619,0.08692411,0.00052857,0.04037760
1756816753211,-0.07125303,-0.06625705,0.03653171,-0.00917013,0.01739613,-0.02202672,0.99540569,0.08687230,0.00062686,0.04025315
1756816753222,-0.08193731,-0.01515078,0.04861268,-0.01278000,0.00801410,-0.02962628,0.99541837,0.08680201,0.00067094,0.04009020
1756816753233,-0.04914066,0.05354290,-0.05745604,-0.00975563,0.00808388,-0.01823633,0.99542721,0.08674738,0.00071621,0.03998808
1756816753244,0.01005539,0.08187132,0.10092756,-0.00977848,0.00155724,-0.01817342,0.99543598,0.08669311,0.00072485,0.03988722
1756816753255,-0.06389679,0.01915002,-0.06343875,0.00302341,-0.02036670,-0.01629383,0.99543823,0.08671004,0.00061080,0.03979597
1756816753267,0.10946255,-0.04601369,0.20285073,-0.01390526,0.00552552,-0.02996624,0.99545157,0.08663287,0.00064147,0.03962966
1756816753278,-0.01499670,0.04178423,-0.00181412,0.02088966,-0.03818457,-0.02057034,0.99544612,0.08674881,0.00042954,0.03951549
1756816753289,-0.05442353,0.04839820,0.10618634,-0.01215445,-0.04127755,-0.01127322,0.99545455,0.08668135,0.00020045,0.03945293
1756816753300,0.01258330,-0.06539993,-0.03399246,0.02099649,-0.02449645,-0.00833368,0.99544618,0.08679893,0.00006327,0.03940626
1756816753311,-0.09020960,0.01969312,0.01895196,0.01209392,-0.02117284,0.00153435,0.99543987,0.08686726,-0.00005636,0.03941493
1756816753322,-0.09106568,0.03106782,0.05296762,-0.00069576,-0.02220544,-0.00001737,0.99544020,0.08686343,-0.00017849,0.03941483
1756816753333,-0.13933121,0.15750901,0.01094174,-0.01418006,-0.01547592,-0.00218595,0.99544759,0.08678402,-0.00026515,0.03940259
1756816753345,0.05550984,0.17338304,0.17219215,0.00409995,-0.00775397,0.00397034,0.99544472,0.08680678,-0.00030819,0.03942463
1756816753356,-0.08566233,0.11148840,-0.30203772,0.11123673,-0.07389379,0.02448094,0.99538455,0.08742970,-0.00072199,0.03956172
1756816753367,0.05558467,-0.08852863,-0.10568917,0.02745544,0.02060696,0.01140859,0.99536885,0.08758071,-0.00060865,0.03962447
1756816753378,-0.03598328,0.21221806,0.05785036,0.05288270,-0.02586209,0.01384324,0.99533930,0.08787950,-0.00075477,0.03970268
1756816753389,-0.04933115,-0.02117248,0.08187182,0.07370871,-0.04885432,0.03529716,0.99529502,0.08828858,-0.00102592,0.03989858
1756816753400,0.10279999,0.02519167,0.15020893,0.08347054,-0.04103055,0.00514688,0.99525241,0.08875184,-0.00125363,0.03992715
1756816753411,0.04713756,0.05365333,-0.02701926,0.07712424,-0.05136023,0.00644744,0.99521159,0.08918759,-0.00154382,0.03996357
1756816753423,0.02167523,0.14606480,0.10248961,0.07415071,-0.04921412,0.00234353,0.99517364,0.08959913,-0.00181696,0.03997658
1756816753434,-0.11465223,0.17720716,0.18310493,0.11612445,-0.07896811,0.00481473,0.99511343,0.09024362,-0.00225523,0.04000330
1756816753445,0.05480017,0.11635375,0.08968838,0.12994156,-0.08787963,0.00381810,0.99504507,0.09097129,-0.00274736,0.04002468
1756816753456,0.01364260,0.13316922,0.09986501,0.13277404,-0.10338988,0.00400757,0.99497478,0.09170819,-0.00332117,0.04004693
1756816753467,0.32836013,-0.08456027,-0.01403769,0.13685596,-0.09614972,0.02182662,0.99489698,0.09247458,-0.00385961,0.04016915
1756816753478,-0.00429341,0.00929921,0.05250250,0.15236441,-0.09739718,0.00343706,0.99481500,0.09332021,-0.00440016,0.04018823
1756816753489,-0.01306165,-0.09271085,-0.00520047,0.14971858,-0.07484415,0.00078838,0.99473460,0.09415114,-0.00481555,0.04019261
1756816753501,-0.01891241,0.02999045,0.05658739,0.14180686,-0.06067964,-0.00402811,0.99465833,0.09494526,-0.00515535,0.04017005
1756816753512,-0.02471496,-0.02077149,0.11495998,0.11681963,-0.06878805,0.00609413,0.99459162,0.09560529,-0.00554401,0.04020448
1756816753523,0.02656773,-0.01884324,0.11771078,0.11037845,-0.05046347,0.00249938,0.99453094,0.09621237,-0.00582156,0.04021823
1756816753534,0.00823939,-0.03576978,0.00383383,0.08890806,-0.03416245,-0.01623783,0.99448559,0.09670581,-0.00601116,0.04012811
1756816753545,-0.02833008,-0.06073239,0.03141009,0.05006968,-0.02004218,-0.02770078,0.99446385,0.09698620,-0.00612339,0.03997298
1756816753556,-0.01422786,-0.03699462,0.08416857,0.03874001,-0.01361767,-0.01704038,0.99444618,0.09720121,-0.00619897,0.03987841
1756816753567,0.00174655,-0.02526114,0.07588186,0.03937259,0.01303309,-0.02068069,0.99442970,0.09742170,-0.00612599,0.03976260
1756816753579,0.02850987,-0.01852771,-0.11071335,0.07788696,0.02154279,0.00140582,0.99438729,0.09785786,-0.00600535,0.03977047
1756816753590,0.09089373,-0.01501080,-0.02586229,0.07390835,0.01070714,0.03131658,0.99434108,0.09826066,-0.00594699,0.03994114
1756816753601,-0.02645010,-0.13204637,-0.08471225,0.03271130,0.01222948,0.00787712,0.99432159,0.09844385,-0.00587851,0.03998526
1756816753612,0.04395272,-0.16500090,0.02185757,0.01995863,0.00684395,-0.00579854,0.99431205,0.09855562,-0.00584018,0.03995278
1756816753623,0.05436737,-0.13844949,-0.07413910,0.02354771,-0.01991116,0.00223981,0.99429794,0.09868631,-0.00595069,0.03996522
1756816753634,0.00056351,-0.07653142,-0.23093578,0.02067672,-0.01654159,-0.01455381,0.99428907,0.09880313,-0.00604415,0.03988299
1756816753646,0.05167292,-0.10108257,-0.09870084,0.02397678,-0.02314392,-0.00515954,0.99427620,0.09893620,-0.00617260,0.03985435
1756816753657,0.05514917,0.03002364,-0.04378070,0.02264275,-0.03626216,0.00869356,0.99426048,0.09906187,-0.00637385,0.03990260
1756816753668,0.13690540,-0.06299145,0.02563953,0.03454339,-0.03518819,0.00974665,0.99423792,0.09925358,-0.00656915,0.03995669
1756816753679,0.01831952,-0.07262286,-0.04908964,0.01991216,-0.04509734,0.00372682,0.99422424,0.09936509,-0.00682169,0.03997756
1756816753690,0.06133661,-0.12623045,-0.08181022,0.01758035,-0.05318236,-0.00901198,0.99421442,0.09946266,-0.00711685,0.03992755
1756816753701,0.06119623,-0.07922024,-0.05321411,0.01208654,-0.05935220,-0.01443770,0.99420851,0.09952974,-0.00744626,0.03984742
1756816753713,-0.00812534,-0.11042184,-0.09315937,0.00339155,-0.04639748,-0.03104295,0.99421164,0.09954908,-0.00771072,0.03967047
1756816753723,0.00505861,0.00622081,0.05416168,-0.00687529,-0.05065310,-0.01387130,0.99421622,0.09951160,-0.00798678,0.03959488
1756816753735,-0.07033744,-0.08297933,-0.05618712,-0.01109778,-0.04727922,0.00124515,0.99422000,0.09944946,-0.00825155,0.03960185
1756816753746,-0.05844524,-0.05402027,-0.02779713,-0.02201833,-0.03218646,-0.00884978,0.99423279,0.09932615,-0.00843179,0.03955229
1756816753757,-0.01664669,-0.04284911,-0.10062089,-0.02443318,-0.01502473,-0.00570378,0.99424687,0.09919055,-0.00851518,0.03952063
1756816753768,-0.01106149,0.01805495,-0.14094837,-0.03359093,-0.01324068,-0.00694466,0.99426653,0.09900244,-0.00858933,0.03948174
1756816753779,-0.00071275,0.00000000,-0.01045362,-0.05105535,-0.00605103,-0.01580942,0.99429818,0.09871653,-0.00862321,0.03939321
1756816753790,0.02567240,-0.02293073,0.00397599,-0.04261413,-0.00746122,-0.01868561,0.99432513,0.09848215,-0.00866425,0.03929044
1756816753801,-0.02616429,-0.02134981,-0.05783617,-0.04331471,-0.01676935,-0.02288693,0.99435335,0.09823959,-0.00875816,0.03916227
1756816753813,0.08975778,-0.01241817,0.00763009,-0.05779436,-0.00810307,-0.01944440,0.99438884,0.09791883,-0.00880313,0.03905436
1756816753824,-0.00247642,-0.08750326,-0.15224958,-0.03761624,-0.01640723,-0.02068140,0.99441328,0.09770818,-0.00889501,0.03893854
1756816753835,0.13166390,-0.13145475,-0.19227054,-0.03890282,-0.00733500,-0.02306783,0.99443912,0.09749227,-0.00893572,0.03881051
1756816753846,-0.01193476,0.06889201,-0.08171547,-0.02240550,-0.01422004,-0.02541680,0.99445623,0.09736680,-0.00901535,0.03866818
1756816753857,-0.03246406,0.07339445,0.01932035,-0.02881308,-0.00707724,-0.02157573,0.99447617,0.09720689,-0.00905463,0.03854843
1756816753868,-0.13956611,0.17951827,0.10255811,0.01761437,-0.00307703,-0.03543129,0.99447406,0.09730465,-0.00907171,0.03835179
1756816753880,-0.08320752,0.12904611,0.05273035,-0.03039552,-0.00767344,-0.02530103,0.99449556,0.09713595,-0.00911430,0.03821137
1756816753891,0.01293981,-0.03737998,0.01429392,-0.01216178,0.00410898,-0.02927796,0.99450883,0.09706724,-0.00909108,0.03804595
1756816753902,-0.03165311,-0.00568039,0.01209777,-0.02195919,0.00000544,-0.01421049,0.99452386,0.09694427,-0.00909105,0.03796637
1756816753913,0.03329679,0.00578091,-0.04311316,-0.00436765,0.00550111,-0.01500636,0.99452958,0.09692046,-0.00906107,0.03788459
1756816753924,0.00625672,0.03234818,0.01605935,-0.00911591,0.01101366,-0.00613908,0.99453648,0.09686896,-0.00899884,0.03784990
1756816753935,0.08636912,-0.00979864,-0.09679789,-0.00307197,0.00186323,-0.01827908,0.99454209,0.09685191,-0.00898850,0.03774845
1756816753946,-0.01336454,0.02974484,-0.00898104,0.00822464,-0.00899921,-0.01690295,0.99454074,0.09689797,-0.00903890,0.03765380
1756816753958,0.01079456,0.03844152,0.12475844,-0.00528531,-0.01095565,-0.02195812,0.99454777,0.09686810,-0.00910080,0.03752973
1756816753969,-0.04599477,-0.00785991,0.04409238,0.00530056,-0.03882509,-0.02458950,0.99454804,0.09689699,-0.00931239,0.03739572
1756816753980,-0.00984332,0.00027375,-0.00081301,-0.00158171,-0.03037684,-0.02579527,0.99455272,0.09688814,-0.00948250,0.03725127
1756816753991,-0.03432138,0.00007714,-0.02460505,-0.01175384,-0.01987915,-0.02447539,0.99456309,0.09682290,-0.00959283,0.03711543
1756816754002,-0.02048507,0.05868331,0.03715693,-0.00124079,-0.01969650,-0.00922567,0.99456460,0.09681608,-0.00970116,0.03706469
1756816754013,-0.03148344,0.05245006,0.03762503,0.00336254,-0.01911015,-0.01027371,0.99456385,0.09683524,-0.00981009,0.03700613
1756816754024,0.00643534,-0.01679431,0.03979283,0.00105115,-0.01752162,-0.01580261,0.99456557,0.09684108,-0.00990734,0.03691842
1756816754035,0.05850000,-0.06629361,0.08799632,-0.00286876,-0.03348243,-0.02238685,0.99456978,0.09682544,-0.01008981,0.03679641
1756816754046,-0.01511654,-0.04073195,-0.01263669,0.00286495,-0.02146306,-0.02565275,0.99457228,0.09684134,-0.01020893,0.03665404
1756816754058,-0.03019428,-0.01669926,0.07986766,-0.00952423,-0.01215822,-0.01624120,0.99458018,0.09678753,-0.01027763,0.03656228
1756816754069,-0.15810155,0.10041117,0.03098767,-0.01734048,-0.02609308,0.00570264,0.99458693,0.09669042,-0.01042375,0.03659421
1756816754080,-0.03443365,0.02083587,0.06876393,-0.02296542,-0.01440822,0.01418574,0.99459550,0.09656411,-0.01050299,0.03667223
1756816754091,-0.03500514,-0.02900151,-0.04957223,-0.00082087,-0.01845099,0.01124353,0.99459250,0.09655948,-0.01060724,0.03673576
1756816754102,-0.03374313,-0.00876699,-0.05954143,-0.00237015,-0.01524244,-0.00548532,0.99459398,0.09654644,-0.01069108,0.03670559
1756816754113,-0.01318798,0.07940307,0.06031998,-0.01826402,-0.00841390,-0.00562098,0.99460456,0.09644416,-0.01073819,0.03667411
1756816754125,-0.22198535,0.14052387,0.04833327,-0.01338436,0.00017170,-0.01453422,0.99461474,0.09636988,-0.01073724,0.03659345
1756816754136,-0.29293682,0.28360316,0.10177512,-0.00081133,0.00581158,-0.00978995,0.99461754,0.09636534,-0.01070470,0.03653862
1756816754147,-0.11238984,0.08190520,0.02667417,0.01658919,0.00493230,0.00233674,0.99460860,0.09645575,-0.01067782,0.03655136
1756816754158,0.12498672,-0.04751569,0.00170657,0.03086221,0.00624006,0.01033442,0.99458991,0.09663012,-0.01064256,0.03660975
1756816754169,0.14330529,-0.24055351,-0.08461392,0.06547884,-0.00474659,0.00919772,0.99455271,0.09699025,-0.01066867,0.03666034
1756816754180,0.07132220,0.00494154,0.09462255,0.02964026,-0.01219754,-0.01017711,0.99453787,0.09715624,-0.01073697,0.03660334
1756816754192,0.02927243,-0.01770183,0.13212083,0.02053613,-0.01623585,-0.02050104,0.99452979,0.09727227,-0.01082870,0.03648751
1756816754202,-0.06205021,-0.06645947,0.05216333,0.04104177,-0.02794931,-0.03135021,0.99451231,0.09749800,-0.01098243,0.03631509
1756816754213,-0.02525252,0.01235259,0.04986294,0.03129805,-0.01768780,-0.00519284,0.99449523,0.09767170,-0.01108059,0.03628627
1756816754225,-0.10464537,0.02730320,0.00434497,0.03636029,0.00464580,-0.01067174,0.99447768,0.09787532,-0.01105458,0.03622651
1756816754236,-0.10538450,-0.15470765,-0.07489091,0.05064742,0.01578213,0.02071696,0.99444619,0.09816148,-0.01096541,0.03634356
1756816754247,-0.08532013,-0.01664103,0.05642890,0.02941405,0.01882417,0.02675997,0.99442596,0.09832325,-0.01086187,0.03649074
1756816754258,-0.02113612,-0.02433938,0.06261894,0.00999962,0.01983051,0.01550366,0.99441850,0.09837875,-0.01075181,0.03657678
1756816754269,0.15726468,0.00947097,0.05650494,0.01401239,0.02714927,0.00770262,0.99441071,0.09845792,-0.01059842,0.03662030
1756816754280,-0.01338086,-0.01657959,0.07728377,-0.00930615,0.01908429,-0.00530809,0.99441797,0.09840674,-0.01049346,0.03659111
1756816754292,-0.03412080,0.06365364,0.06761931,-0.00156824,0.02068445,-0.01010470,0.99442209,0.09839803,-0.01037866,0.03653503
1756816754303,-0.02537208,0.03497463,0.00380988,-0.00259472,0.02365016,0.00554840,0.99442376,0.09838350,-0.01024622,0.03656610
1756816754314,0.03769477,0.00347949,-0.03190255,0.00680081,0.02709073,0.03169868,0.99441508,0.09842125,-0.01009586,0.03674202
1756816754325,0.01295663,0.01380364,-0.10779106,0.01908928,0.02438530,0.02159892,0.99440127,0.09852910,-0.00995809,0.03686406
1756816754336,0.04807867,0.01469835,-0.07524580,0.02270331,0.02368451,0.01461409,0.99438721,0.09865397,-0.00982782,0.03694444
1756816754347,0.03978745,0.03511771,-0.01621931,-0.00092124,0.01202836,0.00440042,0.99438746,0.09864886,-0.00976107,0.03696886
1756816754359,0.01938808,-0.04489876,-0.00581439,0.00305364,0.00966636,-0.00406041,0.99438713,0.09866642,-0.00970548,0.03694551
1756816754370,0.02508411,-0.03065732,0.10235161,-0.00472998,-0.00139075,-0.00474018,0.99439054,0.09864087,-0.00971299,0.03691991
1756816754381,0.01078800,0.06713363,0.04282641,-0.00520434,0.00121334,-0.00544142,0.99439463,0.09861173,-0.00970620,0.03688944
1756816754392,-0.08670723,0.01802773,-0.08922564,-0.00506760,-0.00940081,0.00376193,0.99439618,0.09858284,-0.00975978,0.03691089
1756816754403,0.09147745,-0.06156789,-0.04072192,0.01340536,0.00399189,0.01671793,0.99438576,0.09865590,-0.00973803,0.03700200
1756816754414,0.02845102,0.01081704,-0.03490716,0.00831762,0.00064931,0.02159921,0.99437666,0.09870248,-0.00973439,0.03712295
1756816754426,0.04091079,-0.10220306,-0.03402559,0.00463611,-0.00216662,0.01325083,0.99437105,0.09872914,-0.00974685,0.03719915
1756816754436,0.09002480,-0.08920791,0.01148964,0.00567883,0.00160992,-0.00581227,0.99436928,0.09875952,-0.00973824,0.03716805
1756816754448,-0.05293644,-0.00734649,-0.04185001,0.01331695,0.01176669,-0.02152656,0.99436701,0.09883410,-0.00967234,0.03704750
1756816754459,-0.07543373,0.08364181,-0.05864019,0.01603211,0.02028634,-0.01070274,0.99436131,0.09892548,-0.00955671,0.03698650
1756816754470,-0.09523799,0.10943395,0.03842110,0.02901430,0.05498126,-0.00623567,0.99434945,0.09908651,-0.00925157,0.03695189
1756816754481,-0.07521570,0.05855445,-0.01274082,0.02523869,0.03279919,0.00996552,0.99433549,0.09922280,-0.00907445,0.03700570
1756816754492,0.01281949,-0.06805604,-0.08610364,0.02153033,0.04400193,0.01384494,0.99432267,0.09934444,-0.00882584,0.03708393
1756816754503,0.00268533,-0.08230724,-0.05074874,0.01720524,0.04526704,0.00310276,0.99431475,0.09943907,-0.00857687,0.03710099
1756816754514,-0.00185314,0.02702735,-0.05129186,0.00880337,0.04065370,-0.00051750,0.99431187,0.09948837,-0.00834921,0.03709809
1756816754526,0.00626942,0.00771668,-0.02316943,0.01284855,0.03589342,-0.00046043,0.99430633,0.09956161,-0.00814462,0.03709547
1756816754537,-0.03071839,0.13423482,0.01515394,0.01315354,0.03733419,0.00556622,0.99429960,0.09963395,-0.00793928,0.03712608
1756816754548,0.02359892,0.07236374,0.00116323,0.02906831,0.03561767,0.00267545,0.99428443,0.09979528,-0.00774160,0.03714093
1756816754559,0.00420157,0.07779830,-0.10696768,0.02733084,0.02812601,0.00046668,0.99427017,0.09994834,-0.00758410,0.03714354
1756816754570,0.04432084,-0.00406560,-0.19077709,0.05081715,0.02685459,-0.01254267,0.99424572,0.10022783,-0.00743640,0.03707456
1756816754581,0.09211500,-0.03915780,-0.07504103,0.05851573,0.02925373,-0.00658540,0.99421495,0.10055844,-0.00727111,0.03703735
1756816754593,-0.11080796,0.02512121,0.02003470,0.05211032,0.02371412,-0.02966922,0.99419253,0.10085026,-0.00713831,0.03687120
1756816754604,-0.01037540,0.00668921,0.02590110,0.04511139,0.02300748,-0.01076382,0.99417042,0.10109837,-0.00701177,0.03681200
1756816754615,0.03147025,0.08579799,0.00067473,0.04676872,0.01720621,0.01484650,0.99414109,0.10136262,-0.00691456,0.03689589
1756816754626,-0.02648719,-0.06391299,0.01478479,0.03133709,0.01086843,0.01259765,0.99412116,0.10153654,-0.00685424,0.03696580
1756816754637,0.00387012,-0.08021045,0.05950305,0.02589298,0.00707739,0.01182422,0.99410430,0.10168024,-0.00681496,0.03703143
1756816754648,0.08875946,-0.09038535,-0.01540218,0.01197771,-0.00552404,0.01195669,0.99409473,0.10174732,-0.00684589,0.03709839
1756816754660,0.08814303,-0.12770048,-0.03183603,0.00106212,0.00118133,-0.00107836,0.99409439,0.10175327,-0.00683928,0.03709235
1756816754671,0.04157690,0.00879797,0.02043208,-0.00990818,-0.00438518,-0.01136622,0.99410227,0.10169778,-0.00686383,0.03702870
1756816754682,0.00063278,-0.08249072,0.03212716,-0.02422886,0.00356010,-0.01043314,0.99411831,0.10156331,-0.00684407,0.03697079
1756816754693,-0.03858138,-0.06656553,-0.05029587,-0.01187041,0.00498433,-0.01461935,0.99412869,0.10149446,-0.00681517,0.03688600
1756816754704,0.06764251,0.00540187,0.06820192,-0.02532586,0.01771355,0.00311056,0.99414202,0.10136403,-0.00672394,0.03690202
1756816754715,-0.01633510,-0.03477665,-0.02169181,-0.02727768,0.02274907,0.01489354,0.99415558,0.10120855,-0.00659427,0.03698691
1756816754726,-0.00728962,-0.06374530,-0.01961759,-0.00312973,0.00845306,-0.00405194,0.99415847,0.10119134,-0.00654778,0.03696463
1756816754737,-0.17802166,0.12652862,-0.03841484,-0.01867243,-0.00237883,-0.00639605,0.99417045,0.10108584,-0.00656122,0.03692849
1756816754748,0.09568653,0.03637713,0.06606294,-0.03104678,0.00621511,-0.01101923,0.99419028,0.10091508,-0.00652704,0.03686788
1756816754760,0.05646059,-0.14404257,-0.00479310,-0.00834415,-0.00210475,-0.00576924,0.99419619,0.10086794,-0.00653893,0.03683529
1756816754771,0.06982937,-0.10259326,0.01009613,-0.01438387,-0.01008943,-0.00284213,0.99420443,0.10078883,-0.00659442,0.03681966
1756816754782,-0.00630873,-0.00132853,-0.01186103,-0.03023400,-0.00862920,0.00263427,0.99422056,0.10062103,-0.00664231,0.03683428
1756816754793,-0.02420168,-0.00414899,0.00112282,-0.04510345,0.00769597,0.00492927,0.99424558,0.10036619,-0.00659883,0.03686213
1756816754804,-0.05374575,-0.09365622,-0.18376173,-0.00372413,0.00815492,0.00460760,0.99424700,0.10034571,-0.00655398,0.03688747
1756816754815,-0.01090287,0.13159055,0.01527438,-0.03964721,0.02176107,-0.00140926,0.99427047,0.10012369,-0.00643212,0.03687958
1756816754827,-0.04419031,0.03324296,-0.01615560,-0.03647872,0.01514057,-0.01981012,0.99429568,0.09991940,-0.00634733,0.03676864
1756816754838,0.10784929,-0.07283871,0.07856857,-0.02839995,0.02378274,-0.00105954,0.99431255,0.09976179,-0.00621533,0.03676276
1756816754849,-0.11561976,0.14609315,0.04450635,-0.02051202,0.00858097,-0.01810721,0.99432798,0.09964794,-0.00616771,0.03666226
1756816754860,0.00159382,0.09008267,-0.03426504,-0.00715976,0.01429452,-0.00599778,0.99433378,0.09960749,-0.00608695,0.03662838
1756816754871,-0.12439685,0.15316466,0.00574337,-0.01860610,0.01396383,-0.01399810,0.99434732,0.09950516,-0.00601015,0.03655139
1756816754882,0.02703573,-0.09336778,-0.02846369,0.01337642,0.02918512,-0.01076342,0.99434297,0.09958073,-0.00584525,0.03649057
1756816754893,-0.06793041,-0.06067123,0.03518853,-0.01012019,0.02674159,-0.01318381,0.99435214,0.09952457,-0.00569683,0.03641740
1756816754904,0.00846588,-0.03088535,0.12166681,-0.01379387,0.03193943,-0.01192723,0.99436322,0.09944801,-0.00551957,0.03635121
1756816754916,0.02212726,-0.00552272,0.14110462,-0.02055793,0.03220246,-0.00788950,0.99437733,0.09933289,-0.00533924,0.03630703
1756816754927,-0.06058348,0.06308181,0.13304608,0.00055025,0.02087230,-0.01321967,0.99438034,0.09933597,-0.00522235,0.03623300
1756816754938,0.04822920,0.07069929,0.14278696,-0.02177590,0.02389509,-0.00623995,0.99439448,0.09921402,-0.00508854,0.03619805
1756816754949,0.04632855,-0.11675313,0.00522681,-0.01629094,0.03089327,0.00169056,0.99440411,0.09912279,-0.00491554,0.03620752
1756816754960,-0.05272143,-0.13586623,-0.05519763,-0.02669132,0.01774603,-0.00940540,0.99442109,0.09897599,-0.00481793,0.03615579
1756816754972,0.03391422,-0.10039431,-0.02674696,-0.03718067,0.02222101,0.00374045,0.99444199,0.09876406,-0.00469127,0.03617711
1756816754983,-0.03922568,-0.03214952,0.08413928,-0.04792727,0.02927731,-0.00145278,0.99446892,0.09850286,-0.00453171,0.03616919
1756816754994,-0.08248345,-0.01392521,-0.05220660,-0.03984334,0.02548913,-0.00746222,0.99449273,0.09828372,-0.00439152,0.03612815
1756816755005,0.06493340,-0.03764572,-0.06463966,-0.03255131,0.04205854,0.00605882,0.99451050,0.09810143,-0.00415599,0.03616208
1756816755016,-0.00089842,0.12022672,-0.09273596,-0.04030408,0.03148306,0.02357613,0.99452849,0.09787774,-0.00398126,0.03629293
1756816755027,-0.02072959,0.05300851,-0.08936733,-0.02981636,0.03203221,0.00830978,0.99454391,0.09771077,-0.00380188,0.03633946
1756816755038,-0.02811795,-0.06937345,-0.17779975,-0.01762520,0.01782336,-0.00150185,0.99455438,0.09761119,-0.00370118,0.03633098
1756816755049,0.19463164,0.03242348,0.05545678,-0.06284347,0.04560302,0.03434130,0.99458223,0.09726555,-0.00345036,0.03651985
1756816755061,-0.12543798,0.02025277,0.02682475,-0.04117498,0.02928139,0.00514901,0.99460405,0.09703703,-0.00328785,0.03654843
1756816755072,-0.09844611,0.02931689,0.03507294,-0.04772915,0.04057416,-0.01201399,0.99463303,0.09677213,-0.00306267,0.03648175
1756816755083,-0.03474694,-0.03224976,-0.08538836,-0.06681905,0.04103135,-0.00259562,0.99467057,0.09639795,-0.00283289,0.03646722
1756816755094,0.05321843,0.01150047,-0.02755955,-0.06485693,0.05147294,0.01716140,0.99470296,0.09603475,-0.00254464,0.03656332
1756816755105,-0.02347554,-0.06038160,-0.07204206,-0.04836840,0.05054044,0.01329424,0.99472680,0.09576630,-0.00226414,0.03663710
1756816755116,-0.00738217,-0.06916471,-0.08516790,-0.05870730,0.05683195,0.02625090,0.99475365,0.09543754,-0.00194588,0.03678411
1756816755127,0.09525197,0.00738973,0.11713800,-0.09040749,0.06521606,0.02210578,0.99479776,0.09493578,-0.00158393,0.03690680
1756816755139,-0.00085999,-0.10710592,0.04077910,-0.07626874,0.06407236,0.00002512,0.99483929,0.09450486,-0.00122193,0.03690694
1756816755150,0.00860307,-0.06782147,0.02920074,-0.08848175,0.06013567,0.00597943,0.99488453,0.09401821,-0.00089118,0.03693982
1756816755161,-0.05351649,-0.08707766,-0.05643227,-0.10336405,0.06828990,0.00826261,0.99493761,0.09343937,-0.00050876,0.03698610
1756816755172,-0.02718369,-0.04408942,-0.06551556,-0.10136669,0.07397957,0.00450275,0.99498948,0.09287679,-0.00009817,0.03701109
1756816755183,-0.11798422,-0.13718417,-0.04649550,-0.10507441,0.09114189,-0.01614192,0.99504751,0.09228837,0.00041223,0.03692069
1756816755194,0.02138241,-0.02473083,-0.10002214,-0.08022847,0.09040748,0.00669075,0.99508735,0.09183909,0.00091851,0.03695816
1756816755206,0.02780999,0.12320800,-0.05050590,-0.10208845,0.06705788,0.02927993,0.99513302,0.09127250,0.00129068,0.03712066
1756816755217,0.01233600,-0.02383675,0.00943341,-0.10258342,0.07793711,0.01851813,0.99518058,0.09070316,0.00172323,0.03722344
1756816755228,-0.05224658,-0.05953329,0.02975153,-0.11884211,0.05481484,0.01961467,0.99523582,0.09004359,0.00202745,0.03733230
1756816755239,0.07827801,-0.05667358,0.09888774,-0.14677038,0.06426121,0.02022685,0.99530479,0.08922168,0.00238731,0.03744557
1756816755250,-0.01899640,-0.09041699,-0.05599792,-0.13327078,0.05356902,0.02443348,0.99536495,0.08848202,0.00268462,0.03758118
1756816755261,0.05466541,0.05023216,-0.06119623,-0.13884927,0.05819781,0.03327046,0.99542524,0.08771141,0.00300762,0.03776583
1756816755272,-0.09559560,-0.06223027,-0.17603938,-0.08326188,0.05813817,-0.00192643,0.99546594,0.08724098,0.00333610,0.03775494
1756816755283,-0.02031868,0.05259437,-0.24079440,-0.09548379,0.05729644,0.01609180,0.99550736,0.08671582,0.00365123,0.03784345
1756816755295,-0.00262676,0.15974443,0.09786502,-0.11996168,0.03693375,0.00626740,0.99556404,0.08603804,0.00385991,0.03787886
1756816755306,0.01135662,-0.03834489,0.04969077,-0.09228772,0.04762902,0.01129330,0.99560399,0.08553507,0.00411949,0.03794041
1756816755317,0.02312118,0.09962699,0.03165619,-0.08693311,0.03862170,0.03048804,0.99563856,0.08504390,0.00433770,0.03811266
1756816755328,-0.08291213,0.08626905,0.04682457,-0.08607562,0.02657505,0.02939998,0.99567234,0.08456618,0.00448519,0.03827583
1756816755339,0.10583756,0.03215095,0.07554261,-0.05781176,0.02970657,0.03052644,0.99569243,0.08424243,0.00465155,0.03844678
1756816755350,0.05593446,-0.06962332,-0.13832069,-0.01946483,0.01644858,0.02152564,0.99569626,0.08414121,0.00473708,0.03855872
1756816755361,0.08027248,0.19370948,-0.04981432,-0.01900552,-0.00660394,-0.00083440,0.99570569,0.08403383,0.00469977,0.03855400
1756816755372,0.00724521,0.15055503,-0.10592386,-0.02106016,0.00308133,-0.02418658,0.99572079,0.08391590,0.00471702,0.03841856
1756816755383,0.00961914,0.03753401,-0.10348245,0.00736022,-0.01175449,-0.02400785,0.99572278,0.08395674,0.00465179,0.03828531
1756816755395,0.07719380,0.00192970,0.06352761,-0.00294398,0.00612776,-0.00228958,0.99572454,0.08393996,0.00468671,0.03827226
1756816755405,-0.05061563,0.01062414,-0.03636964,0.00306455,-0.00430598,-0.01902370,0.99572717,0.08395636,0.00466368,0.03817049
1756816755417,0.06858801,0.06201111,0.17670349,-0.00354937,-0.00346983,-0.01251085,0.99573162,0.08393648,0.00464425,0.03810042
1756816755428,-0.02656962,-0.04083036,0.27865386,-0.00649587,-0.01449501,-0.01014532,0.99573728,0.08389978,0.00456235,0.03804310
1756816755439,0.02499838,-0.14140688,0.17979042,0.01299252,-0.00531023,-0.01298904,0.99573412,0.08397124,0.00453314,0.03797166
1756816755450,-0.03235286,0.01387964,-0.05328448,0.00102673,-0.00000546,-0.00249633,0.99573417,0.08397694,0.00453311,0.03795781
1756816755461,0.01304704,0.15955417,-0.22747059,-0.01201091,0.01473243,0.00794819,0.99573779,0.08390908,0.00461635,0.03800272
1756816755472,-0.03311647,0.10039409,-0.19365999,-0.00125748,0.01073960,0.01872799,0.99573413,0.08390210,0.00467595,0.03810666
1756816755483,0.00120941,-0.00449750,0.06434070,-0.00052770,0.01163632,0.01090397,0.99573175,0.08389917,0.00474054,0.03816717
1756816755495,-0.01393647,0.09616240,0.07428298,-0.01596811,0.00504785,0.00096197,0.99573901,0.08380895,0.00476906,0.03817261
1756816755506,-0.00105101,0.03545108,-0.00233106,-0.02181094,0.00767341,-0.01201835,0.99575154,0.08368790,0.00481164,0.03810591
1756816755517,0.03770709,0.04129001,-0.00121039,-0.00891378,0.00638631,-0.00046092,0.99575566,0.08363798,0.00484741,0.03810333
1756816755528,-0.07602633,-0.00779010,0.19838121,0.00794417,-0.00434278,0.00366751,0.99575125,0.08368247,0.00482309,0.03812386
1756816755539,-0.01213083,0.01532591,0.12009566,0.01292535,-0.00122951,0.00329170,0.99574455,0.08375420,0.00481626,0.03814213
1756816755550,0.00699404,0.00051622,0.06427880,0.01099136,-0.00079113,0.00472151,0.99573849,0.08381466,0.00481191,0.03816810
1756816755562,0.03361750,-0.05200013,-0.17447510,0.02625094,-0.00085452,-0.00177239,0.99572640,0.08396297,0.00480709,0.03815809
1756816755573,0.01762316,0.05277699,-0.05503572,0.02728248,-0.00134782,-0.00669549,0.99571508,0.08411439,0.00479960,0.03812093
1756816755584,0.05684235,0.05434699,0.08223999,0.01518412,-0.00037598,-0.00763256,0.99570959,0.08419866,0.00479752,0.03807857
1756816755595,0.03475765,-0.09811971,0.04520057,0.02098930,-0.01038284,0.00229962,0.99569943,0.08431620,0.00473937,0.03809144
1756816755606,0.04789486,-0.00840625,0.08005009,0.01994062,-0.01526087,0.01508565,0.99568725,0.08442687,0.00465468,0.03817517
1756816755617,-0.02489691,-0.10370648,0.07699378,0.01406545,-0.00903125,-0.00552477,0.99568199,0.08450564,0.00460410,0.03814423
1756816755628,-0.00475007,-0.05532379,0.14325874,0.00505087,-0.01516122,0.00838698,0.99567824,0.08453342,0.00452071,0.03819036
1756816755640,0.07213862,-0.09319903,0.06409538,0.00438144,-0.00474714,0.01297814,0.99567349,0.08455796,0.00449413,0.03826304
1756816755651,-0.07513038,-0.02104298,-0.02236980,-0.00322525,-0.00306074,0.00070576,0.99567493,0.08454006,0.00447714,0.03826695
1756816755662,0.00651104,0.06888106,-0.03972012,-0.00847473,-0.00733881,0.00775540,0.99567748,0.08449260,0.00443605,0.03831038
1756816755673,-0.01697064,-0.02772399,-0.01664345,-0.00188811,0.00229824,0.00062663,0.99567817,0.08448212,0.00444880,0.03831386
1756816755684,0.02347142,0.01224056,-0.02056799,-0.01482782,0.00649266,0.00541838,0.99568389,0.08439908,0.00448516,0.03834421
1756816755695,-0.03468701,-0.01146799,-0.03611251,-0.03034283,0.02498611,0.00602212,0.99569633,0.08422916,0.00462508,0.03837793
1756816755706,-0.06266580,-0.01766056,-0.04448577,-0.04405488,0.04970484,0.00931378,0.99571352,0.08398686,0.00489846,0.03842915
1756816755718,-0.00949033,-0.03231322,-0.00228079,-0.01461172,0.05142494,0.00760198,0.99571732,0.08390504,0.00518644,0.03847173
1756816755729,-0.07507600,0.00578364,0.04834800,-0.03038359,0.03003117,0.01033243,0.99572851,0.08373489,0.00535461,0.03852959
1756816755740,0.10777832,0.02345116,0.10087532,-0.03502074,0.04093754,0.01856129,0.99573950,0.08354227,0.00557977,0.03863167
1756816755751,0.03131749,0.01014786,-0.07381464,-0.01671884,0.00712615,0.01479740,0.99574395,0.08344781,0.00562003,0.03871528
1756816755762,0.14027249,0.00064901,-0.06992540,-0.00384398,-0.00013410,0.01365973,0.99574279,0.08342648,0.00561929,0.03879109
1756816755773,-0.00459576,0.01476427,-0.04523200,0.00080024,-0.00216411,-0.00123629,0.99574275,0.08343092,0.00560728,0.03878423
1756816755784,0.03955424,0.06431806,-0.01263146,0.00670461,-0.02030813,-0.00783888,0.99574195,0.08346847,0.00549355,0.03874033
1756816755796,0.05298085,0.03573572,-0.06485997,0.02126498,-0.01517265,-0.01864693,0.99573648,0.08358755,0.00540859,0.03863591
1756816755807,0.00144913,0.05814861,0.01300226,0.04200889,-0.02248861,-0.02950986,0.99572389,0.08382070,0.00528377,0.03847213
1756816755818,-0.01161035,0.09222898,0.11948987,0.01273275,-0.01389703,-0.02100141,0.99572284,0.08389137,0.00520664,0.03835557
1756816755829,-0.18047050,-0.00804005,0.19964297,0.03338935,-0.02881778,-0.01370104,0.99571086,0.08407835,0.00504527,0.03827885
1756816755840,-0.05035256,-0.00825520,0.15618148,0.01284627,-0.01222161,0.00171247,0.99570481,0.08414964,0.00497744,0.03828835
1756816755851,-0.03871521,-0.02974165,-0.02732410,0.01610231,-0.00712064,-0.01104960,0.99569976,0.08423982,0.00493756,0.03822647
1756816755862,0.10002214,-0.02645794,-0.16274387,0.01701797,-0.00525798,-0.01105944,0.99569421,0.08433512,0.00490811,0.03816454
1756816755874,0.10213698,0.01992372,-0.00559569,0.00752474,0.00026835,0.00219651,0.99569020,0.08437688,0.00490960,0.03817673
1756816755885,-0.06677561,-0.00672613,-0.01013470,0.00643807,-0.00040971,0.00344250,0.99568642,0.08441293,0.00490731,0.03819601
1756816755896,0.06423272,-0.05644755,-0.02194434,0.00818478,0.01027785,0.00783709,0.99568061,0.08445836,0.00496435,0.03823950
1756816755907,0.00628894,0.04507137,-0.00665176,-0.01158277,0.00453746,0.00787540,0.99568426,0.08439407,0.00498953,0.03828321
1756816755918,-0.02522653,-0.09220454,-0.06443510,-0.00891313,0.00477899,-0.00518498,0.99568947,0.08434416,0.00501630,0.03825418
1756816755929,-0.06404267,-0.03685276,-0.05362769,-0.00446083,-0.00163233,-0.00262717,0.99569217,0.08431940,0.00500724,0.03823960
1756816755941,0.01833022,0.05020048,0.02998460,-0.00829157,0.00554527,-0.00037720,0.99569603,0.08427297,0.00503829,0.03823748
1756816755952,-0.01673082,-0.00377075,-0.00742859,-0.01052319,0.00783529,0.00569348,0.99569950,0.08421509,0.00508139,0.03826880
1756816755963,0.02736461,0.11477359,0.01646926,-0.01306813,-0.00024263,0.00957501,0.99570367,0.08414126,0.00508001,0.03832290
1756816755974,-0.00751976,-0.01996699,-0.10194377,-0.00063432,0.00228757,0.00464383,0.99570291,0.08413774,0.00509271,0.03834867
1756816755985,0.03241223,-0.07506478,-0.10836329,-0.00155243,0.00284067,0.00494661,0.99570250,0.08412912,0.00510848,0.03837612
1756816755996,0.05989856,0.00735373,-0.04868939,-0.00215404,0.00542820,0.00191191,0.99570295,0.08411706,0.00513887,0.03838683
1756816756007,0.01527098,-0.01018084,-0.00311855,0.00686082,-0.00799019,-0.00588419,0.99570122,0.08415514,0.00509453,0.03835417
1756816756018,0.02287853,-0.02127092,-0.01472796,0.01654156,-0.01996756,-0.01050734,0.99569622,0.08424777,0.00498271,0.03829533
1756816756030,-0.05797008,0.03236687,0.14896410,0.00951745,-0.02562464,-0.01026221,0.99569462,0.08430107,0.00483921,0.03823786
1756816756041,-0.00547578,-0.02328379,0.00469730,0.01123722,-0.03370385,-0.01231620,0.99569287,0.08436287,0.00465384,0.03817012
1756816756052,0.01796986,-0.00479363,-0.01019660,-0.00828844,-0.01752481,-0.00612529,0.99569857,0.08431646,0.00455570,0.03813582
1756816756063,0.05027697,-0.06994699,-0.08978046,0.00254844,-0.00658341,-0.01973705,0.99570173,0.08433060,0.00451916,0.03802628
1756816756074,-0.02963357,-0.05814972,-0.07602205,0.01204462,-0.00594443,-0.00610157,0.99569747,0.08439805,0.00448588,0.03799211
1756816756085,-0.01533145,0.00216005,-0.06007752,0.00216386,0.01006297,0.00013551,0.99569617,0.08441006,0.00454173,0.03799287
1756816756096,-0.06530823,0.08434135,0.04873929,-0.01587396,0.00671226,-0.00312030,0.99570412,0.08432196,0.00457898,0.03797555
1756816756108,0.02313752,-0.08005772,0.01741414,-0.00522929,0.00912693,-0.00084577,0.99570655,0.08429267,0.00463009,0.03797081
1756816756119,0.07222502,0.05458824,0.09051885,-0.02174435,0.01077670,0.00930362,0.99571458,0.08417091,0.00469044,0.03802291
1756816756130,-0.31101317,-0.06543780,-0.01989266,-0.00679849,0.01238279,0.01072795,0.99571516,0.08413317,0.00475916,0.03808245
1756816756141,-0.13414196,0.01452971,-0.00641900,-0.03785774,0.01669998,0.00172186,0.99573223,0.08392117,0.00485268,0.03809209
1756816756152,0.08600479,0.00871816,-0.01211670,-0.03836604,0.02726915,0.00646758,0.99574818,0.08370632,0.00500539,0.03812831
1756816756164,0.24494734,-0.05170385,-0.12081059,-0.01601695,0.01014346,0.00393306,0.99575458,0.08361663,0.00506219,0.03815034
1756816756174,0.09261327,-0.01651335,-0.04518069,-0.00213869,0.01674884,-0.01091084,0.99575739,0.08360486,0.00515431,0.03809033
1756816756186,0.00250158,0.07902331,0.01789192,-0.03134933,-0.00169321,-0.01135992,0.99577475,0.08342774,0.00514475,0.03802614
1756816756197,0.03187890,0.02627620,-0.03507545,-0.02814136,-0.00720724,-0.02130184,0.99579222,0.08327437,0.00510547,0.03791005
1756816756208,0.03353066,-0.04449067,-0.04572020,0.00492914,-0.00819432,-0.02115309,0.99579462,0.08330173,0.00505999,0.03779265
1756816756219,-0.03490961,0.04496802,0.02808073,-0.02071929,-0.00703016,-0.02021104,0.99580881,0.08318570,0.00502062,0.03767947
1756816756230,-0.10786236,0.09267844,0.29329534,-0.00017864,0.00581683,-0.01273739,0.99581143,0.08318470,0.00505319,0.03760814
1756816756241,-0.08077798,0.06624648,0.07673908,0.01757312,-0.00185730,-0.00610664,0.99580455,0.08328311,0.00504279,0.03757394
1756816756253,-0.03494336,0.06361467,0.10733961,0.01127112,0.00542877,-0.00740088,0.99580071,0.08334566,0.00507292,0.03753287
1756816756264,0.06530823,0.00853580,-0.14972516,-0.00015350,0.00783458,-0.01241186,0.99580315,0.08334481,0.00511640,0.03746398
1756816756275,0.05068422,-0.06699406,-0.05492646,0.01224732,-0.00338475,-0.00304450,0.99579815,0.08341339,0.00509745,0.03744693
1756816756286,0.01852128,0.02561402,0.04381094,0.00383756,-0.00753376,-0.01182926,0.99579904,0.08343469,0.00505564,0.03738128
1756816756297,0.04816713,-0.15103944,-0.00053617,0.01432633,-0.01176128,0.00103773,0.99579243,0.08351492,0.00498977,0.03738709
1756816756308,-0.00602978,0.01757248,0.06210005,0.01039895,-0.01780091,0.00453434,0.99578713,0.08357263,0.00489098,0.03741226
1756816756319,0.04160376,-0.10187971,0.04607858,0.01053933,-0.01905731,0.01185633,0.99578026,0.08363113,0.00478521,0.03747806
1756816756331,0.01487351,0.05203678,0.30724955,-0.00331340,-0.01461381,0.00566751,0.99578102,0.08361257,0.00470337,0.03750980
1756816756342,-0.11950067,-0.05369137,-0.01528394,0.00010996,-0.01453602,-0.00132706,0.99578162,0.08361318,0.00462270,0.03750243
1756816756353,-0.02201129,0.11463333,0.06240564,-0.01495822,0.00574034,0.00232878,0.99578795,0.08353016,0.00465456,0.03751536
1756816756364,-0.14198493,0.05044380,-0.14779011,-0.00108996,0.01055164,0.00912063,0.99578628,0.08352412,0.00471312,0.03756598
1756816756375,-0.07440493,-0.02993564,-0.02932062,0.00382291,0.02535571,0.01761899,0.99578001,0.08354571,0.00485638,0.03766552
1756816756386,-0.02005783,0.14163650,0.02921106,-0.01276738,0.03520922,0.03152188,0.99577834,0.08347422,0.00505355,0.03784205
1756816756397,0.01666045,-0.05371651,-0.06930931,0.01961226,0.02205369,0.03422576,0.99576149,0.08358209,0.00517485,0.03803029
1756816756409,0.01737374,-0.03156586,-0.00890502,0.02570931,0.00607227,0.02032516,0.99574487,0.08372606,0.00520885,0.03814411
1756816756420,0.01827020,-0.00143112,0.00845118,-0.00654446,-0.00527223,0.01686394,0.99574449,0.08369006,0.00517985,0.03823686
1756816756431,0.01136850,-0.11581971,0.07692623,0.00015913,0.00443595,0.00562932,0.99574306,0.08369096,0.00520492,0.03826867
1756816756442,0.03979819,-0.03687378,0.07479025,-0.01545136,-0.00864260,-0.00219604,0.99575091,0.08360598,0.00515738,0.03825659
1756816756453,-0.01552060,0.03490678,0.05231778,-0.01755317,-0.01341639,-0.00349065,0.99576030,0.08350768,0.00508225,0.03823704
1756816756464,0.06677896,0.13623591,-0.13530617,0.00082235,-0.01917555,0.00361897,0.99575968,0.08351225,0.00497583,0.03825713
1756816756475,0.00746779,0.06229165,-0.06701533,0.00534175,-0.01289475,0.01007418,0.99575536,0.08354216,0.00490361,0.03831354
1756816756487,0.00570197,-0.00169370,-0.07578875,0.01428572,-0.01328869,0.01120811,0.99574659,0.08362216,0.00482920,0.03837631
1756816756498,-0.00141496,0.01726545,0.01710667,0.00870254,-0.00524834,-0.00062548,0.99574274,0.08367133,0.00479955,0.03837277
1756816756509,-0.03661379,-0.10075055,-0.03400993,0.01795225,-0.01149980,-0.00786565,0.99573646,0.08376917,0.00473687,0.03832990
1756816756520,0.03397209,-0.01385867,0.04957623,0.01292833,-0.00213944,-0.01398631,0.99573344,0.08384157,0.00472489,0.03825158
1756816756531,-0.12990377,0.07852893,0.14439727,0.01554602,-0.00118148,-0.00725291,0.99572775,0.08392785,0.00471833,0.03821133
1756816756542,-0.01427106,0.05239682,0.02455106,0.01265079,0.00269039,-0.00446461,0.99572271,0.08399806,0.00473326,0.03818655
1756816756553,0.00295159,-0.00723484,0.00041202,0.01209331,0.00261299,-0.00380804,0.99571774,0.08406578,0.00474790,0.03816522
1756816756565,0.13682981,-0.06458439,-0.12788773,0.00293349,-0.00175591,0.00447919,0.99571546,0.08408206,0.00473815,0.03819008
1756816756576,0.02787504,-0.06552369,0.00465951,-0.00229627,0.00405626,-0.00108944,0.99571668,0.08406909,0.00476107,0.03818393
1756816756587,0.01274270,-0.10844119,-0.00268746,-0.01042590,0.00044037,-0.00147159,0.99572187,0.08401123,0.00476351,0.03817576
1756816756598,-0.01354541,0.00556235,-0.01366635,-0.01544905,-0.00407568,-0.01095243,0.99573153,0.08392548,0.00474089,0.03811497
1756816756609,0.04450635,-0.00924255,-0.02068094,-0.01511984,0.00333465,-0.00806066,0.99574023,0.08384157,0.00475940,0.03807024
1756816756620,-0.01212187,0.05433618,-0.07098284,-0.01093051,0.00903037,-0.01182133,0.99574773,0.08377981,0.00481042,0.03800345
1756816756631,0.11995473,0.12493568,0.09430137,-0.00227680,0.00100238,0.00031654,0.99574869,0.08376729,0.00481594,0.03800519
1756816756642,-0.03034084,0.00858196,0.03891777,0.00499263,-0.00268497,0.00271317,0.99574586,0.08379500,0.00480103,0.03802025
1756816756654,-0.04886023,0.05022176,0.04414353,-0.00145244,-0.00517110,0.00556583,0.99574549,0.08378694,0.00477233,0.03805114
1756816756665,-0.08730828,-0.02428985,-0.09769341,-0.00514122,0.00021293,0.01549701,0.99574459,0.08375815,0.00477353,0.03813792
1756816756676,-0.11023818,-0.05446667,-0.12865081,0.00337868,-0.00481631,0.01184477,0.99574058,0.08377707,0.00474656,0.03820425
1756816756687,0.01646312,0.01159158,-0.01192674,0.00218855,0.00326493,0.01435826,0.99573641,0.08378921,0.00476468,0.03828394
1756816756698,0.00919153,-0.02445657,-0.00193506,0.00643809,0.00535366,0.01947743,0.99572910,0.08382494,0.00479439,0.03839204
1756816756709,-0.03991811,0.01557049,0.01563869,0.00552676,-0.00732818,0.01064902,0.99572439,0.08385589,0.00475335,0.03845167
1756816756720,0.10548654,0.03477611,0.02221394,0.00942393,0.00297493,0.00451571,0.99571889,0.08390867,0.00477001,0.03847696
1756816756732,0.02782312,0.08740066,-0.04822646,0.00861469,0.00296934,0.00495354,0.99571376,0.08395605,0.00478634,0.03850421
1756816756743,-0.00409079,-0.04724995,-0.03884981,0.01205717,-0.00152445,0.00497499,0.99570697,0.08402417,0.00477773,0.03853231
1756816756754,-0.05343188,-0.03503992,0.02291464,0.00567416,-0.00321310,-0.00511209,0.99570551,0.08405538,0.00476006,0.03850420
1756816756765,0.05374975,-0.10860843,0.07902419,-0.00055564,0.01344301,-0.00030511,0.99570548,0.08405227,0.00483534,0.03850249
1756816756776,-0.07531359,-0.02647650,0.00273220,-0.00054945,0.00874371,0.00793693,0.99570378,0.08404919,0.00488430,0.03854694
1756816756787,-0.04323998,-0.00628201,-0.04478426,0.01067631,0.00772736,0.01277674,0.99569574,0.08410898,0.00492758,0.03861849
1756816756798,0.07706557,0.05757633,0.01888155,0.00418119,0.00626387,0.01669985,0.99569006,0.08413197,0.00496203,0.03871034
1756816756810,0.05079331,-0.02232287,-0.00871309,0.00232255,-0.00535393,0.01159937,0.99568655,0.08414510,0.00493178,0.03877587
1756816756821,0.12733499,-0.05083354,0.05222090,0.00198120,-0.01286066,0.00413932,0.99568508,0.08415609,0.00486040,0.03879884
1756816756832,0.01272028,0.03731753,0.08840630,-0.00221078,-0.02585349,-0.00991040,0.99568898,0.08414371,0.00471562,0.03874335
1756816756843,0.09069076,0.01472136,0.01674171,-0.01270866,-0.02559776,-0.01315048,0.99569844,0.08407318,0.00457355,0.03867036
1756816756854,-0.01639726,-0.07040191,-0.08160441,-0.01048505,-0.03748528,-0.02798663,0.99571009,0.08401604,0.00436926,0.03851783
1756816756865,0.04249236,-0.05369391,-0.03339448,-0.02595355,-0.00701420,-0.02973658,0.99572895,0.08387070,0.00432998,0.03835131
1756816756876,-0.06635737,-0.03690318,0.01713168,-0.02774412,-0.00647734,-0.01393078,0.99574532,0.08371394,0.00429338,0.03827260
1756816756888,-0.08717611,0.02184783,0.01088363,-0.00117890,0.00344732,-0.01173237,0.99574829,0.08370740,0.00431252,0.03820749
1756816756899,-0.02252426,0.04118535,0.01075178,-0.01617269,0.01253868,-0.00483520,0.99575648,0.08361845,0.00438148,0.03818089
1756816756910,-0.08206956,0.03864801,-0.05811263,-0.02343201,0.03486872,0.01997624,0.99576232,0.08348723,0.00457674,0.03829276
1756816756921,0.00861922,0.04823502,-0.05010204,-0.00315329,0.02929212,0.00849846,0.99576121,0.08346973,0.00473931,0.03833993
1756816756932,-0.01838306,-0.05401913,-0.09360846,0.00881886,0.01015436,0.00209902,0.99575639,0.08351867,0.00479567,0.03835158
1756816756943,0.03509797,0.05366469,-0.00035958,0.00074499,0.02837607,-0.00442315,0.99575622,0.08352285,0.00495458,0.03832681
1756816756954,-0.02452946,0.06952363,-0.02249506,-0.01289300,0.01821431,-0.00978181,0.99576380,0.08345129,0.00505567,0.03827252
1756816756965,-0.05765544,0.04401831,-0.03211214,0.00869721,0.01333113,-0.00733213,0.99576091,0.08349999,0.00513032,0.03823146
1756816756977,-0.00350513,0.04224893,0.07678684,0.00817916,0.01685582,-0.00333754,0.99575733,0.08354539,0.00522387,0.03821293
1756816756988,-0.02004681,0.00100911,0.01453640,0.03809183,0.01097901,-0.01089347,0.99574142,0.08375870,0.00528535,0.03815193
1756816756999,-0.08090085,0.09683070,-0.01537183,0.03290371,0.01675250,-0.00079321,0.99572543,0.08394461,0.00538000,0.03814745
1756816757010,0.05779990,0.00524523,0.01757014,0.04624021,0.03192112,0.00670301,0.99570158,0.08419893,0.00555557,0.03818431
1756816757021,-0.08821229,0.08666774,0.06568865,0.04127340,-0.00266360,-0.00763377,0.99568389,0.08442800,0.00554079,0.03814195
1756816757032,0.16240997,0.07722799,0.20589502,0.02736424,0.01965902,0.00657737,0.99566885,0.08458124,0.00565088,0.03817878
1756816757044,-0.03064812,-0.07228348,0.03136086,0.03624980,0.01640734,0.00585466,0.99564980,0.08478424,0.00574276,0.03821157
1756816757055,-0.03972470,-0.05079795,0.10248067,0.03009461,-0.00072079,0.02081006,0.99563132,0.08494976,0.00573879,0.03832602
1756816757066,-0.10804811,-0.18834851,-0.09554264,0.03512393,-0.00758355,0.01696720,0.99561110,0.08514645,0.00569633,0.03842104
1756816757077,0.00380132,-0.02357169,0.10489258,0.00304342,-0.00051635,0.02135564,0.99560503,0.08516349,0.00569344,0.03854063
1756816757088,0.05934515,-0.13300317,0.02631673,0.01272928,0.00663786,0.02460972,0.99559358,0.08523350,0.00572994,0.03867598
1756816757099,-0.08040277,0.01806755,0.00742517,0.00639750,-0.00511128,0.00379417,0.99558982,0.08526965,0.00570106,0.03869742
1756816757110,0.03542709,0.03402956,0.04256928,0.00874516,0.00928130,0.00920614,0.99558332,0.08531862,0.00575304,0.03874897
1756816757122,-0.06283294,0.04992577,0.03572672,0.00363445,0.01402343,0.00755412,0.99557954,0.08533861,0.00583017,0.03879052
1756816757133,-0.37132017,0.12233604,-0.01526168,0.00710847,0.01867614,0.01245197,0.99557285,0.08537806,0.00593382,0.03885963
1756816757144,-0.00060557,0.00628132,-0.06326290,0.01961571,0.02625244,0.03603850,0.99555448,0.08548889,0.00608215,0.03906325
1756816757155,0.01769002,0.02905036,-0.04584017,0.01019703,0.01154699,0.03547592,0.99554160,0.08554498,0.00614566,0.03925837
1756816757166,0.30366472,-0.11639980,0.03970648,0.01959782,-0.00021828,0.03216932,0.99552505,0.08565472,0.00614443,0.03943851
1756816757177,0.03991382,-0.01179281,0.09301347,-0.00252235,-0.02213344,0.01578530,0.99552351,0.08564060,0.00602049,0.03952691
1756816757188,0.05414277,-0.00608454,-0.03533318,0.00569117,-0.03326589,-0.00271950,0.99552249,0.08567219,0.00583586,0.03951182
1756816757200,0.07415992,0.05054256,-0.01760677,-0.00013125,-0.03170751,-0.00193627,0.99552401,0.08567145,0.00565830,0.03950098
1756816757211,-0.02306521,-0.00052858,-0.06749813,0.01110442,-0.02414259,0.00521594,0.99551831,0.08573308,0.00552431,0.03952992
1756816757222,-0.06434070,-0.00337501,-0.11561976,0.02013536,-0.01759679,0.00958037,0.99550710,0.08584483,0.00542665,0.03958310
1756816757233,-0.29122633,0.32472136,-0.14851575,0.01722512,-0.00015034,0.01561945,0.99549541,0.08594043,0.00542581,0.03966978
1756816757244,-0.02816313,-0.01723911,-0.04955838,0.00911580,-0.00286842,0.01132127,0.99548856,0.08599148,0.00540975,0.03973318
1756816757255,-0.00206032,-0.02738027,-0.02957443,0.01247550,0.01313434,0.01131564,0.99547967,0.08606072,0.00548264,0.03979598
1756816757266,0.21721034,-0.18473574,0.14827387,0.01322533,0.01485835,0.00222816,0.99547237,0.08613412,0.00556511,0.03980835
1756816757278,-0.04247595,-0.00569845,0.00389624,0.01272769,0.01258544,0.00027618,0.99546568,0.08620603,0.00563621,0.03980991
1756816757289,0.01666341,-0.01993533,0.03741365,0.01059301,0.01123834,0.00487648,0.99545921,0.08626429,0.00569803,0.03983673
1756816757300,0.05131777,0.01062718,-0.01624199,0.01823933,0.01053716,-0.00099113,0.99545024,0.08636643,0.00575703,0.03983118
1756816757311,0.03372531,-0.05876254,-0.03215307,0.01436767,0.01311299,0.00272827,0.99544229,0.08644617,0.00582981,0.03984632
1756816757322,0.00948302,-0.00187527,-0.04241918,0.01097032,0.01084489,-0.00031641,0.99543661,0.08650815,0.00589108,0.03984454
1756816757333,0.13771450,0.05400682,-0.03699516,-0.00123145,0.00904906,0.00834326,0.99543507,0.08650138,0.00594085,0.03989042
1756816757344,0.02037160,-0.10485647,-0.02965027,0.00454363,-0.00200624,0.00919083,0.99543086,0.08652683,0.00592962,0.03994189
1756816757356,0.06652304,0.02950846,0.04205207,-0.00250077,-0.01175078,0.00756665,0.99543076,0.08651282,0.00586382,0.03998427
1756816757367,0.01484985,-0.10577945,0.03782219,-0.01330420,-0.01586221,0.00604604,0.99543634,0.08643898,0.00577578,0.04001782
1756816757378,0.02491388,-0.03217791,-0.04523200,-0.02824541,-0.01577655,0.00554957,0.99544921,0.08628222,0.00568822,0.04004862
1756816757389,0.03162841,-0.02230790,-0.01380118,-0.01988580,-0.01208054,-0.00768845,0.99546097,0.08617086,0.00562057,0.04000557
1756816757400,-0.04908700,0.00688857,-0.09347024,-0.01498467,-0.02082397,-0.00835825,0.99547068,0.08608770,0.00550500,0.03995918
1756816757411,0.00612149,0.02871191,-0.04682511,-0.00476256,-0.00503984,-0.00176126,0.99547353,0.08606103,0.00547677,0.03994931
1756816757422,-0.06947425,0.10348944,-0.00697997,-0.00905655,-0.00231912,0.00057197,0.99547778,0.08601121,0.00546402,0.03995246
1756816757433,-0.12768968,-0.17898953,-0.12265193,0.00756718,-0.00157873,0.01355393,0.99547118,0.08605321,0.00545526,0.04002768
1756816757445,-0.03543401,0.05936980,0.01532299,-0.00101425,0.00047894,0.01625869,0.99546799,0.08604753,0.00545794,0.04011873
1756816757456,0.05728076,-0.04233796,-0.04871985,0.00308631,0.01057848,0.02122209,0.99546143,0.08606466,0.00551665,0.04023652
1756816757467,0.09171961,0.13273494,0.03414871,0.00686527,0.01282033,0.01068364,0.99545529,0.08610311,0.00558844,0.04029634
1756816757478,0.04919714,0.03682117,-0.01063094,0.00128702,0.00991797,0.01086760,0.99545192,0.08611025,0.00564349,0.04035666
1756816757489,-0.02594998,-0.01059223,-0.00027397,0.00723969,-0.00018090,0.00209512,0.99544794,0.08615079,0.00564247,0.04036839
1756816757500,0.09420982,0.03482540,0.08824584,0.00339553,0.00299645,0.00712383,0.99544464,0.08616947,0.00565895,0.04040757
1756816757511,0.03244078,0.03251627,0.00788773,0.00410022,-0.00447028,0.00661223,0.99544129,0.08619243,0.00563392,0.04044460
1756816757523,0.05299337,-0.05013575,-0.02887024,0.00929882,-0.01589285,0.00583426,0.99543590,0.08624497,0.00554413,0.04047756
1756816757534,0.17360894,-0.23429683,0.07519675,0.00562201,-0.01471150,0.00100864,0.99543344,0.08627589,0.00546321,0.04048311
1756816757545,0.01740830,-0.07251427,-0.07489890,0.00583851,-0.02375144,-0.01872333,0.99543559,0.08630858,0.00533020,0.04037826
1756816757562,-0.00248363,0.03099623,0.06847364,-0.01607848,-0.01864977,-0.01731522,0.99545379,0.08617513,0.00517541,0.04023455
1756816757566,1.02392305,-0.23977062,-1.00661103,-0.05178592,-0.05223906,-0.08201898,0.99547071,0.08606638,0.00506571,0.04006231
1756816757578,-0.34918697,0.14293196,0.38918531,-0.02125092,-0.01153186,-0.02437944,0.99548809,0.08593781,0.00499594,0.03991481
1756816757588,0.00738408,0.02641556,0.04733397,-0.03205518,0.01152755,-0.01361808,0.99550435,0.08577754,0.00505358,0.03984672
1756816757599,-0.12508620,0.01112771,-0.02533279,-0.02341901,0.00192526,0.00624113,0.99551428,0.08564522,0.00506446,0.03988198
1756816757610,-0.07370775,-0.02444774,-0.03598267,-0.00748670,0.01805332,0.00454689,0.99551632,0.08560367,0.00516465,0.03990722
1756816757622,-0.01838781,0.03928788,0.00733830,-0.00924983,0.03025064,-0.00589546,0.99552125,0.08555141,0.00533557,0.03987391
1756816757633,-0.10415710,-0.16097095,0.00849371,-0.00974092,0.00868294,-0.00203185,0.99552609,0.08549735,0.00538376,0.03986263
1756816757644,0.10208547,0.05800155,0.01499765,0.01143850,0.02779070,-0.00240855,0.99552027,0.08556140,0.00553939,0.03984914
1756816757655,-0.02114482,-0.02285059,0.01568043,0.02685565,0.00247450,0.00504799,0.99550612,0.08571179,0.00555325,0.03987741
1756816757666,0.07600371,0.14278699,0.05787593,0.00682249,0.00521687,0.00107710,0.99550240,0.08575034,0.00558272,0.03988350
1756816757678,-0.00730828,-0.00324054,-0.02940764,-0.01379625,0.00084081,-0.01772473,0.99551299,0.08567308,0.00558743,0.03978424
1756816757700,-0.00545572,-0.00627455,-0.01569456,-0.00931789,0.00427922,-0.00539631,0.99552406,0.08556919,0.00563514,0.03972407
1756816757708,0.07583882,0.02038875,-0.25313488,-0.01565260,-0.00399565,-0.03779882,0.99553570,0.08550579,0.00561896,0.03957098
1756816757719,-0.04439085,0.18187446,0.16312997,-0.02574319,0.00859859,-0.00890528,0.99555015,0.08535777,0.00566840,0.03951978
1756816757736,0.15676155,-0.06633008,-0.08052356,-0.00075951,-0.00111715,0.00030820,0.99555065,0.08535143,0.00565907,0.03952235
1756816757744,0.71173419,0.19093516,-0.18613781,-0.00132404,-0.01995556,0.00124728,0.99555131,0.08534646,0.00558424,0.03952703
1756816757753,-0.15916587,-0.20257031,0.03295592,0.01345572,-0.03284535,-0.01653597,0.99554981,0.08541038,0.00542822,0.03944848
1756816757764,-0.33828137,0.09571857,0.18521201,0.01465730,-0.05416505,-0.03562428,0.99555206,0.08548586,0.00514927,0.03926502
1756816757775,-0.11845944,0.02112972,0.04519263,0.02536724,-0.02884648,-0.03727837,0.99554877,0.08563299,0.00498197,0.03904880
1756816757786,-0.08339879,0.08127732,0.02639989,0.03678090,-0.03890653,-0.02967965,0.99553852,0.08584081,0.00476214,0.03888111
1756816757798,-0.03563296,0.10889742,0.14698497,0.01759192,-0.02776025,-0.00515799,0.99553170,0.08594196,0.00460252,0.03885146
1756816757809,-0.12395936,-0.03090420,0.05923622,0.02276673,-0.02089759,-0.00238223,0.99552138,0.08607401,0.00448132,0.03883764
1756816757821,-0.06023940,-0.07130611,0.01244849,0.02938422,0.00922806,0.01547044,0.99550352,0.08623856,0.00453299,0.03892427
1756816757832,-0.05315246,-0.22567828,0.07786385,0.01744917,0.02230846,0.01282980,0.99549188,0.08633453,0.00465569,0.03899484
1756816757843,-0.01732402,-0.06209928,0.03720391,0.01011091,0.02959313,0.02226438,0.99548109,0.08639216,0.00482437,0.03912174
1756816757854,-0.05513160,-0.07616463,0.10268973,0.00449492,0.03262826,0.02835507,0.99547175,0.08641733,0.00500709,0.03928053
1756816757865,-0.08980611,0.12850975,-0.05393118,0.00067405,0.02733296,0.02580340,0.99546493,0.08642111,0.00516015,0.03942503
1756816757877,0.04316483,0.07308110,0.00536298,0.00453883,0.01224459,0.02264100,0.99545707,0.08644743,0.00523117,0.03955635
1756816757888,0.05680233,0.01584806,0.05846739,-0.01159158,0.01001256,0.02597030,0.99545663,0.08638426,0.00528574,0.03969789
1756816757899,-0.04367715,-0.09908451,-0.10448535,0.00830256,0.00164573,0.01848870,0.99544834,0.08643117,0.00529504,0.03980235
1756816757912,0.06785543,0.03966576,-0.06864273,0.00133516,0.01027692,0.02395369,0.99544133,0.08643944,0.00535876,0.03995086
1756816757922,-0.07783213,-0.07158183,-0.17496367,0.00962758,0.00655660,0.03240026,0.99543045,0.08648758,0.00539154,0.04011286
1756816757933,-0.07686448,0.16589153,0.03394819,0.00312313,0.00825871,0.01713710,0.99542451,0.08650601,0.00544026,0.04021397
1756816757956,0.07819769,-0.03036657,-0.01050446,-0.00239649,-0.00789092,0.00667454,0.99542430,0.08647941,0.00535268,0.04028806
1756816757963,-0.48616754,0.55286151,0.56928490,-0.00309215,-0.02799054,0.02245259,0.99542243,0.08646766,0.00524631,0.04037338
1756816757975,0.43660966,-0.25374857,-0.48054784,0.01734687,-0.02150194,-0.00054869,0.99541412,0.08657261,0.00511622,0.04037006
1756816757987,-0.01059540,0.03807667,-0.07739678,0.02932268,-0.03061469,-0.01155545,0.99540322,0.08673828,0.00494325,0.04030477
1756816757997,0.05447977,-0.00066872,0.03499375,0.02952783,-0.01838283,0.00256381,0.99538936,0.08689625,0.00484490,0.04031849
1756816758009,-0.04383948,0.00563774,0.04502739,0.02358196,-0.01872212,0.01453033,0.99537503,0.08702831,0.00474006,0.04039986
1756816758020,-0.01607097,0.00984595,0.08514574,0.02207574,-0.01221641,0.00531482,0.99536323,0.08715304,0.00467104,0.04042989
1756816758031,0.08731379,-0.28799629,0.21729921,0.02184009,-0.01021641,0.00215840,0.99535209,0.08727753,0.00461280,0.04044219
1756816758043,0.04696537,-0.10411785,0.05729977,0.01260241,0.00969741,-0.00870556,0.99534751,0.08734999,0.00466856,0.04039213
1756816758054,0.00062889,-0.11264981,-0.07915442,0.02025517,-0.00493482,0.00155874,0.99533741,0.08746241,0.00464118,0.04040078
1756816758065,-0.02120328,0.25925138,-0.11856091,0.00679040,0.01453188,-0.00519602,0.99533484,0.08750077,0.00472328,0.04037143
1756816758077,-0.02614034,0.08553413,0.03547618,0.00543108,0.00407207,-0.00774558,0.99533381,0.08753146,0.00474629,0.04032766
1756816758088,0.11632702,-0.04302102,0.00732721,0.00352576,0.00461944,0.00585799,0.99533062,0.08755120,0.00477216,0.04036047
1756816758099,0.02568375,0.00007160,0.02517188,-0.00213600,-0.00038176,-0.00142218,0.99533203,0.08753903,0.00476998,0.04035236
1756816758110,0.03586659,-0.03888417,0.01690586,0.00642414,-0.01691278,0.00083917,0.99532913,0.08757500,0.00467527,0.04035706
1756816758122,0.03814479,-0.02610771,-0.05513489,0.01427157,-0.02520640,0.00076613,0.99532245,0.08765635,0.00453159,0.04036143
1756816758133,-0.01345630,-0.04814881,-0.01020362,0.00940555,-0.04213684,-0.00590516,0.99532022,0.08770855,0.00429773,0.04032865
1756816758144,0.00266618,-0.01045886,-0.04468375,0.00947447,-0.02529236,-0.00100107,0.99531634,0.08776208,0.00415483,0.04032300
1756816758155,0.00989342,-0.01594302,-0.05182330,0.03455585,-0.02253597,0.00351602,0.99529929,0.08795214,0.00403088,0.04034234
1756816758166,-0.00743898,0.13052412,-0.06279705,0.02340006,-0.03088709,0.01828680,0.99528436,0.08808201,0.00385946,0.04044383
1756816758177,-0.02119653,0.02153562,-0.01509788,0.05576459,-0.05424539,0.01035246,0.99525493,0.08839987,0.00355026,0.04050284
1756816758189,0.04131387,-0.05454411,0.02778506,0.02863381,-0.02563522,-0.01277596,0.99524380,0.08856451,0.00340286,0.04042938
1756816758200,0.05782039,0.03173697,0.10790266,0.04174281,-0.06003957,-0.00643534,0.99522569,0.08879619,0.00306964,0.04039366
1756816758211,-0.05623114,-0.02668521,0.05558257,0.06512244,-0.07231301,0.00431462,0.99519414,0.08915110,0.00267553,0.04041717
1756816758222,0.01138651,0.01665744,0.07995189,0.04888946,-0.03991914,-0.00002113,0.99517016,0.08942489,0.00245199,0.04041706
1756816758307,-0.03441680,0.00108377,-0.02580400,0.00779351,-0.00977194,0.00446280,0.99513360,0.08975572,0.00203717,0.04060650
1756816758354,0.18402668,0.05232260,0.31389162,0.15409239,-0.22023343,0.04271799,0.99475853,0.09335378,-0.00310528,0.04160397
1756816758396,-0.01082200,0.03386676,0.11259162,0.03863597,-0.19952654,0.02578155,0.99463736,0.09416513,-0.00729534,0.04214538
1756816758444,-0.12359440,0.03246849,-0.03695046,0.02218491,-0.12148444,0.01079799,0.99454994,0.09469868,-0.01021704,0.04240507
1756816758493,-0.14295050,0.06655043,0.00883673,0.07271721,-0.08029613,0.01770456,0.99433618,0.09649479,-0.01220036,0.04284237
1756816758508,-2.38160955,2.30859799,2.84189414,0.30039831,-0.03828078,0.20581445,0.99404960,0.09870272,-0.01248172,0.04435511
1756816758543,0.66972335,-0.84300871,-1.31032947,0.10330839,-0.02244825,0.04562051,0.99383002,0.10048996,-0.01287007,0.04514434
1756816758603,0.14064725,-0.13168619,-0.17668049,0.05319427,-0.00170166,0.01851352,0.99364132,0.10208579,-0.01292112,0.04569975
1756816758643,-0.09065518,0.02690069,0.07837217,0.08936458,-0.01430375,0.04492239,0.99340591,0.10390882,-0.01321292,0.04661617
1756816758681,-0.03325795,-0.05506801,-0.01745582,0.06079904,-0.02284264,0.04544515,0.99323897,0.10505488,-0.01364350,0.04747281
1756816758723,0.07875378,-0.08026802,-0.01805375,0.02282186,0.00168907,0.04751825,0.99314163,0.10552844,-0.01360846,0.04845881
1756816758737,-1.05493319,0.04395703,0.95055911,0.00548483,0.01110467,0.21713505,0.99306442,0.10556628,-0.01353183,0.04995704
1756816758790,0.39057919,-0.01783952,-0.31080425,0.01715225,-0.00672466,0.01392630,0.99299373,0.10602854,-0.01371306,0.05033236
1756816758829,0.01349127,0.05366383,0.08054849,0.02983869,-0.02539747,0.03588688,0.99289091,0.10659846,-0.01419815,0.05101780
1756816758865,0.05283514,-0.03279631,0.00465842,0.02011854,0.00708742,0.02149815,0.99283287,0.10696663,-0.01406845,0.05141121
1756816758895,0.14288295,-0.02670531,0.00013606,0.00503818,-0.00120195,0.00448584,0.99282090,0.10704270,-0.01408660,0.05147895
1756816758914,0.35782955,-0.05557448,0.32506319,-0.00991216,0.00746454,-0.03792315,0.99285083,0.10694804,-0.01401532,0.05111678
1756816758937,-0.05901796,0.06731051,-0.25180029,-0.00575070,0.01805891,-0.00130543,0.99286140,0.10688335,-0.01381216,0.05110210
1756816758960,0.01642703,-0.08352996,-0.21918416,-0.01554108,-0.03534427,-0.04787749,0.99290397,0.10670074,-0.01422745,0.05053954
1756816759013,-0.10886706,0.02175992,-0.01122795,0.00752853,-0.00635255,-0.01791693,0.99290413,0.10689874,-0.01439452,0.05006832
1756816759047,0.22729669,0.03526554,0.03727200,0.00852542,-0.00318596,-0.01048285,0.99289673,0.10704324,-0.01444852,0.04989064
1756816759080,-0.06189085,-0.06404282,-0.01394902,0.00272632,-0.05131590,-0.04051451,0.99291256,0.10708823,-0.01529524,0.04922215
1756816759104,0.14643326,0.02508399,-0.04554857,0.00754026,-0.03874062,-0.01247800,0.99290286,0.10717946,-0.01576400,0.04907116
1756816759116,0.74009785,0.16873661,0.28028448,0.02760157,-0.14808272,-0.04632849,0.99288416,0.10734507,-0.01665249,0.04879319
