UnixTime(ms),Ax,Ay,Az,Gx,Gy,Gz,QuatW,QuatX,QuatY,QuatZ
1755651356074,0.00000000,0.00000000,0.00000000,0.00000000,0.00000000,0.00000000,0.99755396,0.05489058,-0.02043844,0.03814970
1755651356089,1.00030439,0.18912175,-1.03187004,-0.01844278,-0.05502849,-0.00032692,0.99755312,0.05475410,-0.02084565,0.03814728
1755651356090,86.90639270,20.09169288,-87.78655480,-0.18297690,-0.60483793,0.00893981,0.99755048,0.05459857,-0.02135976,0.03815488
1755651356102,-11.80972268,-2.65324459,11.89012070,-0.01016886,-0.11885544,0.00405879,0.99753814,0.05454112,-0.02203130,0.03817781
1755651356113,-0.10564050,-0.15703087,-0.17472039,-0.01243915,-0.13442927,0.02048169,0.99752080,0.05447208,-0.02277738,0.03829148
1755651356124,-0.09711772,-0.04493758,0.13702278,-0.00927588,-0.13041530,0.01858975,0.99750302,0.05442106,-0.02349466,0.03839372
1755651356135,-0.19014590,-0.04206114,-0.03710035,0.00620983,-0.12654160,0.01454652,0.99748124,0.05445553,-0.02419697,0.03847446
1755651356146,-0.05203694,0.04791457,0.16725793,0.01159601,-0.11042250,0.01899897,0.99745839,0.05452046,-0.02481534,0.03858085
1755651356156,0.35669122,0.01832843,-0.73092324,0.03073516,-0.11950469,0.02881418,0.99742935,0.05467414,-0.02541286,0.03872492
1755651356167,-0.43251381,-0.18884941,0.45114026,0.01649753,-0.09922966,0.02044154,0.99740552,0.05476652,-0.02596855,0.03883940
1755651356178,-0.01330461,-0.28272292,-0.18056254,0.00247298,-0.08971547,0.03165076,0.99738463,0.05478037,-0.02647095,0.03901664
1755651356190,0.02470856,-0.17771155,0.11023818,-0.03799905,-0.07844210,0.03115177,0.99737770,0.05456758,-0.02691023,0.03919109
1755651356201,-0.08552962,-0.14017355,0.06272172,-0.04455543,-0.06321504,0.01623836,0.99737813,0.05431807,-0.02726423,0.03928202
1755651356212,-0.06917835,0.03218763,-0.03521116,-0.03564232,-0.05472904,-0.00225758,0.99738103,0.05412025,-0.02756798,0.03926949
1755651356223,-0.19578341,-0.01039558,0.21046843,-0.00905375,-0.05122260,-0.00984967,0.99737795,0.05406910,-0.02785739,0.03921384
1755651356234,0.13004650,-0.20846150,-0.38834346,0.05065313,-0.05913663,-0.00780955,0.99735536,0.05434769,-0.02818264,0.03917089
1755651356245,-0.02631680,-0.12775785,0.01577952,0.07242290,-0.05203486,0.00743660,0.99732355,0.05474964,-0.02847143,0.03921216
1755651356256,-0.05792727,0.28143442,0.05337254,0.05580150,-0.04814373,0.00480209,0.99729755,0.05506213,-0.02874104,0.03923906
1755651356268,0.06425431,0.07691858,-0.03450279,0.07345836,-0.03429297,0.00082872,0.99726928,0.05546982,-0.02893136,0.03924366
1755651356279,-0.09524235,0.18491263,-0.00750231,0.06062477,-0.01621925,0.01255925,0.99724471,0.05581235,-0.02902300,0.03931462
1755651356290,0.07180266,-0.00151123,0.06568925,0.04693503,-0.01933546,0.01846651,0.99722292,0.05607284,-0.02913031,0.03941710
1755651356301,0.00774023,-0.21866163,-0.00193506,0.03197563,-0.02115053,0.00936416,0.99720743,0.05625031,-0.02924770,0.03946908
1755651356312,-0.06133055,-0.01852028,0.14649693,0.00027632,-0.02669618,-0.01328705,0.99720588,0.05625187,-0.02939853,0.03939400
1755651356323,0.26368171,-0.20851542,-0.10076005,-0.03189982,-0.02424999,-0.00229063,0.99721238,0.05607482,-0.02953312,0.03938129
1755651356335,-0.05224658,-0.13642164,0.11610352,-0.06395107,-0.03766123,-0.00128845,0.99722634,0.05571989,-0.02974214,0.03937414
1755651356346,0.15183007,-0.09743870,0.12537496,-0.07823732,-0.03076146,-0.00856767,0.99724747,0.05528177,-0.02991440,0.03932616
1755651356357,-0.16867837,0.08864124,0.11344281,-0.08390357,-0.04453909,-0.00938723,0.99726778,0.05481610,-0.03016160,0.03927406
1755651356368,0.16527166,0.01573608,0.18787408,-0.08840808,-0.04125274,-0.00103778,0.99728808,0.05432102,-0.03039261,0.03926825
1755651356379,-0.09503292,0.13304608,-0.13684740,-0.06414815,-0.06245022,-0.02069482,0.99730142,0.05396179,-0.03074233,0.03915236
1755651356390,0.22132234,0.16142190,0.06461714,-0.04707654,-0.06364665,-0.00449825,0.99730555,0.05370051,-0.03109557,0.03912739
1755651356402,-0.00267120,0.30805647,0.04999930,-0.03217215,-0.06994483,-0.00466346,0.99730397,0.05352035,-0.03148726,0.03910128
1755651356413,-0.06652304,0.03278636,-0.17295991,-0.00247103,-0.07148012,-0.01156796,0.99729453,0.05350651,-0.03188755,0.03903650
1755651356424,0.12399925,-0.20217044,-0.27068361,0.00762349,-0.08081689,0.00090712,0.99727762,0.05354882,-0.03233608,0.03904153
1755651356435,-0.03546183,0.10913375,0.31008127,-0.01465559,-0.05507249,-0.03147797,0.99727887,0.05346675,-0.03264449,0.03886526
1755651356446,-0.18675044,-0.01239647,0.01028000,-0.03956888,-0.06293536,-0.02411639,0.99728433,0.05324714,-0.03299378,0.03873141
1755651356457,0.03493102,-0.12408645,0.16277169,-0.04564780,-0.04163805,-0.01802703,0.99729412,0.05299151,-0.03322695,0.03863046
1755651356469,-0.10490782,0.03425659,0.00024188,-0.04776674,-0.02927756,-0.03110569,0.99730941,0.05272641,-0.03338944,0.03845782
1755651356480,0.00513691,0.09814503,0.02636949,-0.04060089,-0.02414220,-0.03593149,0.99732461,0.05249904,-0.03352464,0.03825661
1755651356491,-0.08065048,-0.21706780,-0.06917835,-0.02327635,-0.03590957,-0.03097587,0.99733126,0.05236986,-0.03372394,0.03808469
1755651356502,-0.02220415,0.04831085,-0.02213686,-0.04409070,-0.02726840,-0.05463978,0.99735083,0.05212075,-0.03387801,0.03777597
1755651356513,-0.14381082,-0.08110978,0.14444442,-0.07572848,-0.03101924,-0.04530499,0.99737634,0.05170045,-0.03405016,0.03752453
1755651356524,-0.11223340,0.17657410,-0.23220704,-0.07177628,-0.01872736,-0.04551475,0.99740283,0.05130210,-0.03415410,0.03727193
1755651356536,-0.10511647,-0.16426025,0.00405394,-0.04265959,-0.02860689,-0.04012373,0.99741809,0.05106107,-0.03431573,0.03704523
1755651356547,0.13881740,0.02487414,0.27841947,-0.04566320,-0.01789205,-0.03521498,0.99743470,0.05080992,-0.03441413,0.03685154
1755651356558,0.01610856,0.04580501,0.12107731,-0.03305729,-0.03774711,-0.02957649,0.99744298,0.05062315,-0.03462741,0.03668444
1755651356569,0.00735033,-0.06597219,0.18301826,-0.02997524,-0.03833926,-0.01902955,0.99744792,0.05045529,-0.03484211,0.03657787
1755651356580,-0.00019005,0.22249287,0.11833229,-0.06504309,-0.03226606,-0.01467125,0.99746283,0.05009430,-0.03502118,0.03649645
1755651356591,-0.14206417,0.01530168,0.01517742,-0.05348742,-0.03859191,-0.01281712,0.99747266,0.04980012,-0.03523344,0.03642595
1755651356603,-0.14888112,0.01865470,0.07035825,-0.04218996,-0.02870130,-0.01385932,0.99748165,0.04956174,-0.03539560,0.03634765
1755651356614,0.07949153,-0.10139793,0.05265757,-0.04840627,-0.02722777,0.00791466,0.99748798,0.04929309,-0.03554671,0.03639157
1755651356625,-0.29219386,-0.22446681,0.08514258,-0.00057095,-0.01159759,-0.00394392,0.99748664,0.04928992,-0.03561108,0.03636968
1755651356636,0.07450165,0.28742179,0.26047823,-0.01229225,0.00044562,0.00767485,0.99748858,0.04922047,-0.03560856,0.03641305
1755651356647,-0.09519461,0.20229069,-0.01748403,0.00768834,-0.00558987,-0.01630878,0.99748866,0.04926314,-0.03563959,0.03632253
1755651356658,-0.08901270,0.24478492,-0.01935059,0.03810132,0.00073615,-0.01637030,0.99748165,0.04947460,-0.03563550,0.03623168
1755651356670,0.13240066,-0.27018414,-0.07024586,0.09110249,0.00445559,-0.02788338,0.99746259,0.04998933,-0.03561033,0.03607414
1755651356681,-0.16941965,0.23686667,0.24124340,0.06111166,0.01248720,-0.01545863,0.99745121,0.05032544,-0.03554165,0.03598911
1755651356692,-0.13717807,-0.15173499,-0.00114344,0.03614073,0.00664776,-0.01251090,0.99744489,0.05052602,-0.03550475,0.03591968
1755651356703,-0.03081667,-0.26357756,0.14905377,0.02382924,0.01705596,-0.00682229,0.99744287,0.05066066,-0.03540839,0.03588113
1755651356714,-0.04409536,-0.29380784,-0.01241520,-0.01804864,0.01287952,-0.01237476,0.99745296,0.05056049,-0.03533690,0.03581245
1755651356725,0.03440020,-0.31140403,-0.00234586,0.00095271,0.00626640,-0.01290806,0.99745653,0.05056583,-0.03530181,0.03574017
1755651356736,-0.00181412,-0.04232509,0.06622393,-0.02702708,0.00897780,-0.00586266,0.99746705,0.05041582,-0.03525199,0.03570763
1755651356748,-0.09356022,0.11322435,0.05963160,-0.01821949,0.01175381,-0.00631819,0.99747587,0.05031288,-0.03518558,0.03567193
1755651356759,-0.05156174,0.09635350,0.08953993,-0.01906271,0.01536287,0.00332591,0.99748347,0.05020804,-0.03510108,0.03569022
1755651356770,-0.07744319,0.08491623,0.13408280,-0.04974983,0.01086095,0.01052553,0.99749748,0.04992944,-0.03504026,0.03574917
1755651356781,0.02612367,-0.05566075,0.07495343,-0.03891360,0.01069639,0.00975974,0.99750861,0.04970958,-0.03497983,0.03580431
1755651356792,-0.10955781,0.06529788,0.08598274,-0.05167609,0.00320478,-0.00235947,0.99752381,0.04942536,-0.03496220,0.03579133
1755651356803,0.04513200,-0.03173235,0.05470440,-0.05866294,0.00920697,0.00207068,0.99754143,0.04909685,-0.03491064,0.03580293
1755651356815,-0.20671487,0.14144899,0.09405363,-0.05976228,-0.00304092,0.00520682,0.99755646,0.04875620,-0.03492797,0.03583261
1755651356826,-0.09380543,0.12266085,0.16571295,-0.04643127,0.00806835,-0.00147288,0.99757062,0.04850315,-0.03488400,0.03582458
1755651356837,-0.13545242,0.10822854,0.04139599,-0.04929880,0.00186106,-0.00161627,0.99758470,0.04822708,-0.03487358,0.03581553
1755651356848,0.18524966,0.00663928,0.06298355,-0.03157322,0.01073290,-0.00574496,0.99759659,0.04804869,-0.03481294,0.03578307
1755651356859,0.05909461,-0.02822208,0.03684476,-0.01594930,0.00276236,-0.00510591,0.99760235,0.04796097,-0.03479774,0.03575499
1755651356870,0.00205820,0.09414940,0.10887344,-0.00432432,0.00205904,-0.01326578,0.99760654,0.04793697,-0.03478632,0.03568136
1755651356882,-0.02407132,0.05962319,0.10365301,-0.01194849,0.00178325,-0.01056242,0.99761226,0.04786946,-0.03477624,0.03562169
1755651356893,0.03805045,0.04331192,0.13636170,-0.00346879,-0.00568265,-0.00805797,0.99761368,0.04785021,-0.03480778,0.03557696
1755651356904,-0.10835465,0.03940441,-0.01970863,0.00286931,-0.00879199,-0.01366952,0.99761392,0.04786628,-0.03485702,0.03550041
1755651356915,-0.00380132,-0.00000000,-0.07792699,-0.00342505,-0.01253377,0.00140114,0.99761210,0.04784710,-0.03492720,0.03550826
1755651356926,-0.04937855,-0.07362294,-0.17239299,-0.00069309,-0.00849472,0.00471439,0.99760970,0.04784325,-0.03497435,0.03553443
1755651356937,-0.04039327,-0.03394644,0.03020506,-0.01002997,-0.00406368,0.00901631,0.99760980,0.04778708,-0.03499711,0.03558492
1755651356949,-0.01131970,-0.05125541,0.19185143,-0.01608272,-0.01023348,0.00714776,0.99761068,0.04769621,-0.03505493,0.03562530
1755651356959,-0.03261444,0.07826651,0.16310836,-0.00038104,-0.00511847,-0.00611604,0.99761098,0.04769416,-0.03508257,0.03559228
1755651356971,-0.09019455,0.10677862,-0.08493882,0.00931087,-0.01761870,-0.00526118,0.99760602,0.04774676,-0.03518211,0.03556255
1755651356982,0.11106236,-0.03075534,0.04655772,0.02340827,-0.00607184,0.00161878,0.99759821,0.04787785,-0.03521611,0.03557161
1755651356993,-0.09869600,0.02777914,-0.00309635,0.00662003,-0.00994285,0.00221660,0.99759410,0.04791426,-0.03527080,0.03558381
1755651357004,-0.01710592,-0.10045843,-0.00836290,-0.00682857,-0.01525791,0.00440600,0.99759203,0.04787602,-0.03535624,0.03560848
1755651357015,0.02348963,-0.14952342,-0.02924117,-0.02364507,-0.00922839,0.02183042,0.99759217,0.04774243,-0.03540838,0.03573182
1755651357026,-0.02444693,-0.03474794,-0.01070643,-0.05186678,-0.00544374,0.01260849,0.99760224,0.04745716,-0.03543832,0.03580117
1755651357038,-0.04910610,-0.02741268,-0.06071739,-0.03730496,-0.01389055,0.01883853,0.99760559,0.04724825,-0.03551611,0.03590666
1755651357049,0.01710592,0.01235428,0.04751646,-0.00384557,-0.01494832,0.00403123,0.99760282,0.04722672,-0.03559982,0.03592924
1755651357060,0.05228601,0.11335966,0.09028661,-0.00258849,-0.00209532,0.00558287,0.99760197,0.04721248,-0.03561135,0.03595994
1755651357071,0.03987927,0.07920562,-0.06206513,0.01135075,-0.00586461,0.00904907,0.99759596,0.04727604,-0.03564419,0.03601062
1755651357082,0.04351166,0.05128041,-0.12983480,0.02599717,-0.00667694,0.00659255,0.99758630,0.04742293,-0.03568191,0.03604787
1755651357093,0.01715819,-0.00426339,-0.04184923,0.04855928,-0.00152382,0.00807084,0.99757166,0.04769000,-0.03569029,0.03609226
1755651357105,-0.03034142,-0.13925778,0.00103672,-0.00058801,-0.01092313,0.00294302,0.99756903,0.04768671,-0.03575146,0.03610874
1755651357116,-0.02660922,-0.27702095,-0.21667505,-0.02106116,-0.00737743,-0.00951011,0.99757511,0.04756877,-0.03579278,0.03605548
1755651357127,-0.00055287,-0.16969773,-0.04118911,-0.04273512,-0.00641799,-0.00619497,0.99758635,0.04733159,-0.03582840,0.03602110
1755651357138,0.09177954,-0.20197063,0.05982793,-0.08678768,-0.00566183,-0.00599367,0.99760936,0.04684558,-0.03586010,0.03598753
1755651357149,0.01140395,0.10121006,0.14064872,-0.06184099,-0.02246260,-0.00193539,0.99762143,0.04649927,-0.03598589,0.03597670
1755651357160,0.13362615,0.15074599,0.10915131,-0.04359844,-0.00369981,0.00413522,0.99763093,0.04626166,-0.03600606,0.03599923
1755651357171,0.03504793,0.19807389,-0.01466326,-0.02436225,-0.00594700,0.00689250,0.99763469,0.04612401,-0.03603966,0.03603818
1755651357183,0.03986336,0.04355956,-0.02491040,-0.01311302,-0.01125637,-0.00303943,0.99763641,0.04605058,-0.03610269,0.03602116
1755651357194,0.01442615,0.00146900,-0.03043567,-0.02413827,-0.01512827,-0.00431978,0.99764038,0.04591782,-0.03618590,0.03599740
1755651357205,0.06375845,-0.01284672,0.08120995,-0.04677594,0.00295583,-0.00524954,0.99765406,0.04565587,-0.03616935,0.03596800
1755651357216,-0.06272172,-0.16963375,-0.18816517,-0.04140156,-0.00161216,0.00586098,0.99766313,0.04542402,-0.03617838,0.03600082
1755651357227,-0.06272172,-0.05701975,-0.07792699,-0.04391170,0.00545329,-0.00978527,0.99767738,0.04517812,-0.03614784,0.03594602
1755651357238,0.03858023,0.04451499,0.01503126,-0.04197570,0.00149164,-0.02005366,0.99769221,0.04494515,-0.03613956,0.03583473
1755651357250,0.15373072,0.23955572,0.28350630,-0.03300151,-0.00151000,-0.01095509,0.99770241,0.04476034,-0.03614801,0.03577338
1755651357261,0.06636031,0.16093078,0.06766218,0.00308833,-0.01210697,-0.02327516,0.99770381,0.04477733,-0.03621460,0.03564536
1755651357272,0.07947343,0.14285951,0.03651161,0.01442714,-0.00167740,-0.02370007,0.99770458,0.04485884,-0.03622408,0.03551146
1755651357283,0.00589080,0.08468450,-0.00133570,-0.00498222,-0.01366902,-0.01142535,0.99770532,0.04483119,-0.03629994,0.03544805
1755651357294,0.04837647,0.07353223,0.03289600,0.00948333,-0.00894038,-0.01416916,0.99770394,0.04488382,-0.03634956,0.03536941
1755651357305,0.00993137,-0.04845394,-0.00722593,0.02027496,-0.00757171,-0.00408247,0.99769809,0.04499736,-0.03639196,0.03534655
1755651357316,0.13897868,-0.10349540,-0.33134424,0.01188356,-0.00764755,-0.01513779,0.99769654,0.04506332,-0.03643441,0.03526253
1755651357327,0.02952013,-0.07038857,-0.08785836,0.00149950,0.00189198,-0.03815504,0.99770408,0.04507171,-0.03642381,0.03504886
1755651357339,-0.05892041,0.02328306,-0.05511909,-0.00156163,-0.00301323,-0.02136812,0.99770805,0.04506297,-0.03644069,0.03492920
1755651357350,-0.20040372,0.13945405,0.30144748,0.00903248,0.00215067,-0.02323318,0.99771078,0.04511400,-0.03642854,0.03479793
1755651357361,-0.00095896,0.09711289,0.12026122,0.02407193,0.01239827,-0.01818237,0.99771075,0.04524519,-0.03636096,0.03469884
1755651357372,-0.05536321,0.07744747,-0.10186831,0.02481741,0.01131464,-0.01271629,0.99770922,0.04538417,-0.03629760,0.03462763
1755651357385,-0.07968920,-0.02151442,-0.15295454,0.03237666,0.00658741,0.00018001,0.99770152,0.04558491,-0.03625676,0.03462875
1755651357394,0.22673866,0.18624365,-0.00200284,0.04131351,0.01216925,-0.01851389,0.99769764,0.04578321,-0.03619835,0.03453988
1755651357405,-0.10298140,-0.20519181,-0.11561976,0.03931761,-0.00479658,-0.00638265,0.99768786,0.04600142,-0.03622497,0.03450446
1755651357416,-0.07818384,0.15354665,-0.09068366,0.00782415,-0.00309628,-0.01191998,0.99768751,0.04604524,-0.03624231,0.03443770
1755651357428,0.05511909,-0.11071335,-0.03801317,0.01227674,0.00048222,0.00271757,0.99768391,0.04611399,-0.03623961,0.03445292
1755651357439,-0.06462238,-0.06889886,0.01710592,-0.00233181,-0.00640455,-0.00639782,0.99768445,0.04610093,-0.03627547,0.03441709
1755651357450,0.06912652,-0.21945207,0.16484281,-0.01797445,0.00131660,-0.00067221,0.99768945,0.04600117,-0.03626817,0.03441336
1755651357461,-0.06178473,-0.01473128,0.00390255,-0.00789800,0.00119768,-0.00433943,0.99769259,0.04595655,-0.03626140,0.03438885
1755651357472,-0.03278215,0.12116697,-0.03426231,0.00097853,0.00287942,-0.01134519,0.99769512,0.04596203,-0.03624527,0.03432531
1755651357484,0.02050817,0.01077672,-0.04486917,0.01628321,0.00490315,0.00071435,0.99769180,0.04605240,-0.03621806,0.03432928
1755651357495,-0.01161035,0.07256470,0.01161035,0.01864612,0.00579384,-0.00757058,0.99768963,0.04615589,-0.03618591,0.03428726
1755651357506,0.02729414,0.04807296,0.02916055,0.01946524,0.00358047,-0.01124528,0.99768747,0.04626489,-0.03616586,0.03422429
1755651357517,-0.09105774,0.10141885,-0.27222297,0.03817716,-0.00582138,-0.01104262,0.99767839,0.04648059,-0.03619875,0.03416190
1755651357528,0.03351426,0.09406923,-0.03051507,0.02601831,0.00456080,0.00072914,0.99767249,0.04662369,-0.03617366,0.03416591
1755651357540,-0.04763168,-0.03052864,-0.02468308,0.03859707,-0.00500974,0.00061254,0.99766102,0.04684370,-0.03620222,0.03416940
1755651357551,-0.01565951,-0.17476078,0.11621912,0.03154410,-0.00229996,0.00119187,0.99765218,0.04701719,-0.03621487,0.03417595
1755651357562,-0.07196659,-0.12073887,0.02364290,0.02021593,-0.00414684,0.00915014,0.99764431,0.04712939,-0.03623788,0.03422674
1755651357573,0.03483106,-0.01741553,0.08901270,0.00155722,0.00758820,0.00868495,0.99764377,0.04713803,-0.03619577,0.03427494
1755651357584,-0.09288282,-0.09433411,-0.09481787,0.02483549,0.00214893,0.00185695,0.99763733,0.04727587,-0.03618384,0.03428524
1755651357595,0.02929753,-0.01770095,0.13900490,-0.00149423,0.01458144,0.01959409,0.99763691,0.04726750,-0.03610219,0.03439497
1755651357606,-0.10833752,-0.02518372,-0.04371514,0.00241501,0.00809353,0.01783850,0.99763446,0.04728102,-0.03605686,0.03449487
1755651357617,0.18816517,-0.16013046,-0.15395332,-0.00114121,0.01322371,0.01974845,0.99763360,0.04727463,-0.03598281,0.03460546
1755651357628,0.08117350,-0.15769369,-0.06664179,-0.00176403,0.02021447,0.02453642,0.99763338,0.04726493,-0.03587163,0.03474041
1755651357640,-0.06986600,-0.14917817,-0.05759362,0.00948307,0.01216063,0.01742146,0.99762987,0.04731851,-0.03580292,0.03483884
1755651357651,-0.21424353,0.07275735,0.24578670,-0.01255047,0.02534049,0.02292855,0.99763376,0.04724885,-0.03566228,0.03496609
1755651357662,-0.06276883,-0.05021861,0.15399309,-0.00973195,0.02004708,0.01130428,0.99763805,0.04719533,-0.03555202,0.03502827
1755651357673,0.03286411,0.01508432,0.11835918,-0.02886282,0.01686876,0.02205321,0.99764470,0.04703370,-0.03545756,0.03515176
1755651357684,0.03611251,-0.01615560,0.01710592,-0.00913005,0.01715528,0.02856202,0.99764487,0.04698257,-0.03536149,0.03531171
1755651357695,0.05701975,0.05559426,0.02090724,-0.00938973,0.00741798,0.03963243,0.99764094,0.04692999,-0.03531995,0.03553365
1755651357707,0.02988975,0.08569977,0.07662487,-0.00997249,0.00994309,0.01821675,0.99764188,0.04687464,-0.03526476,0.03563476
1755651357718,0.23076732,-0.25361802,-0.18047692,-0.03386453,0.00307027,0.01867478,0.99764764,0.04668500,-0.03524757,0.03573933
1755651357729,0.07482803,-0.07934604,0.08728497,-0.03661574,0.00817872,0.03183291,0.99765239,0.04648178,-0.03520218,0.03591601
1755651357740,0.01707168,-0.08481902,0.04083847,-0.01425727,0.00948008,0.02604853,0.99765272,0.04640194,-0.03514909,0.03606188
1755651357751,-0.20907241,0.26846799,0.33451586,-0.01610304,0.01419005,0.01264138,0.99765714,0.04631176,-0.03506963,0.03613267
1755651357762,-0.01140395,0.21810054,0.11403950,-0.02701075,0.00991939,0.02322170,0.99766138,0.04616050,-0.03501408,0.03626271
1755651357773,0.11275266,0.28403172,0.12730139,0.00329717,0.03189975,0.02405412,0.99766187,0.04617847,-0.03484022,0.03639381
1755651357785,-0.06031539,0.28712147,-0.06687179,0.03019597,0.02042336,0.00816624,0.99765634,0.04634757,-0.03472585,0.03643954
1755651357796,0.04371514,0.12971993,0.05701975,0.03506918,0.02480826,0.00409335,0.99765119,0.04654396,-0.03458693,0.03646246
1755651357807,-0.03041053,0.11546499,0.06842370,0.00180057,0.01758352,-0.01344513,0.99765688,0.04655404,-0.03448846,0.03638717
1755651357818,0.05874285,-0.24950163,0.00323086,0.02209015,0.02997384,-0.00171669,0.99765723,0.04667664,-0.03432210,0.03637764
1755651357829,0.07292706,-0.14616234,0.16025461,-0.00173376,0.01961062,-0.01346454,0.99766420,0.04666693,-0.03421228,0.03630224
1755651357840,0.03090911,-0.13794204,0.06857364,0.00093259,0.00662662,-0.02357704,0.99766998,0.04667211,-0.03417551,0.03617139
1755651357852,0.09094776,0.02999341,0.09868799,0.01685685,0.00500232,-0.01385306,0.99766933,0.04676566,-0.03414774,0.03609450
1755651357863,0.03698578,0.10318349,0.03760221,0.02500494,-0.00192204,-0.00557376,0.99766352,0.04690569,-0.03415851,0.03606329
1755651357874,-0.01796840,0.10680833,-0.02439556,0.03444445,-0.00876815,-0.00986434,0.99765482,0.04709686,-0.03420717,0.03600854
1755651357885,-0.02590717,0.12887662,-0.00243147,0.03980141,0.00265009,-0.00788947,0.99764638,0.04731975,-0.03419233,0.03596436
1755651357896,-0.04158648,-0.02264191,-0.01109203,0.03126718,-0.00676977,0.00690810,0.99763546,0.04749328,-0.03422990,0.03600270
1755651357907,0.03171188,-0.06451536,0.06611209,0.02480046,0.00126109,-0.01398032,0.99763190,0.04763216,-0.03422284,0.03592441
1755651357918,0.19006583,-0.41814483,-0.16345662,0.01501676,-0.01268451,-0.00669566,0.99762679,0.04771625,-0.03429387,0.03588692
1755651357930,0.01140395,-0.07840216,0.07412567,0.00985516,-0.00772582,0.00244322,0.99762217,0.04777144,-0.03433714,0.03590060
1755651357941,0.01738176,-0.05198693,0.06741588,-0.01554088,-0.00273936,-0.00494150,0.99762672,0.04768597,-0.03435220,0.03587342
1755651357952,-0.37805043,0.27082411,0.04060240,-0.00797124,-0.00733338,-0.00922207,0.99762932,0.04764093,-0.03439364,0.03582131
1755651357963,0.00159827,-0.01824696,0.07714335,-0.00432982,-0.00283258,-0.00301513,0.99763050,0.04761733,-0.03440908,0.03580488
1755651357974,-0.03253788,-0.03479164,0.01541451,-0.01530737,-0.00150427,0.00598926,0.99763309,0.04753161,-0.03441750,0.03583842
1755651357985,-0.04751646,-0.01425494,-0.01900658,0.00185561,0.00882257,-0.00103872,0.99763451,0.04754200,-0.03436809,0.03583260
1755651357996,-0.06128262,0.06731672,0.02118198,0.01619004,0.01016645,0.00366347,0.99763144,0.04763186,-0.03431167,0.03585294
1755651358008,-0.01339022,0.07963501,0.00751702,0.03759409,0.01490055,-0.01188108,0.99762662,0.04784239,-0.03422823,0.03578640
1755651358019,-0.22666654,0.24226262,0.02002069,0.05067151,0.01646435,-0.03775675,0.99762374,0.04812108,-0.03413767,0.03557874
1755651358030,-0.02826797,0.07567212,0.01074736,0.02425843,0.01124210,-0.01494745,0.99762232,0.04825693,-0.03407472,0.03549504
1755651358041,-0.05131777,-0.12734411,-0.03421185,0.03611285,0.00391231,-0.01446616,0.99761614,0.04845916,-0.03405281,0.03541402
1755651358052,0.20524068,-0.18932756,0.12818943,-0.00516765,0.01743217,0.00430259,0.99762009,0.04842970,-0.03395344,0.03543855
1755651358063,-0.07280526,-0.02162066,0.05493840,-0.00338722,0.00648015,0.00081731,0.99762203,0.04841124,-0.03391813,0.03544300
1755651358074,0.05530007,-0.13776198,-0.03454701,-0.01586975,0.00870846,0.01273175,0.99762542,0.04832316,-0.03386980,0.03551367
1755651358086,-0.08451936,0.03857395,0.00424652,-0.02613182,-0.00006084,0.00041608,0.99763241,0.04817683,-0.03387014,0.03551600
1755651358097,0.02142386,-0.01037934,0.01313076,-0.00833560,-0.00747852,-0.00207568,0.99763364,0.04813056,-0.03391164,0.03550448
1755651358108,0.07950231,0.08963916,0.02690031,0.00953012,-0.00687784,-0.00003989,0.99762976,0.04818393,-0.03395016,0.03550425
1755651358119,-0.10073489,-0.03896350,-0.30220467,0.02370309,-0.01259898,-0.00553985,0.99762204,0.04831667,-0.03402071,0.03547323
1755651358130,0.04657963,0.13705226,0.04557754,0.05199659,-0.01518681,0.00655822,0.99760385,0.04860525,-0.03410500,0.03550963
1755651358141,-0.02515576,0.01015906,-0.03870117,0.04703094,-0.00980814,0.00797101,0.99758766,0.04886627,-0.03415943,0.03555387
1755651358153,0.02363396,0.18667467,0.21813896,0.02740977,-0.00901403,0.00048938,0.99757822,0.04902114,-0.03421036,0.03555663
1755651358163,-0.04588822,-0.16137237,-0.04118219,0.03028848,-0.01525671,-0.00059115,0.99756735,0.04918621,-0.03429351,0.03555341
1755651358175,0.01478677,-0.05934762,0.07736900,-0.00894955,-0.00869109,-0.00928145,0.99757000,0.04913609,-0.03434218,0.03550143
1755651358186,0.03611251,-0.17961221,0.00950329,0.00762722,-0.00095818,-0.00231209,0.99756817,0.04917881,-0.03434755,0.03548849
1755651358197,-0.05938211,0.00926064,-0.06029781,-0.00999206,-0.01473742,-0.01819483,0.99757167,0.04912335,-0.03442934,0.03538750
1755651358208,0.08707764,0.10159058,-0.03870117,0.00403856,-0.01885501,-0.02009877,0.99757090,0.04914576,-0.03453399,0.03527596
1755651358219,0.10291287,0.04368498,-0.41779128,0.03431833,-0.03975806,-0.01327294,0.99755618,0.04933966,-0.03475862,0.03520096
1755651358231,0.04036224,0.08856318,-0.08166633,0.02180420,-0.03603744,-0.01049714,0.99754525,0.04946068,-0.03495863,0.03514270
1755651358241,0.03096094,-0.05224658,-0.01741553,0.00140022,-0.03462107,-0.00508046,0.99753911,0.04946845,-0.03515077,0.03511451
1755651358253,-0.06579199,-0.25300892,0.16641505,0.00568844,-0.04287293,-0.00145265,0.99752941,0.04950002,-0.03538872,0.03510645
1755651358264,-0.04450635,-0.07062964,0.07353223,-0.03050951,-0.03089863,-0.00276054,0.99753224,0.04933069,-0.03556021,0.03509112
1755651358275,-0.01282516,-0.14049889,-0.03621525,-0.02725961,-0.02386861,-0.00612862,0.99753621,0.04917804,-0.03569387,0.03505680
1755651358286,-0.11023818,-0.03278636,-0.03421185,-0.01281112,-0.01425430,-0.01746922,0.99754032,0.04910629,-0.03577369,0.03495898
1755651358297,-0.00918348,0.06495288,-0.01685397,-0.00779513,-0.01383150,-0.01009297,0.99754164,0.04906342,-0.03584977,0.03490347
1755651358308,-0.05370224,0.10726624,-0.01955950,-0.00301140,-0.01730653,-0.00703560,0.99754036,0.04904656,-0.03594668,0.03486407
1755651358319,-0.28699941,0.32358708,-0.19766846,-0.00567946,-0.01721654,0.00003032,0.99753844,0.04901475,-0.03604310,0.03486424
1755651358331,-0.05112488,-0.01012470,0.07733826,-0.01959087,-0.01214366,-0.00072283,0.99754145,0.04890700,-0.03610989,0.03486026
1755651358342,0.05211260,-0.11074790,0.04378426,-0.03709939,0.00676267,-0.00185059,0.99755335,0.04869924,-0.03607202,0.03484990
1755651358353,0.19956912,-0.33546619,0.12354279,-0.03816004,-0.00660059,0.01116074,0.99756023,0.04848555,-0.03610898,0.03491240
1755651358364,-0.03231119,0.01568043,-0.03041053,-0.03624361,-0.00061012,0.00497070,0.99756898,0.04828258,-0.03611240,0.03494023
1755651358375,-0.06178616,-0.02566800,0.00049260,-0.03351565,-0.00461851,0.00078283,0.99757681,0.04809825,-0.03613780,0.03494454
1755651358386,0.05117954,0.05466984,0.09074780,-0.03221500,-0.00869465,-0.00599763,0.99758491,0.04791784,-0.03618649,0.03491095
1755651358398,0.01408101,0.04450635,0.02332437,-0.01700837,-0.00432518,-0.00217427,0.99758899,0.04782345,-0.03621049,0.03489888
1755651358409,0.01455459,0.12457445,0.05291022,-0.02408833,-0.01037652,0.01294230,0.99759080,0.04768855,-0.03626860,0.03497136
1755651358420,-0.29460204,0.53075883,-0.28129743,0.00794055,-0.01385236,-0.00131756,0.99758610,0.04773302,-0.03634617,0.03496398
1755651358431,0.05229842,0.18099710,0.08338030,0.00304631,-0.00587023,0.00635822,0.99758287,0.04774993,-0.03637875,0.03499927
1755651358442,0.00000000,0.05031153,-0.07159717,0.00702289,-0.01482336,0.00481142,0.99757706,0.04778890,-0.03646102,0.03502597
1755651358453,0.32639954,-0.45494654,0.11946751,0.02402547,-0.02358693,-0.00123816,0.99756601,0.04792345,-0.03659311,0.03501904
1755651358464,0.01510037,0.02027060,-0.02185580,0.02981837,-0.02155428,-0.01791366,0.99755714,0.04808894,-0.03671274,0.03491962
1755651358475,-0.00166094,-0.08471200,-0.03916041,0.00707978,-0.02443089,-0.03198466,0.99755644,0.04812859,-0.03684955,0.03474051
1755651358487,0.07792699,-0.08172831,0.14825135,-0.01823601,-0.02155742,-0.01482669,0.99755978,0.04802646,-0.03697027,0.03465748
1755651358498,0.02280790,-0.05654458,0.06272172,-0.02370185,-0.02921798,-0.00294324,0.99756066,0.04789373,-0.03713389,0.03464099
1755651358509,0.02581230,-0.05510598,0.07045687,-0.02186928,-0.01969224,-0.00680698,0.99756371,0.04777236,-0.03724318,0.03460322
1755651358520,-0.07353223,-0.01935059,-0.08901270,-0.00595643,-0.03267099,-0.00432622,0.99755934,0.04773930,-0.03742451,0.03457921
1755651358531,0.00547938,0.14886778,-0.01202038,0.00182680,-0.02783744,-0.00974339,0.99755488,0.04774953,-0.03758040,0.03452464
1755651358542,0.00221150,0.03362164,-0.04785815,0.02104909,-0.03816189,-0.01360556,0.99754389,0.04786635,-0.03779220,0.03444913
1755651358554,0.03392076,0.07501607,0.06833808,0.02585948,-0.02927558,-0.01806948,0.99753420,0.04801117,-0.03795614,0.03434794
1755651358565,-0.01100565,-0.00602978,0.13035730,-0.00063826,-0.02102331,-0.01070213,0.99753197,0.04800762,-0.03807282,0.03428855
1755651358576,-0.05418164,-0.12916517,-0.01935059,0.00935479,-0.02451035,-0.01323455,0.99752679,0.04805954,-0.03820885,0.03421509
1755651358587,0.05130065,0.05891185,0.15417592,-0.01370597,-0.00258158,-0.00830623,0.99753152,0.04798279,-0.03822331,0.03416858
1755651358598,-0.11561976,0.02618376,-0.06655220,0.02411818,-0.01998349,-0.00878781,0.99752249,0.04811665,-0.03833422,0.03411981
1755651358609,-0.03746523,0.16696684,-0.00056506,0.02817944,-0.00735634,-0.01899080,0.99751691,0.04827445,-0.03837541,0.03401346
1755651358620,-0.40576196,0.08054016,-0.12297416,0.05319204,-0.00476252,-0.01609236,0.99750472,0.04856701,-0.03840161,0.03392495
1755651358632,-0.04053586,0.03303690,-0.08639356,0.06478231,-0.01250314,-0.01296522,0.99748676,0.04892979,-0.03847162,0.03385234
1755651358643,0.03187664,0.03621324,0.04512833,0.03926541,-0.00159243,-0.01629161,0.99747877,0.04914771,-0.03848046,0.03376193
1755651358654,0.31052647,0.00925073,0.11873121,0.02112548,0.00064095,-0.00590629,0.99747419,0.04926601,-0.03847687,0.03372885
1755651358665,-0.00564968,-0.10753829,-0.03659334,0.02992273,0.00362910,0.00878515,0.99746510,0.04943208,-0.03845673,0.03377761
1755651358676,-0.00580471,-0.13100416,-0.06066696,0.02908076,-0.00701332,-0.00006263,0.99745551,0.04959494,-0.03849601,0.03377726
1755651358687,-0.01155852,-0.03132808,0.02638245,0.01154420,-0.00777853,-0.02940730,0.99745617,0.04965901,-0.03853918,0.03361405
1755651358698,-0.03537525,-0.07296671,-0.05323950,0.01688406,-0.00122013,-0.01881530,0.99745473,0.04975440,-0.03854607,0.03350774
1755651358710,0.01472700,0.03654778,-0.01352829,0.00917702,-0.00604426,-0.00128893,0.99745113,0.04980533,-0.03857962,0.03350059
1755651358721,-0.29799904,0.04112000,0.01741553,0.03448524,-0.00297925,-0.00464053,0.99744178,0.04999673,-0.03859615,0.03347483
1755651358732,0.03096094,0.11271717,-0.05224658,0.03270975,-0.00372721,0.00024433,0.99743182,0.05017827,-0.03861684,0.03347619
1755651358743,0.07353223,0.02950964,-0.06966211,0.03638954,-0.00665288,-0.00571983,0.99742127,0.05038023,-0.03865376,0.03344444
1755651358754,0.18251457,-0.06669855,-0.12155652,0.02788412,-0.01747201,-0.00758386,0.99741100,0.05053638,-0.03875160,0.03340197
1755651358765,-0.03022455,-0.18756639,-0.07336227,0.01623544,-0.02422653,-0.00617860,0.99740242,0.05062567,-0.03888485,0.03336799
1755651358776,0.01447956,-0.08044968,0.06825091,-0.01161006,-0.01198162,-0.01376282,0.99740567,0.05056066,-0.03895195,0.03329092
1755651358787,-0.01900658,-0.10596170,0.00760263,0.00685077,-0.01028331,-0.01212035,0.99740374,0.05059902,-0.03900953,0.03322305
1755651358799,-0.06842370,0.04419031,-0.09883423,-0.01010115,-0.01197392,-0.00462288,0.99740485,0.05054246,-0.03907659,0.03319716
1755651358810,-0.01636137,0.02658283,-0.02980232,0.00675029,-0.00667373,-0.00769031,0.99740293,0.05057958,-0.03911329,0.03315486
1755651358821,0.00846657,0.05276919,-0.06196146,0.01118954,0.00079401,-0.00568349,0.99740099,0.05064224,-0.03910885,0.03312303
1755651358832,0.03611251,-0.02233274,0.02280790,0.00466975,-0.00142812,0.00421080,0.99739856,0.05066840,-0.03911684,0.03314661
1755651358843,-0.08479764,-0.07286087,-0.02712821,-0.00418933,-0.00006158,-0.00447514,0.99740054,0.05064535,-0.03911718,0.03312200
1755651358854,-0.06496796,-0.14606559,0.03044509,-0.01877778,0.00448338,0.00117370,0.99740664,0.05054020,-0.03909207,0.03312857
1755651358866,-0.06427159,-0.04743053,0.04573304,-0.03669853,0.00991588,-0.00497961,0.99742001,0.05033652,-0.03903704,0.03310094
1755651358877,-0.03289600,0.04982776,0.03096094,-0.05962657,0.02175955,-0.00586970,0.99744245,0.05000559,-0.03891628,0.03306836
1755651358888,-0.01583882,0.07650150,0.00381844,-0.02897672,0.01259728,-0.00731528,0.99745468,0.04984332,-0.03884573,0.03302739
1755651358899,0.01071954,0.21498680,-0.05789885,-0.01632861,0.02248307,-0.00718375,0.99746557,0.04975107,-0.03871870,0.03298681
1755651358910,0.00183090,0.13868662,0.04769069,0.00835073,0.01799384,-0.00560962,0.99746813,0.04979700,-0.03861974,0.03295595
1755651358921,0.02539971,-0.05756403,-0.07965486,0.00643643,0.01727364,-0.00744349,0.99747145,0.04983304,-0.03852300,0.03291427
1755651358932,-0.02043906,0.03676180,0.01466844,0.01554077,0.01824324,-0.00389784,0.99747176,0.04991929,-0.03842175,0.03289264
1755651358944,0.03356117,-0.02788060,0.02917767,0.03494305,0.01491342,-0.00702983,0.99746646,0.05011497,-0.03833824,0.03285327
1755651358955,-0.08030493,0.04216095,0.06924746,0.02618758,0.00362812,0.00160006,0.99745962,0.05026031,-0.03831810,0.03286215
1755651358966,0.04063623,0.00435388,0.05031153,0.01286326,0.01041929,0.00308513,0.99745768,0.05033171,-0.03826028,0.03287927
1755651358977,-0.01741553,-0.02854212,-0.00967529,0.03345718,0.01401393,0.00613679,0.99745015,0.05051739,-0.03818250,0.03291333
1755651358988,0.00905809,0.04158332,-0.01196901,0.01929211,0.01893796,0.01085242,0.99744672,0.05062543,-0.03807645,0.03297411
1755651358999,-0.01520527,-0.08362897,-0.05131777,0.03650011,0.01741904,0.00987394,0.99743821,0.05082983,-0.03797890,0.03302940
1755651359010,-0.06926473,0.08693078,0.05998682,0.01355875,0.02356848,0.01323208,0.99743691,0.05090508,-0.03784809,0.03310284
1755651359022,-0.12332019,-0.01060345,0.09450210,0.02595803,0.02860335,0.00929621,0.99743382,0.05105044,-0.03768791,0.03315490
1755651359033,0.01026272,-0.00042761,-0.01601607,0.01938064,0.03138275,0.00402157,0.99743413,0.05115801,-0.03751374,0.03317722
1755651359044,0.02630752,-0.04575858,-0.02433712,0.02481034,0.03284918,0.00039729,0.99743383,0.05129446,-0.03733307,0.03317940
1755651359055,0.09444471,-0.04238045,-0.18225249,-0.00153779,0.03158863,-0.00732412,0.99744232,0.05128578,-0.03715459,0.03313802
1755651359066,0.09450964,-0.01503523,0.09355067,0.00653867,0.03755677,0.01230304,0.99744592,0.05132207,-0.03694615,0.03320630
1755651359077,-0.00580518,0.10981458,-0.09288282,0.02939857,0.03478526,0.01358913,0.99744213,0.05148523,-0.03675310,0.03328172
1755651359088,0.00886974,0.08399711,-0.06780727,0.05067192,0.03697067,-0.00320419,0.99743565,0.05176899,-0.03654606,0.03326378
1755651359100,0.09883423,-0.03753800,-0.05321843,0.04852303,0.03521612,0.01284147,0.99742632,0.05204072,-0.03634885,0.03333569
1755651359111,-0.03611251,0.01758109,-0.09123160,0.03637258,0.02509484,0.00475003,0.99741989,0.05224441,-0.03620832,0.03336229
1755651359122,-0.17666760,0.04278586,0.05587496,0.03690354,0.02354916,0.00720886,0.99741260,0.05244738,-0.03607880,0.03340194
1755651359133,0.05187069,-0.11092069,0.00784454,0.01358901,0.02042192,0.00201036,0.99741235,0.05252347,-0.03596444,0.03341320
1755651359144,0.03695617,-0.18183073,-0.00005183,-0.00227535,0.01334339,-0.03398423,0.99742199,0.05251085,-0.03589038,0.03322458
1755651359155,0.22566465,-0.14480534,-0.10448484,-0.01202090,0.01138421,-0.02031293,0.99743160,0.05244353,-0.03582663,0.03311083
1755651359166,0.14635069,0.02470856,0.05321843,0.00544196,0.01715670,0.00179969,0.99743311,0.05247400,-0.03573055,0.03312091
1755651359177,0.00007037,0.16550493,-0.04046360,-0.00352353,0.00758678,-0.00717903,0.99743694,0.05245462,-0.03568882,0.03308143
1755651359189,0.05314932,0.06457919,-0.04768925,0.00390866,0.00688351,0.00788658,0.99743570,0.05247651,-0.03565028,0.03312559
1755651359200,0.02850987,-0.09265709,-0.08552962,0.02223686,0.00209047,0.00260675,0.99742907,0.05260104,-0.03563857,0.03314019
1755651359211,0.02012807,-0.06046194,0.15658426,-0.00095094,-0.00626734,-0.00706854,0.99742941,0.05259576,-0.03567335,0.03310096
1755651359222,0.03096094,-0.29364515,0.19544093,-0.00330007,-0.01531575,-0.00468199,0.99742819,0.05257745,-0.03575836,0.03307497
1755651359233,-0.04906781,-0.04894165,0.02032016,-0.02281096,-0.00731256,-0.00464857,0.99743437,0.05244856,-0.03579967,0.03304871
1755651359244,0.00240633,-0.09729511,-0.10647143,-0.02168208,-0.00035591,-0.00335924,0.99744117,0.05232931,-0.03580163,0.03303023
1755651359256,-0.04720544,0.09864417,-0.29522407,-0.01422170,-0.00048314,-0.00099701,0.99744543,0.05224967,-0.03580433,0.03302465
1755651359267,-0.00349002,0.21941319,0.05181465,-0.01269347,0.00328272,0.00541637,0.99744878,0.05217922,-0.03578612,0.03305471
1755651359278,0.02515576,0.14996705,-0.03096094,0.00988049,0.00357219,0.00936832,0.99744490,0.05223406,-0.03576629,0.03310670
1755651359289,-0.04047889,0.17037861,0.04015355,0.01835269,0.00543006,-0.00337584,0.99744123,0.05233683,-0.03573588,0.03308780
1755651359300,0.02923321,-0.05726132,0.02334165,0.02461318,0.00812355,-0.00012388,0.99743569,0.05247344,-0.03569080,0.03308711
1755651359311,-0.00046232,-0.12238698,0.03388651,0.01075422,-0.00281333,0.00081764,0.99743180,0.05253366,-0.03570655,0.03309169
1755651359322,0.07206366,-0.14983747,0.28315783,-0.00463670,0.00294458,0.01188274,0.99743155,0.05250793,-0.03569021,0.03315764
1755651359334,-0.06951957,0.01260256,-0.02214010,-0.01238671,-0.00422791,0.01183413,0.99743215,0.05243856,-0.03571388,0.03322391
1755651359345,0.06797885,-0.08402355,-0.01755768,0.00766094,0.01008219,0.00864317,0.99743033,0.05248070,-0.03565843,0.03327145
1755651359356,-0.05536099,0.11768531,-0.20513287,0.00467509,0.00909114,-0.01049876,0.99743273,0.05250688,-0.03560752,0.03321266
1755651359367,-0.04561580,0.11641532,-0.10263555,0.01979868,-0.00167910,-0.00495325,0.99742748,0.05261775,-0.03561692,0.03318492
1755651359378,0.06789983,0.28085563,0.04454090,0.02811654,0.00999408,0.00460908,0.99742036,0.05277380,-0.03556146,0.03321050
1755651359389,-0.01407515,0.06044436,-0.08595770,0.05609151,0.01001064,0.01307283,0.99740325,0.05308791,-0.03550540,0.03328371
1755651359400,-0.01330461,0.05939557,-0.05131777,0.03958389,0.01061906,0.00929328,0.99739180,0.05330958,-0.03544593,0.03333575
1755651359411,0.01488357,-0.11965791,0.02987269,0.03447714,0.00573836,0.01629437,0.99737977,0.05349920,-0.03541437,0.03342537
1755651359423,-0.11155136,-0.05163743,0.14552131,0.01348924,-0.00998646,0.00822497,0.99737218,0.05357474,-0.03547029,0.03347143
1755651359434,0.03448551,-0.15583701,0.01819301,0.00027857,-0.00554431,0.00583831,0.99736992,0.05357629,-0.03550107,0.03350383
1755651359445,0.10449317,-0.20366493,-0.08127246,-0.02346735,-0.01191979,0.01341455,0.99737204,0.05344605,-0.03556722,0.03357828
1755651359456,0.09907761,-0.19527877,-0.14790992,-0.03106400,-0.01064179,0.00679983,0.99737799,0.05327053,-0.03562735,0.03361670
1755651359467,0.04889386,0.05241617,0.02408075,-0.02415074,-0.01477088,0.00009050,0.99738216,0.05313770,-0.03570859,0.03361720
1755651359478,0.04418970,0.12750278,-0.05711941,-0.00134522,-0.01291272,0.00656628,0.99737876,0.05313024,-0.03578025,0.03365364
1755651359489,0.05650283,0.15701867,-0.04015251,0.02293074,-0.01864936,0.00604540,0.99736691,0.05325980,-0.03588562,0.03368780
1755651359501,0.01794638,0.12992720,-0.06168214,0.05108667,-0.01920427,-0.00903543,0.99734958,0.05354333,-0.03599220,0.03363765
1755651359512,0.05418164,-0.01354541,0.03289600,0.02262255,-0.01853918,0.00130883,0.99733887,0.05366888,-0.03609510,0.03364491
1755651359523,-0.05696838,0.21812195,0.14458702,-0.00616398,-0.02656689,-0.00141068,0.99733559,0.05363437,-0.03624387,0.03363701
1755651359534,0.01684538,-0.16493784,0.01472027,-0.01955294,-0.02673180,0.00031913,0.99733596,0.05352585,-0.03639223,0.03363879
1755651359545,0.03289600,-0.16786634,-0.02515576,-0.04174031,-0.03449445,0.00201661,0.99734099,0.05329419,-0.03658368,0.03364998
1755651359556,0.07353223,-0.36911244,-0.09675293,-0.02917700,-0.02389001,0.00119730,0.99734453,0.05313226,-0.03671627,0.03365662
1755651359568,-0.04614661,0.04942568,-0.03631798,-0.02668906,-0.02304623,-0.00362485,0.99734841,0.05298280,-0.03684533,0.03363632
1755651359579,0.04561580,-0.02946020,-0.06652304,-0.00972713,-0.02440522,-0.00239092,0.99734669,0.05292832,-0.03698199,0.03362293
1755651359590,0.03343159,0.11724382,0.05539105,-0.01889101,-0.01466080,-0.00464694,0.99735010,0.05282348,-0.03706336,0.03359714
1755651359601,0.02515576,0.01402918,0.00967529,-0.01100456,-0.01157354,-0.00343431,0.99735158,0.05276240,-0.03712760,0.03357808
1755651359612,-0.01815043,0.13646641,0.08376595,-0.01650789,-0.01109837,-0.01140242,0.99735630,0.05266996,-0.03718975,0.03351423
1755651359623,0.02992430,0.17626743,0.20380314,-0.01755413,-0.00879886,-0.01083239,0.99736164,0.05257253,-0.03723858,0.03345411
1755651359634,-0.04486239,-0.01408799,0.01279092,-0.01854279,-0.01592664,-0.01343135,0.99736629,0.05246869,-0.03732777,0.03337889
1755651359645,0.04139643,-0.10575873,-0.07869815,-0.01088356,-0.01642642,-0.01138038,0.99736816,0.05240829,-0.03741894,0.03331573
1755651359657,0.08251597,-0.13371816,-0.03984533,-0.01708624,-0.01215362,-0.01456328,0.99737335,0.05231261,-0.03748700,0.03323418
1755651359668,-0.02907771,-0.07357974,-0.01978252,-0.00681292,-0.02671604,-0.01368692,0.99737228,0.05227480,-0.03763527,0.03315822
1755651359679,0.03096094,0.03531482,0.02902588,-0.01448164,-0.02465807,-0.01331103,0.99737377,0.05219442,-0.03777212,0.03308434
1755651359690,0.00193490,0.04124942,0.06686550,-0.01257260,-0.02547918,-0.01207244,0.99737428,0.05212402,-0.03791481,0.03301673
1755651359701,0.05892041,-0.00570197,0.02470856,-0.00942884,-0.02554513,-0.00743096,0.99737296,0.05207122,-0.03805786,0.03297512
1755651359712,-0.15041626,0.11119676,-0.09239905,0.00326873,-0.03542354,-0.01108760,0.99736653,0.05208936,-0.03825446,0.03291358
1755651359723,-0.07740235,0.15867481,0.02322070,0.00400994,-0.02129595,-0.00377023,0.99736152,0.05211161,-0.03837265,0.03289266
1755651359735,-0.07261885,0.04994793,-0.06828672,0.00507204,-0.01999857,-0.00772487,0.99735714,0.05214002,-0.03848464,0.03284940
1755651359746,-0.02734998,-0.07555367,0.03020074,0.00431756,-0.02118534,-0.01724492,0.99735449,0.05216398,-0.03860222,0.03275369
1755651359757,0.10449317,-0.17415528,0.06966211,-0.01145537,-0.01021028,-0.00993117,0.99735743,0.05210040,-0.03865889,0.03269857
1755651359768,-0.05934848,-0.04474680,-0.04005081,-0.01750643,-0.01247141,-0.00448470,0.99736066,0.05200236,-0.03872873,0.03267346
1755651359779,0.00190066,0.05416876,0.06272172,-0.01673661,-0.00147210,-0.00832474,0.99736675,0.05190864,-0.03873697,0.03262684
1755651359790,-0.03491744,-0.02305225,-0.15058903,0.02540236,-0.00099217,-0.00796387,0.99736063,0.05204962,-0.03874248,0.03258264
1755651359801,0.01929573,0.15611438,0.03246725,0.01255995,0.00066626,-0.00185704,0.99735750,0.05211870,-0.03873882,0.03257243
1755651359813,0.02306800,0.00354762,-0.05952869,0.02878505,0.00860090,-0.00523620,0.99735184,0.05228134,-0.03869022,0.03254284
1755651359824,-0.07098676,-0.13319827,0.05130019,0.03556825,-0.00212788,-0.00831993,0.99734260,0.05247696,-0.03870192,0.03249708
1755651359835,-0.01582730,-0.15006561,0.02249688,-0.00271488,0.00280466,-0.01749760,0.99734720,0.05246176,-0.03868622,0.03239910
1755651359846,-0.01790480,-0.14871487,-0.03862702,-0.02869361,-0.00051472,-0.02069170,0.99735939,0.05229964,-0.03868913,0.03228219
1755651359857,-0.04036707,-0.02398484,-0.00687025,-0.06825657,0.00543519,-0.01484116,0.99738281,0.05192423,-0.03865923,0.03220056
1755651359868,-0.02401741,0.02012106,0.03241486,-0.04448019,0.00213173,-0.00045873,0.99739629,0.05167514,-0.03864729,0.03219799
1755651359879,-0.01314803,0.08645134,-0.05877741,-0.01515142,0.01341516,-0.00339188,0.99740413,0.05159105,-0.03857284,0.03217917
1755651359890,-0.03096094,0.12771387,-0.05224658,0.00935977,0.00834682,0.00429581,0.99740246,0.05164300,-0.03852652,0.03220301
1755651359902,-0.00580518,0.10836329,-0.02128565,-0.00909675,0.00213893,-0.00127712,0.99740576,0.05159251,-0.03851464,0.03219592
1755651359913,-0.07217365,0.00156248,0.02469144,0.00421251,0.00714154,-0.01231299,0.99740831,0.05161610,-0.03847465,0.03212697
1755651359924,-0.06449546,-0.10813458,0.15615432,-0.00885139,0.01192727,-0.00784104,0.99741474,0.05156742,-0.03840905,0.03208384
1755651359935,-0.02978850,-0.10714529,-0.00511450,-0.02770919,0.01167722,0.00270902,0.99742478,0.05141225,-0.03834366,0.03209901
1755651359946,0.02129393,-0.07588827,0.02266984,-0.05165992,0.02622796,0.01306470,0.99744325,0.05111778,-0.03819416,0.03217348
1755651359957,0.00098576,-0.10816053,-0.17930232,-0.02064621,0.01908007,0.00586235,0.99745196,0.05100526,-0.03809017,0.03220543
1755651359968,0.02978925,0.15160918,0.08084640,-0.01838883,0.03268875,0.00454797,0.99746327,0.05090320,-0.03790875,0.03223067
1755651359980,-0.05215680,0.07454091,-0.10165954,0.00830261,0.01716437,-0.00291911,0.99746507,0.05094970,-0.03781263,0.03221433
1755651359991,0.02940598,0.21020871,0.12966621,-0.00884777,0.03047248,0.00322029,0.99747340,0.05090059,-0.03764351,0.03223220
1755651360002,-0.00684628,-0.07883314,-0.03776388,0.01604835,0.02870852,-0.00762667,0.99747627,0.05099127,-0.03748130,0.03218911
1755651360013,0.01557140,-0.04933850,0.08532013,-0.01632784,0.02274155,0.00352170,0.99748492,0.05090146,-0.03735623,0.03220848
1755651360024,-0.08392877,-0.03678371,0.13385329,-0.01895229,0.02608347,0.00812406,0.99749424,0.05079628,-0.03721146,0.03225357
1755651360035,0.01904083,-0.01299639,-0.05407459,-0.00377146,0.02369154,0.01747767,0.99749708,0.05077516,-0.03707879,0.03235144
1755651360046,0.02335892,0.08471065,-0.03638601,0.00636905,0.02651279,-0.01856012,0.99750408,0.05081051,-0.03693164,0.03224843
1755651360058,0.10609440,0.16693259,-0.08558099,0.01237190,0.02597947,-0.02141471,0.99750979,0.05087979,-0.03678616,0.03212851
1755651360069,0.08258554,0.12859502,-0.00653082,0.02655810,0.02300566,-0.00428186,0.99750773,0.05102719,-0.03665848,0.03210475
1755651360080,-0.03011017,0.07635200,-0.05823543,0.03649085,0.02222486,-0.01147752,0.99750385,0.05123336,-0.03653291,0.03203990
1755651360091,0.12377742,-0.04833446,0.02663790,0.03340871,0.02607222,0.00136847,0.99749944,0.05141544,-0.03639081,0.03204736
1755651360102,-0.02558042,0.00268969,-0.05192808,0.00952148,0.01686489,0.00055416,0.99750003,0.05146876,-0.03629637,0.03205046
1755651360113,-0.07475892,-0.13989006,-0.11378836,0.01084564,0.00757743,-0.00349774,0.99749907,0.05152895,-0.03625432,0.03203105
1755651360124,-0.02094149,-0.05522611,-0.12290924,-0.00208194,0.00580151,0.00051811,0.99750076,0.05151729,-0.03622183,0.03203395
1755651360136,0.07602633,-0.07174985,-0.03421185,-0.01028498,0.00253270,0.00076960,0.99750411,0.05145970,-0.03620764,0.03203826
1755651360147,0.07793794,-0.10263586,-0.09689115,-0.00465235,-0.00989826,0.00498083,0.99750256,0.05143388,-0.03626258,0.03206590
1755651360158,0.12933644,0.02213151,0.10340170,-0.00750318,-0.00360083,0.00135751,0.99750373,0.05139261,-0.03628238,0.03207337
1755651360169,-0.03119867,0.05227644,-0.04082306,-0.01142571,-0.00082375,0.00386469,0.99750618,0.05132805,-0.03628704,0.03209520
1755651360180,-0.00739775,0.03901798,-0.03962589,0.00067785,0.00032628,-0.00043568,0.99750613,0.05133182,-0.03628523,0.03209279
1755651360191,0.03289600,0.07643482,-0.05031153,0.01017070,0.00064817,0.00401479,0.99750264,0.05138826,-0.03628163,0.03211507
1755651360202,-0.03650634,-0.00070204,-0.10138557,0.02480239,0.00648737,-0.00335878,0.99749740,0.05152716,-0.03624530,0.03209626
1755651360214,-0.04181448,0.03706284,-0.00190066,0.02027995,0.00288263,-0.00535327,0.99749308,0.05164072,-0.03622916,0.03206628
1755651360225,-0.09319381,0.05716198,-0.00608161,0.00507511,0.00359259,-0.00705817,0.99749360,0.05166889,-0.03620922,0.03202711
1755651360236,0.05450110,-0.03521965,0.00437354,0.00264630,0.01485522,-0.00312482,0.99749644,0.05168384,-0.03612529,0.03200945
1755651360247,-0.00986944,-0.03267292,-0.17034382,0.00915965,0.01531963,-0.00012181,0.99749689,0.05173422,-0.03604103,0.03200878
1755651360258,0.02561522,0.04728964,-0.06108245,0.01373682,0.01615037,0.00377582,0.99749551,0.05180977,-0.03595220,0.03202955
1755651360269,0.04442161,0.01424564,-0.05666004,0.02457484,0.02281850,0.00363179,0.99749227,0.05194862,-0.03582328,0.03205007
1755651360280,0.01333992,-0.01006487,-0.02510439,0.02244963,0.00939070,0.00046819,0.99748756,0.05207322,-0.03577116,0.03205267
1755651360291,0.06772705,-0.00967529,0.01161035,0.01046460,0.01193265,-0.00197099,0.99748725,0.05213130,-0.03570493,0.03204173
1755651360303,0.05830398,-0.09728032,-0.05407459,0.01490901,0.00380010,-0.00083720,0.99748379,0.05221479,-0.03568365,0.03203704
1755651360314,-0.02593324,0.00333884,-0.08863260,0.00621409,-0.00824122,-0.00165127,0.99748065,0.05224927,-0.03572939,0.03202788
1755651360325,-0.06385694,0.01548047,-0.12771387,-0.00195200,-0.01215333,-0.00180807,0.99747912,0.05223844,-0.03579684,0.03201784
1755651360336,0.01986599,-0.07725615,-0.02311250,-0.00349116,-0.01979662,-0.00190374,0.99747647,0.05221872,-0.03590869,0.03200708
1755651360347,0.14152016,-0.10770075,-0.07834526,0.00003290,-0.02050312,0.00138970,0.99747215,0.05221890,-0.03602146,0.03201473
1755651360358,0.13902452,0.03107576,0.03338247,-0.00719813,-0.01661635,0.00813198,0.99746944,0.05217859,-0.03611451,0.03206027
1755651360370,-0.04371514,0.05797008,0.00950329,-0.00921689,-0.01857428,0.00231334,0.99746795,0.05212697,-0.03621853,0.03207322
1755651360381,0.00846588,0.02344963,-0.02337620,-0.01164108,-0.01532373,-0.00025861,0.99746828,0.05206236,-0.03630357,0.03207179
1755651360392,0.01548047,0.00096753,-0.04644141,-0.01209164,-0.00519626,-0.00236176,0.99747115,0.05199526,-0.03633241,0.03205868
1755651360403,0.02128565,-0.04692517,0.04837647,-0.01419632,-0.01015680,0.00023538,0.99747315,0.05191647,-0.03638878,0.03205999
1755651360414,-0.02902588,-0.07062964,-0.03676611,-0.01666143,-0.00854580,-0.00399330,0.99747694,0.05182399,-0.03643621,0.03203782
1755651360425,-0.08068380,-0.10488723,0.00446912,-0.02881162,-0.01335482,-0.00575854,0.99748361,0.05166265,-0.03651100,0.03200557
1755651360436,-0.00950329,-0.07127469,-0.02470856,-0.02747375,-0.01832795,-0.00270134,0.99748829,0.05150880,-0.03661364,0.03199045
1755651360448,0.08325935,0.01085015,0.00687637,-0.02885861,-0.01447558,-0.00135455,0.99749384,0.05134863,-0.03669398,0.03198293
1755651360459,0.06772705,0.02854212,-0.01548047,-0.01016426,-0.02433374,-0.00751656,0.99749310,0.05129222,-0.03682903,0.03194121
1755651360470,0.05943410,0.09733168,0.06364637,0.00141402,-0.01851403,-0.02360029,0.99749309,0.05130014,-0.03693271,0.03180905
1755651360481,-0.06770978,0.14077120,-0.05454447,0.00278996,-0.02660286,-0.01132734,0.99748881,0.05131562,-0.03708035,0.03174618
1755651360492,0.02902588,0.18576563,-0.00193506,0.01627826,-0.01319003,0.00667449,0.99748026,0.05140597,-0.03715356,0.03178323
1755651360503,-0.08895106,0.05631336,-0.10392498,0.04731960,-0.01276396,-0.00442988,0.99746441,0.05167569,-0.03722631,0.03175798
1755651360514,-0.08224038,-0.08240320,-0.07572733,0.03989857,-0.00068723,0.00375013,0.99745233,0.05189314,-0.03723006,0.03177842
1755651360525,-0.21876815,-0.06447829,-0.03950005,0.00053466,-0.00045219,0.01255572,0.99744986,0.05189610,-0.03723257,0.03184810
1755651360537,-0.00387012,-0.11755481,-0.05611670,0.00790135,-0.00246183,-0.00551630,0.99744805,0.05193996,-0.03724623,0.03181748
1755651360548,0.14446716,-0.12271232,-0.03850973,-0.00049970,0.00840013,-0.00704112,0.99745121,0.05193716,-0.03719919,0.03177805
1755651360559,0.07869815,-0.02227909,0.02918138,-0.02687723,0.00301789,-0.02519511,0.99746403,0.05178799,-0.03718244,0.03163822
1755651360570,0.04450635,-0.02080188,0.00774023,-0.04412520,0.00030649,-0.03071228,0.99748217,0.05154309,-0.03718074,0.03146777
1755651360581,-0.00000000,0.06288941,-0.01935059,-0.02590586,-0.01004572,-0.00225773,0.99748791,0.05139932,-0.03723649,0.03145524
1755651360592,0.03456783,0.04965235,0.08715129,-0.03302053,-0.00812956,0.00987213,0.99749403,0.05121275,-0.03728242,0.03151101
1755651360603,-0.00350487,-0.07154040,-0.07344541,-0.01049521,-0.01742349,0.00974533,0.99749171,0.05115503,-0.03737825,0.03156461
1755651360615,-0.00779118,-0.05032440,0.07709703,-0.04134648,-0.01572573,0.01029806,0.99749848,0.05092142,-0.03746710,0.03162280
1755651360626,-0.04120134,-0.12386088,0.00232892,-0.05093305,-0.02223902,-0.00995689,0.99750998,0.05063874,-0.03759053,0.03156754
1755651360637,-0.02311611,-0.09202782,0.00643827,-0.03740695,-0.03635921,-0.01878302,0.99751622,0.05042926,-0.03779414,0.03146235
1755651360648,0.04751646,0.06842370,0.07412567,-0.02649551,-0.02201826,-0.01746457,0.99752211,0.05028089,-0.03791744,0.03136455
1755651360659,0.00440571,0.19652076,0.07738507,-0.01256877,-0.02118843,-0.01791570,0.99752427,0.05021113,-0.03803504,0.03126512
1755651360670,-0.05458545,0.15610106,-0.03477492,0.01861310,-0.01292758,-0.02276344,0.99752031,0.05031350,-0.03810614,0.03113992
1755651360681,-0.07809978,0.09952538,-0.08055336,0.04522088,0.00111039,-0.00516661,0.99750865,0.05056674,-0.03809992,0.03111099
1755651360693,-0.14558493,0.16039240,0.00802617,0.03075589,0.00756559,-0.00660878,0.99750257,0.05074205,-0.03805680,0.03107332
1755651360703,-0.03357478,0.02705802,-0.08338894,0.02812028,0.02319549,-0.01462179,0.99750206,0.05089249,-0.03793270,0.03099509
1755651360715,-0.12004345,-0.04275593,0.06199343,0.01940813,0.02688194,-0.02273124,0.99750617,0.05100118,-0.03778217,0.03086780
1755651360726,-0.12332544,-0.10430312,0.11565431,-0.01683841,0.01731680,-0.01575979,0.99751729,0.05090772,-0.03768606,0.03078033
1755651360737,0.02709082,-0.09385035,0.12771387,-0.04903216,0.03116639,-0.01390698,0.99754004,0.05063560,-0.03751308,0.03070314
1755651360748,-0.03676611,-0.18963575,-0.11416846,-0.01925188,0.01325504,0.00638168,0.99754713,0.05052875,-0.03743952,0.03073856
1755651360759,0.01354541,0.05853552,-0.01354541,-0.02495937,0.01714769,0.01098630,0.99755582,0.05039022,-0.03734435,0.03079954
1755651360770,-0.03253244,0.03990019,-0.03101853,-0.00151103,0.00277091,-0.00609790,0.99755790,0.05038169,-0.03732869,0.03076508
1755651360781,0.06794967,0.08999735,0.03351248,-0.00547603,0.00859600,-0.00049742,0.99756130,0.05035129,-0.03728099,0.03076232
1755651360793,-0.04257129,0.05031153,-0.01741553,0.00212386,-0.00883791,0.00441948,0.99755812,0.05036308,-0.03733004,0.03078685
1755651360804,0.03672894,-0.06682269,0.00525678,0.00293932,-0.00590434,0.01262820,0.99755386,0.05037954,-0.03736310,0.03085757
1755651360815,-0.26346169,-0.11882470,-0.04981048,0.00059399,-0.01099864,0.01066001,0.99754958,0.05038284,-0.03742414,0.03091673
1755651360826,-0.09288282,-0.09288282,0.07546729,-0.00972711,0.00577014,0.02147856,0.99754980,0.05032885,-0.03739212,0.03103594
1755651360837,-0.12200172,-0.04962259,-0.13946723,0.00871609,-0.00109448,0.01136960,0.99754513,0.05037766,-0.03739825,0.03109961
1755651360848,0.11784082,0.14587553,0.03231119,0.00793658,0.00843267,0.00732467,0.99754337,0.05042211,-0.03735102,0.03114063
1755651360860,0.05892041,0.03943866,-0.05892041,0.01389969,0.01241360,0.00247222,0.99754160,0.05049995,-0.03728151,0.03115447
1755651360871,0.00964089,-0.02711061,-0.01143537,0.00702596,0.01829046,0.00252003,0.99754296,0.05053859,-0.03718091,0.03116833
1755651360882,-0.07789243,-0.06745609,0.01883380,-0.00191372,0.01869087,-0.00281350,0.99754790,0.05052787,-0.03707624,0.03115258
1755651360893,-0.01330353,-0.00666904,0.04960316,-0.03961704,0.02887525,0.00128526,0.99756473,0.05030800,-0.03691598,0.03115971
1755651360904,0.00967529,-0.06385694,0.02515576,-0.02835642,0.02380957,0.00206474,0.99757718,0.05015062,-0.03678384,0.03117117
1755651360915,-0.21497987,-0.06742628,-0.01897234,-0.03171964,0.01898777,0.00204185,0.99758965,0.04997299,-0.03667751,0.03118260
1755651360926,-0.16622500,0.06222855,0.05977949,-0.04999098,0.01847294,0.00726717,0.99760601,0.04969554,-0.03657498,0.03122293
1755651360938,-0.00387012,-0.02322070,-0.02709082,-0.01614010,0.01268888,0.00295725,0.99761253,0.04960596,-0.03650456,0.03123935
1755651360949,0.26248990,0.12241926,0.07129968,-0.01050507,0.00828173,-0.00021127,0.99761727,0.04954608,-0.03645736,0.03123814
1755651360960,0.13327950,0.04248138,-0.01183743,-0.00362297,0.00800729,0.00878620,0.99761838,0.04952579,-0.03641251,0.03128735
1755651360971,0.01316911,0.10560372,-0.00804480,-0.01094806,0.00888040,0.00824019,0.99762169,0.04946613,-0.03636412,0.03133226
1755651360982,-0.02224430,-0.04734236,-0.02242183,0.00467408,-0.00397323,0.01181913,0.99761754,0.04949207,-0.03638617,0.03139785
1755651360993,0.06192188,0.03773364,0.08901270,-0.00353203,0.00570861,0.01578403,0.99761691,0.04947247,-0.03635449,0.03148545
1755651361004,-0.10062305,-0.03047717,-0.06579199,-0.00216528,-0.00111497,0.01270430,0.99761505,0.04946045,-0.03636067,0.03155596
1755651361016,0.20925730,-0.04825197,0.04183464,0.00367715,0.00593229,0.01115255,0.99761325,0.04948122,-0.03632716,0.03161897
1755651361027,0.02691958,0.05299150,0.00385299,-0.01099777,0.00915715,0.00844774,0.99761663,0.04942019,-0.03627633,0.03166586
1755651361038,0.00193506,-0.04595764,-0.01741553,-0.01046304,0.00521053,0.00729644,0.99761927,0.04936212,-0.03624742,0.03170635
1755651361049,-0.19403838,0.02095433,0.03529060,-0.01521169,0.00642753,0.00338853,0.99762419,0.04927693,-0.03621142,0.03172533
1755651361060,-0.05964127,0.03061971,0.04179381,-0.01076705,0.01214978,0.00256612,0.99762913,0.04921717,-0.03614399,0.03173957
1755651361071,-0.00387012,0.01451294,-0.05998682,-0.00070729,0.01148316,0.01223719,0.99762947,0.04921325,-0.03608026,0.03180749
1755651361082,-0.00703131,0.03488322,0.00928537,0.00391152,0.01265636,0.00772068,0.99762957,0.04923535,-0.03600875,0.03185111
1755651361093,-0.00088930,-0.00719720,-0.02823080,0.00568350,0.01037929,0.00704490,0.99762885,0.04926661,-0.03595166,0.03188986
1755651361105,0.00628945,-0.04292032,-0.01302815,-0.00427483,0.01270794,0.01320146,0.99763023,0.04924267,-0.03588050,0.03196378
1755651361116,-0.13114542,-0.17818672,0.13684740,-0.01059853,0.01326028,0.01592600,0.99763296,0.04918332,-0.03580624,0.03205297
1755651361127,-0.10341089,-0.14580091,0.00791679,-0.00949445,0.01160286,0.01308500,0.99763551,0.04913110,-0.03574243,0.03212494
1755651361141,0.09277979,0.06199926,0.16992178,-0.01151738,0.01175485,0.00391622,0.99764145,0.04905163,-0.03566132,0.03215196
1755651361149,-0.03123374,0.04848101,-0.54654686,-0.01895282,0.01964182,0.00126751,0.99764853,0.04896729,-0.03557391,0.03215760
1755651361159,0.17115024,0.14604613,0.02923742,-0.00522838,0.01291747,-0.00010956,0.99765195,0.04894245,-0.03551255,0.03215708
1755651361275,0.02113802,0.00862071,0.09258512,-0.00110686,0.00105047,0.00012169,0.99765702,0.04887853,-0.03545189,0.03216411
1755651361291,-0.67726015,-0.41984022,-3.42453650,-0.04367405,0.02401671,0.05773769,0.99766621,0.04851604,-0.03525255,0.03264333
1755651361327,0.30795875,0.10612950,1.46483579,-0.03767105,0.00920715,-0.01842452,0.99771600,0.04783231,-0.03508544,0.03230893
1755651361343,0.09792383,-0.17722780,-0.01026470,-0.01103394,0.00164010,-0.00856680,0.99772286,0.04774459,-0.03507240,0.03224082
1755651361367,-0.04689805,0.34122331,-0.00185093,0.02474077,-0.01123406,-0.00677028,0.99770649,0.04804148,-0.03520721,0.03215958
1755651361385,-0.01439135,-0.06433466,0.04339980,0.01319890,-0.02075787,-0.00050893,0.99769443,0.04815895,-0.03539195,0.03215505
1755651361398,-0.01584171,-0.10781663,-0.01650178,-0.00802658,-0.01820608,-0.00050321,0.99769291,0.04810878,-0.03550574,0.03215190
1755651361410,0.00887447,-0.03109376,0.12583203,-0.01371173,-0.00711641,0.01865241,0.99769174,0.04802651,-0.03554844,0.03226382
1755651361422,-0.29607431,-0.11248955,0.03417269,0.00192652,-0.00681755,0.01581441,0.99768657,0.04803826,-0.03559003,0.03236028
1755651361434,-0.07470045,0.13133290,0.08981363,-0.00066139,0.00672182,0.00573034,0.99768709,0.04803419,-0.03554869,0.03239553
1755651361446,-0.04002007,0.00174510,-0.09535535,0.04173341,0.01391504,-0.00993385,0.99767979,0.04828877,-0.03546381,0.03233493
1755651361458,0.10202817,0.31656146,-0.16727843,0.02375648,0.00550311,0.00615334,0.99767286,0.04843131,-0.03543079,0.03237185
1755651361470,0.04432151,-0.03250805,0.10462346,0.01749996,0.02296121,-0.00575540,0.99767375,0.04853543,-0.03529417,0.03233760
1755651361482,-0.00680572,-0.14881119,-0.08999656,0.02689500,0.02920142,0.02973779,0.99766646,0.04869277,-0.03512334,0.03251157
1755651361494,-0.05728653,-0.02962898,0.00598623,0.00209402,0.01812657,-0.00303697,0.99767023,0.04870523,-0.03501549,0.03249350
1755651361505,0.05211418,-0.18594839,0.06130991,-0.00432891,0.02742105,-0.02867791,0.99768232,0.04868034,-0.03485782,0.03232860
1755651361517,0.05067835,0.01486517,0.13454237,-0.00606518,0.00667105,0.00011397,0.99768547,0.04864394,-0.03481779,0.03232929
1755651361528,-0.03086962,0.07939076,-0.02709302,0.00862176,-0.00336889,-0.00006519,0.99768253,0.04869136,-0.03483632,0.03232893
1755651361540,0.09207154,0.15567453,0.05277290,0.01871144,0.00686688,0.00097217,0.99767840,0.04880083,-0.03479615,0.03233461
1755651361553,-0.02723928,0.09742210,-0.18269013,0.01439825,-0.00127454,0.01536492,0.99767047,0.04889226,-0.03480424,0.03243218
1755651361563,-0.04832627,0.02345921,-0.13913674,0.01939045,-0.00584541,0.01194811,0.99766283,0.04898824,-0.03483318,0.03249133
1755651361574,0.03021282,-0.26469060,-0.02342588,0.01376271,-0.01896250,0.00886425,0.99765387,0.04906393,-0.03493747,0.03254008
1755651361585,0.04293911,-0.05051901,0.07842123,-0.00935983,-0.02398460,0.00888652,0.99765001,0.04901011,-0.03507538,0.03259118
1755651361596,-0.02037648,-0.10274696,-0.02584809,-0.00777794,-0.01542972,0.00615739,0.99764796,0.04896617,-0.03516256,0.03262597
1755651361608,-0.01274446,-0.00160320,0.05695233,-0.01950131,-0.01226013,0.00379452,0.99765024,0.04885501,-0.03523244,0.03264759
1755651361619,-0.16127186,-0.17976950,0.08840163,-0.02219324,-0.01694931,0.01053715,0.99765102,0.04873184,-0.03532651,0.03270608
1755651361630,0.03497154,-0.04725531,0.06669656,-0.00783239,-0.00567428,0.00421449,0.99765126,0.04868759,-0.03535857,0.03272989
1755651361642,-0.03921051,0.06301689,-0.03921051,-0.00513384,-0.01433992,-0.00092255,0.99764998,0.04865858,-0.03543959,0.03272467
1755651361653,0.13630321,0.15450809,-0.11203003,-0.00006314,-0.01147269,-0.00678058,0.99764894,0.04865822,-0.03550441,0.03268636
1755651361664,0.01120300,-0.05181389,0.01307017,-0.01284358,-0.01207882,-0.00245115,0.99765050,0.04858566,-0.03557266,0.03267252
1755651361675,-0.04522557,-0.00013271,0.02438516,-0.02287977,-0.01693397,-0.00838657,0.99765485,0.04845867,-0.03566664,0.03262597
1755651361686,0.00000000,0.02563953,0.05031153,-0.02432361,-0.01034571,-0.00204979,0.99765971,0.04832368,-0.03572406,0.03261459
1755651361698,-0.10308109,0.09070900,0.02931957,-0.03030022,-0.01699912,-0.00454821,0.99766539,0.04815248,-0.03582010,0.03258890
1755651361709,-0.00729500,0.05520483,0.03400908,-0.01669676,-0.00687310,-0.00357185,0.99766913,0.04805981,-0.03585825,0.03256907
1755651361720,-0.02322070,0.06821082,0.37733644,0.00433039,-0.01698186,-0.00438781,0.99766538,0.04808385,-0.03595250,0.03254472
1755651361731,-0.04097675,0.10562952,-0.00822563,0.00895727,-0.01856372,-0.00063114,0.99765927,0.04813446,-0.03605738,0.03254115
1755651361742,-0.00327819,-0.05587309,0.02165698,0.02276096,-0.01337252,-0.00229200,0.99765097,0.04825964,-0.03613093,0.03252855
1755651361753,0.05791824,-0.11625117,-0.33361737,0.01262761,-0.01158913,0.00896944,0.99764355,0.04833036,-0.03619583,0.03257878
1755651361765,-0.08700853,-0.08773418,0.00038010,-0.00240119,-0.01462915,0.01541114,0.99763845,0.04831703,-0.03627702,0.03266431
1755651361775,-0.01741553,-0.13206775,0.05224658,-0.00789279,-0.00034309,0.01659676,0.99763749,0.04827322,-0.03627893,0.03275642
1755651361787,-0.12838861,0.11710452,0.09229323,-0.03007953,-0.00490838,0.01902993,0.99764112,0.04810478,-0.03630642,0.03286299
1755651361798,0.02695726,0.05271219,0.02923533,-0.01296853,-0.00048298,0.01496537,0.99764178,0.04802956,-0.03630922,0.03294979
1755651361810,0.00683159,0.12636940,0.03306189,0.00450001,0.00184565,0.01533528,0.99763793,0.04805589,-0.03629842,0.03303950
1755651361820,-0.13140302,0.48035615,0.49986285,0.02253973,0.00904572,0.00672292,0.99763298,0.04816971,-0.03625274,0.03307345
1755651361831,0.03377731,0.00969445,0.02134312,0.03895552,0.00678695,0.01613468,0.99762091,0.04838592,-0.03621507,0.03316300
1755651361842,-0.07938410,0.08501129,-0.02680456,0.03725540,0.01526793,0.01038372,0.99761210,0.04859082,-0.03613110,0.03322011
1755651361853,0.08611710,-0.28903829,-0.31654600,0.02923070,0.01334533,0.01309027,0.99760437,0.04875451,-0.03605636,0.03329341
1755651361865,-0.05511909,-0.08695512,-0.04371514,0.02001416,0.01125634,0.00868527,0.99759954,0.04886659,-0.03599333,0.03334205
1755651361876,0.06816827,-0.09339587,0.07733740,0.02268091,0.01418417,0.00032142,0.99759608,0.04899474,-0.03591319,0.03334387
1755651361887,-0.04329052,0.01287756,-0.04084173,0.01777751,0.00359965,0.00994898,0.99759010,0.04909340,-0.03589321,0.03339908
1755651361898,0.13401550,-0.06306315,-0.01963049,0.04810620,0.00462805,0.01870019,0.99757409,0.04936520,-0.03586706,0.03350474
1755651361909,-0.04215891,0.08398929,-0.00069259,0.03255141,-0.00387540,0.00903678,0.99756288,0.04954261,-0.03588818,0.03355399
1755651361920,0.07381180,0.21635682,0.37256390,0.01572190,0.00993648,0.01376705,0.99755791,0.04963065,-0.03583254,0.03363109
1755651361931,0.03754359,-0.02275854,-0.03016618,-0.01501571,-0.00288173,0.03883782,0.99755418,0.04954731,-0.03584853,0.03384664
1755651361943,0.05386189,-0.16200619,-0.11303931,0.01134019,0.00698102,0.01664786,0.99754922,0.04961139,-0.03580909,0.03394070
1755651361954,0.00097648,-0.37812963,-0.38579763,0.01271125,-0.00564862,0.00571769,0.99754356,0.04968130,-0.03584016,0.03397214
1755651361965,0.17834204,0.05007844,0.10651618,-0.03152987,-0.00380262,0.01530268,0.99754860,0.04950631,-0.03586126,0.03405707
1755651361976,0.00193506,0.16544752,-0.10642823,-0.00353936,-0.01039457,-0.00298091,0.99754806,0.04948666,-0.03591895,0.03404053
1755651361987,0.09675293,0.17996046,-0.05418164,0.01633812,-0.00934736,0.00404336,0.99754093,0.04957734,-0.03597083,0.03406297
1755651361998,0.06861419,0.02208220,-0.03249880,0.02031129,-0.00416391,-0.01256364,0.99753679,0.04969210,-0.03599435,0.03399198
1755651362009,-0.04856255,-0.06019751,-0.06769114,0.00086443,-0.01660679,-0.02678405,0.99753826,0.04969685,-0.03608569,0.03384467
1755651362021,0.18349992,-0.05241497,0.48567004,-0.02226077,-0.00579755,-0.00666551,0.99754456,0.04957219,-0.03611816,0.03380735
1755651362032,-0.03852840,-0.13488828,-0.02802380,-0.03812407,-0.01325672,-0.01064152,0.99755438,0.04936061,-0.03619173,0.03374829
1755651362043,0.06772705,-0.13158399,0.04063623,-0.05573682,-0.02474635,0.00647432,0.99756343,0.04905127,-0.03632908,0.03378422
1755651362054,0.12612630,-0.11269027,-0.33450889,-0.02071930,-0.01360218,-0.01020538,0.99756833,0.04893420,-0.03640593,0.03372656
1755651362065,0.02653939,0.11882131,-0.03748994,-0.00909565,-0.03666493,-0.02991012,0.99756895,0.04888418,-0.03660758,0.03356205
1755651362076,0.08718319,0.01341787,-0.01319358,0.00456066,-0.03525042,-0.00260791,0.99756100,0.04890949,-0.03680322,0.03354758
1755651362087,0.00387012,0.16689881,0.05998682,-0.01377597,-0.02670681,-0.01331826,0.99756175,0.04883303,-0.03695145,0.03347366
1755651362099,-0.00753654,-0.01094534,-0.08275324,-0.00234605,-0.03156254,-0.00269316,0.99755624,0.04881966,-0.03713135,0.03345831
1755651362110,0.05385764,0.00820136,0.05036623,-0.01202804,-0.01705973,-0.00502920,0.99755690,0.04875350,-0.03722518,0.03343065
1755651362121,0.07487526,-0.24531498,0.70343333,-0.00600164,-0.01959597,-0.01669170,0.99755756,0.04872049,-0.03733296,0.03333885
1755651362132,0.01358107,0.08501990,-0.00805188,0.00509137,-0.01680799,-0.00823464,0.99755418,0.04874901,-0.03742708,0.03329273
1755651362143,-0.02762081,0.21342791,-0.01347614,0.02625394,-0.00710186,-0.02698592,0.99755059,0.04889340,-0.03746615,0.03314431
1755651362154,-0.12112377,0.28645513,-0.84206075,0.03829259,-0.01441017,-0.00729763,0.99753838,0.04910784,-0.03754684,0.03310344
1755651362165,0.00950329,-0.00617714,-0.03991382,0.03363212,-0.00050245,-0.01052834,0.99753094,0.04929618,-0.03754966,0.03304448
1755651362176,0.02774736,0.07345448,-0.06216376,-0.01471390,-0.00694431,-0.01377306,0.99753605,0.04921452,-0.03758820,0.03296804
1755651362188,0.01132075,-0.13976419,-0.14222431,0.02431193,-0.02066395,-0.00004596,0.99752486,0.04935188,-0.03770495,0.03296778
1755651362199,0.02870160,-0.05089913,-0.16012564,0.01530327,-0.01259673,-0.00305421,0.99751863,0.04943605,-0.03777423,0.03295099
1755651362210,-0.04332882,-0.11258322,-0.04162769,0.01157464,-0.01687956,-0.02757950,0.99751689,0.04950203,-0.03787044,0.03279378
1755651362221,-0.17972136,-0.18922768,0.24412237,0.00023340,-0.01682220,-0.01189380,0.99751546,0.04950331,-0.03796297,0.03272837
1755651362232,0.04911531,-0.10351245,-0.06598550,-0.01681230,-0.01870218,-0.00296490,0.99751667,0.04941000,-0.03806676,0.03271191
1755651362243,0.01359570,-0.04088556,-0.09844040,-0.02988351,-0.00978086,-0.00010180,0.99752287,0.04924265,-0.03812154,0.03271134
1755651362255,0.28041073,0.01706566,-0.46764494,-0.03118976,-0.00543235,0.00342412,0.99752962,0.04906955,-0.03815169,0.03273034
1755651362266,-0.05495527,0.04892483,-0.11820346,-0.03907937,-0.01625209,0.00727777,0.99753560,0.04884875,-0.03824351,0.03277146
1755651362277,0.06368569,-0.16687741,-0.12348414,-0.02351883,-0.02745787,0.00235611,0.99753570,0.04871822,-0.03839590,0.03278454
1755651362288,0.10295792,-0.14560557,0.01776912,-0.05961107,-0.02083007,0.00373027,0.99754656,0.04839036,-0.03851047,0.03280506
1755651362299,-0.01901116,-0.17139746,-0.00989599,-0.05355053,-0.03700699,-0.01036354,0.99755502,0.04808780,-0.03871956,0.03274650
1755651362310,-0.00140420,-0.07452116,-0.03075545,-0.06872609,-0.02997413,-0.00982126,0.99756866,0.04770637,-0.03888591,0.03269199
1755651362321,-0.19814115,-0.01295330,0.15816943,-0.06683980,-0.02560958,-0.01573295,0.99758337,0.04734209,-0.03902548,0.03260625
1755651362332,0.06429108,0.06530679,0.01729773,-0.04275102,-0.03383950,-0.00755655,0.99758865,0.04710269,-0.03921499,0.03256393
1755651362343,0.08519441,0.19209345,-0.01990346,-0.04217665,-0.02462625,-0.00591437,0.99759536,0.04686861,-0.03935166,0.03253111
1755651362355,0.16455249,0.16551994,-0.19884996,-0.01447377,-0.02753426,-0.00853116,0.99759463,0.04678755,-0.03950585,0.03248333
1755651362366,-0.01723170,-0.01996715,0.03600311,-0.00095491,-0.02109349,-0.02010308,0.99759384,0.04678211,-0.03962609,0.03236875
1755651362377,0.04539354,0.09563698,-0.07909619,-0.03807251,-0.01732222,-0.02442888,0.99760392,0.04657842,-0.03971876,0.03223805
1755651362388,-0.02962895,-0.07532025,0.07313094,-0.02125187,-0.01610012,-0.01308757,0.99760824,0.04645941,-0.03980892,0.03216476
1755651362399,-0.07982765,0.01568043,0.03611251,-0.05010412,-0.01400010,-0.03052118,0.99762363,0.04617883,-0.03988732,0.03199384
1755651362410,-0.06810715,-0.08031357,0.04647596,-0.03924041,-0.00779433,-0.02607684,0.99763659,0.04596105,-0.03993058,0.03184912
1755651362421,-0.20199278,-0.09877303,0.12262643,-0.03295561,-0.00567696,-0.02260618,0.99764763,0.04577979,-0.03996180,0.03172478
1755651362433,0.01119661,-0.02011242,-0.02394829,0.00569313,-0.00793370,-0.00925376,0.99764604,0.04581167,-0.04000623,0.03167296
1755651362444,0.02633062,0.22750761,0.02648612,-0.00413909,0.00590705,-0.00945306,0.99765007,0.04578870,-0.03997345,0.03162050
1755651362455,0.16447999,0.20850257,-0.16447999,0.00741468,-0.01637816,-0.01056884,0.99764639,0.04582985,-0.04006435,0.03156184
1755651362466,0.06558127,-0.01967438,0.05883479,-0.00855155,-0.00180866,-0.00659465,0.99764935,0.04578196,-0.04007447,0.03152491
1755651362477,-0.09732376,-0.05365825,-0.05390455,-0.01651023,-0.01454580,0.00562401,0.99764932,0.04569116,-0.04015448,0.03155584
1755651362488,-0.00514906,-0.16967695,0.09285580,-0.02980422,-0.01614398,-0.00009619,0.99765332,0.04552425,-0.04024488,0.03155530
1755651362499,0.03231119,-0.10168522,0.05511909,-0.05190648,-0.01788948,0.00913902,0.99766088,0.04523358,-0.04034506,0.03160648
1755651362510,-0.00992238,0.12309731,0.04440440,-0.02786244,-0.02598020,0.01001292,0.99766028,0.04508033,-0.04048795,0.03166155
1755651362522,-0.14991010,0.09910205,0.00010367,0.00808412,-0.01107630,0.01169026,0.99765363,0.04512560,-0.04054998,0.03172702
1755651362533,-0.06082107,0.25136206,-0.04371514,0.00290338,-0.00967147,0.00467100,0.99764986,0.04514186,-0.04060414,0.03175318
1755651362544,-0.02779674,0.18600942,-0.12307972,0.03185262,-0.01230974,-0.00083444,0.99763931,0.04531705,-0.04067185,0.03174859
1755651362555,0.22041060,0.04774856,0.04182455,0.03037340,0.00294580,-0.00160986,0.99763247,0.04548866,-0.04065520,0.03173949
1755651362567,-0.03221520,-0.10304017,0.00172744,0.02254058,0.00613728,-0.00084056,0.99762803,0.04562165,-0.04061899,0.03173453
1755651362577,0.01662385,-0.08500301,-0.22112046,0.00871264,0.00192049,-0.01018914,0.99762805,0.04566609,-0.04060920,0.03168257
1755651362588,-0.01614957,-0.16018205,0.07943422,-0.00103677,-0.00236609,-0.00514210,0.99762867,0.04566038,-0.04062221,0.03165429
1755651362599,0.02688721,-0.13960470,-0.03264148,-0.00149134,0.00145040,-0.00669405,0.99763059,0.04565196,-0.04061402,0.03161646
1755651362610,-0.02195350,-0.00044095,-0.04770861,-0.01229562,-0.00622875,-0.00515061,0.99763321,0.04558372,-0.04064859,0.03158788
1755651362622,-0.10449317,-0.22253175,0.29799904,-0.00090244,-0.00608638,0.00206648,0.99763170,0.04557871,-0.04068237,0.03159935
1755651362633,-0.04701989,0.06277309,-0.11373128,0.00318902,-0.00365861,0.01258057,0.99762781,0.04559657,-0.04070285,0.03166980
1755651362644,-0.00781123,0.06115282,-0.09141255,-0.00366048,0.00800068,0.01252245,0.99762834,0.04557643,-0.04065885,0.03173867
1755651362655,-0.02463944,0.01691586,-0.52223179,0.00725295,0.01049739,0.01266528,0.99762662,0.04561705,-0.04060006,0.03180960
1755651362666,-0.00509681,-0.14487888,-0.14817021,-0.02141221,0.00906369,0.02520700,0.99762962,0.04549821,-0.04054976,0.03194950
1755651362677,-0.13932422,-0.12723011,-0.49343996,-0.04633550,0.04008914,-0.00860883,0.99765186,0.04524105,-0.04032727,0.03190172
1755651362688,0.00248284,-0.25585258,-0.08066668,0.01332538,0.02388563,0.00434539,0.99765310,0.04531567,-0.04019351,0.03192605
1755651362699,0.04021730,0.25530773,0.00418710,-0.02993371,0.03247098,-0.03815713,0.99767443,0.04515104,-0.04001492,0.03171619
1755651362711,-0.14104819,0.18801294,-0.10852161,-0.03433899,0.03570293,-0.02549968,0.99769546,0.04496046,-0.03981677,0.03157466
1755651362722,-0.06622556,-0.46852440,-0.20567435,-0.01494253,0.03546718,-0.00915467,0.99770887,0.04487603,-0.03961638,0.03152294
1755651362733,-0.07655385,-0.75666951,-0.07842102,-0.03474665,0.03237830,0.02385379,0.99772066,0.04467971,-0.03943344,0.03165771
1755651362744,0.14516453,0.51471072,0.11367298,-0.13421394,0.05428624,0.02554863,0.99776073,0.04394154,-0.03913486,0.03179823
1755651362755,0.03546723,-0.01428541,-0.36846508,-0.12448504,0.03544916,0.03267094,0.99779253,0.04325687,-0.03893989,0.03197792
1755651362766,0.15246735,0.44298298,-0.09143894,-0.09033071,0.03705437,0.01305950,0.99782007,0.04275102,-0.03873239,0.03205106
1755651362777,0.02850987,-0.32453741,-0.58350210,-0.02308645,0.00920513,0.04329547,0.99781978,0.04262173,-0.03868084,0.03229351
1755651362788,0.09190947,-0.02996731,-0.17060559,-0.00871206,0.00292334,0.04826911,0.99781393,0.04257469,-0.03866505,0.03255416
1755651362799,0.32761718,-0.32652606,0.05047304,0.01232960,0.01179101,0.05710887,0.99780305,0.04264373,-0.03859902,0.03287397
1755651362811,-0.22215165,0.10759445,-0.24314358,-0.00203279,-0.00445992,0.06992699,0.99778971,0.04263245,-0.03862378,0.03326207
1755651362822,-0.06035492,-0.23098204,0.30727516,-0.01497167,0.00091316,0.10290442,0.99777397,0.04254786,-0.03861862,0.03384348
1755651362833,0.11552133,-0.01226270,-0.53394393,-0.02237627,0.02138533,0.11172744,0.99776273,0.04242479,-0.03850100,0.03445798
1755651362844,0.19077919,-0.16632269,0.13117939,-0.07265869,0.02917548,0.13100463,0.99776065,0.04202154,-0.03833907,0.03518505
1755651362855,0.31734962,-0.15238587,-0.43345314,-0.09109723,0.02945480,0.10675722,0.99776701,0.04151595,-0.03817560,0.03577756
1755651362866,0.40146698,-0.22991973,0.05169448,-0.12026335,0.04827807,0.09414512,0.99778607,0.04084247,-0.03790524,0.03630477
1755651362878,0.06178514,0.20496222,0.10807486,-0.16057008,0.02043248,0.09300785,0.99780810,0.03992722,-0.03778878,0.03683491
1755651362889,0.53202053,0.09126904,0.00917277,-0.16348829,0.03204568,0.10310131,0.99782999,0.03899534,-0.03760612,0.03742259
1755651362900,0.54603802,-0.52875203,-0.66076575,-0.14934628,0.01774490,0.13267098,0.99783747,0.03821127,-0.03751296,0.03811911
1755651362911,0.03980692,-0.01230144,0.21832991,-0.14894334,-0.00850757,0.11045971,0.99784340,0.03738463,-0.03756017,0.03873217
1755651362922,0.11356077,0.22062851,0.30542482,-0.18385748,-0.00901300,0.10013359,0.99785773,0.03634584,-0.03761110,0.03929792
1755651362933,0.88198073,-0.42269901,-0.20742041,-0.16822134,-0.00862741,0.13805355,0.99785902,0.03542903,-0.03765812,0.04005031
1755651362944,-0.05008836,0.18591265,0.28242026,-0.18563947,-0.03336514,0.13237030,0.99785826,0.03437089,-0.03784830,0.04080482
1755651362955,0.52026580,-0.14251905,-0.22204893,-0.17093779,-0.03901473,0.12889563,0.99785291,0.03344782,-0.03805898,0.04150086
1755651362966,0.32670205,0.18131928,0.50705340,-0.18280461,-0.05808997,0.13692244,0.99784206,0.03242412,-0.03838428,0.04226762
1755651362978,0.29840336,0.05511909,-0.00190066,-0.14687262,-0.05455455,0.15755421,0.99781888,0.03160163,-0.03868979,0.04314993
1755651362989,0.36517321,0.42404133,0.25722459,-0.17534457,-0.06886731,0.16992535,0.99779311,0.03062847,-0.03907200,0.04409301
1755651363000,0.27671339,0.11513599,0.13738917,-0.14125014,-0.06253670,0.16711804,0.99776179,0.02984453,-0.03941908,0.04502052
1755651363011,0.27996183,0.17980913,-0.04707126,-0.11116037,-0.06530297,0.16542547,0.99772347,0.02922203,-0.03978478,0.04594690
1755651363022,0.52443545,0.12382648,-0.21567266,-0.09002328,-0.06517986,0.15383428,0.99768381,0.02872240,-0.04014652,0.04680068
1755651363033,0.34694720,0.04263639,0.28977334,-0.06010463,-0.07758620,0.10094516,0.99764918,0.02838582,-0.04058101,0.04736598
1755651363044,0.71420942,0.30819265,-0.00019005,-0.05217006,-0.09176515,0.08197874,0.99761483,0.02809627,-0.04109030,0.04782096
1755651363056,-0.17619568,0.15552871,0.68267728,-0.03899538,-0.11147109,0.09592594,0.99756668,0.02786620,-0.04174798,0.04838692
1755651363066,2.07128119,-0.25351278,-0.29272539,-0.02525647,-0.11882646,0.12446223,0.99751426,0.02773866,-0.04234806,0.04901545
1755651363077,-0.70036436,-0.15563287,0.14742334,-0.01583735,-0.12036351,0.08578028,0.99746416,0.02764997,-0.04302209,0.04949582
1755651363089,0.25123556,0.04800142,0.26515851,-0.02798564,-0.10776186,0.06666336,0.99742295,0.02749045,-0.04363633,0.04987581
1755651363100,0.42240563,0.23460383,0.04854635,-0.05632959,-0.10662061,0.04281861,0.99739301,0.02717219,-0.04423874,0.05011773
1755651363111,0.43627867,-0.04060198,-0.14230387,-0.04821030,-0.10973027,0.04059357,0.99736172,0.02690462,-0.04484774,0.05034302
1755651363122,0.02914266,-0.10105922,-0.14621949,-0.01457707,-0.11725122,0.02261923,0.99732869,0.02682517,-0.04548676,0.05046630
1755651363133,0.15251083,-0.22374945,-0.34515610,0.01840621,-0.09490238,0.02161530,0.99729630,0.02692549,-0.04600398,0.05058410
1755651363144,0.02740485,0.37470167,0.16685143,-0.03167158,-0.07730072,0.00803812,0.99727904,0.02675130,-0.04642914,0.05062831
1755651363155,-0.18420453,0.11587470,-0.25257680,-0.03269143,-0.06284762,0.01219551,0.99726388,0.02656659,-0.04678422,0.05069722
1755651363167,-0.35620224,-0.24378458,-0.23863371,-0.03128832,-0.05170807,0.00994316,0.99725165,0.02638512,-0.04708413,0.05075489
1755651363177,0.58622487,-0.47721092,-0.44648595,-0.02806907,-0.01944151,-0.01116932,0.99725373,0.02623495,-0.04718814,0.05069513
1755651363190,-0.93406915,-0.17004809,0.29392270,-0.05496603,0.02035809,0.03013822,0.99725892,0.02590515,-0.04706599,0.05087596
1755651363200,0.86744356,-0.36884598,-0.73498879,-0.10654395,0.04305857,0.02731466,0.99727661,0.02534579,-0.04683994,0.05101936
1755651363211,-0.82801749,0.20406969,-0.22467085,-0.12239425,0.07977679,0.03094025,0.99730477,0.02468487,-0.04640914,0.05118644
1755651363222,-0.93044071,0.36536327,0.24408615,-0.09581356,0.11742809,0.03125133,0.99733898,0.02415310,-0.04575742,0.05135989
1755651363233,-0.39281691,-0.02854212,-0.52246584,-0.07595909,0.15019108,0.03287025,0.99737759,0.02373153,-0.04492386,0.05154231
1755651363239,-3.83550606,0.01874219,1.83832182,-0.04667443,0.13919225,0.00166841,0.99739829,0.02359851,-0.04452716,0.05154707
1755651363250,0.32988092,-0.79364989,-0.77906984,-0.03036764,0.18425724,-0.02303272,0.99745448,0.02342845,-0.04349532,0.05141809
1755651363261,-0.56536540,0.23097603,-0.30304401,-0.08247675,0.21023287,-0.05095831,0.99752986,0.02297070,-0.04232853,0.05113527
1755651363272,-0.68081238,0.43631666,-0.35728952,-0.08562937,0.23516745,-0.04087290,0.99760751,0.02249118,-0.04101159,0.05090638
1755651363284,-0.93562231,0.34906476,-0.26345499,-0.02813952,0.28503673,-0.04099027,0.99768847,0.02233078,-0.03938688,0.05067274
1755651363295,-0.80944808,-0.07266444,-0.47113948,0.05595870,0.39549999,-0.09623131,0.99779086,0.02263576,-0.03723140,0.05014827
1755651363306,-0.72689333,-0.17187788,-0.33153352,0.08222337,0.45122097,-0.16334526,0.99791803,0.02310032,-0.03468200,0.04922537
1755651363317,-0.81349682,0.41828310,0.15163373,0.00974916,0.46945488,-0.23085947,0.99806500,0.02315394,-0.03210000,0.04795565
1755651363328,-0.84489939,0.20281174,0.38310643,-0.05704450,0.46702676,-0.13725157,0.99818859,0.02283734,-0.02950800,0.04719390
1755651363339,-1.44391814,0.36657021,0.04029053,-0.10258672,0.50343965,-0.05166423,0.99829456,0.02226286,-0.02668874,0.04690458
1755651363350,-1.60433641,0.07809344,-0.37154854,-0.05194217,0.59699206,-0.04711762,0.99839628,0.02197458,-0.02337544,0.04664308
1755651363362,-1.32547003,0.64054769,0.38552797,-0.03444936,0.67136093,-0.07494886,0.99850184,0.02177994,-0.01958225,0.04621962
1755651363373,-1.28619754,0.73873434,-0.32087725,-0.04222062,0.71576696,-0.03761933,0.99858656,0.02154561,-0.01560974,0.04601083
1755651363384,-1.11411111,0.47146600,-0.08665975,0.03610823,0.76044465,-0.04463726,0.99865115,0.02174782,-0.01135125,0.04576086
1755651363395,-1.43980459,0.70951000,0.20547904,0.08594109,0.83241056,-0.04723607,0.99869446,0.02222479,-0.00673137,0.04549870
1755651363406,-1.22827047,-0.12109848,0.18789121,0.13688837,0.89223090,-0.08040193,0.99871869,0.02299137,-0.00173488,0.04504845
1755651363417,-1.74258945,-0.53573050,0.22838875,0.13709752,0.95454899,-0.07221871,0.99871404,0.02375226,0.00356287,0.04464764
1755651363428,-0.91298379,-0.20603307,0.86082699,0.08562171,1.02804431,-0.06307793,0.99868111,0.02423174,0.00931992,0.04429440
1755651363440,-0.96553442,-0.44285339,0.13114542,0.09672127,1.05063053,-0.07433275,0.99861396,0.02477338,0.01520345,0.04387814
1755651363451,-0.84653634,0.05728292,0.21237269,0.08258108,1.09174620,-0.08268236,0.99851191,0.02523170,0.02126264,0.04341925
1755651363462,-0.97526957,0.15867481,-0.01161035,0.12266698,1.08242962,-0.08356618,0.99836852,0.02591251,0.02727012,0.04295546
1755651363473,-0.55507784,-0.15178298,0.21347304,0.18486188,1.08600301,-0.06127118,0.99817116,0.02694773,0.03335174,0.04261234
1755651363484,-1.13309780,-0.41478933,0.08840799,0.22306730,1.07628351,-0.07630663,0.99793747,0.02818576,0.03932511,0.04218884
1755651363495,-0.70629642,-0.35314821,0.54568655,0.19371567,1.10344341,-0.08843267,0.99766700,0.02926088,0.04544922,0.04169804
1755651363506,-0.81324204,-0.69577365,0.23446589,0.17503582,1.08198531,-0.07540400,0.99736086,0.03024108,0.05150834,0.04127577
1755651363518,-1.09126942,-0.36852933,0.74256149,0.12959567,1.09502111,-0.08089783,0.99702483,0.03096033,0.05758571,0.04082679
1755651363529,-0.90947758,-0.20076234,0.36766115,0.08838863,1.09804559,-0.10453066,0.99666239,0.03145089,0.06367986,0.04024664
1755651363540,-0.63622397,-0.13428322,0.45822988,0.06529106,1.09289916,-0.11258224,0.99626614,0.03181652,0.06980010,0.03961618
1755651363551,-0.72419571,-0.14460676,-0.03277506,0.05186951,1.12448742,-0.10673053,0.99582339,0.03210440,0.07604100,0.03902383
1755651363562,-1.19199614,0.63034536,-0.09481787,0.04246259,1.16256091,-0.11403391,0.99532664,0.03234006,0.08249322,0.03839094
1755651363573,-1.33712555,0.77402347,-0.05031153,0.09744116,1.20322666,-0.12405918,0.99475921,0.03288086,0.08917112,0.03770241
1755651363584,-0.48024886,0.13579857,0.43604241,0.18337830,1.25424320,-0.16062164,0.99409771,0.03391695,0.09625760,0.03679490
1755651363596,-1.24811017,0.16588710,0.09750545,0.17408980,1.28198911,-0.18287283,0.99338001,0.03489185,0.10343674,0.03577081
1755651363607,-0.62219048,-0.24902650,0.62842758,0.14824365,1.32387936,-0.20012605,0.99259760,0.03571461,0.11078427,0.03466011
1755651363618,-0.32508986,-0.20753504,0.66372512,0.08490233,1.31778069,-0.19376617,0.99177393,0.03618581,0.11809795,0.03358471
1755651363629,-0.44295612,0.76846955,0.56112228,-0.00340417,1.30860344,-0.16462673,0.99090534,0.03616675,0.12542613,0.03266280
1755651363640,-0.36302574,0.39201078,0.02470856,0.03612538,1.34477409,-0.12154953,0.98993783,0.03636905,0.13295686,0.03198212
1755651363651,-1.19147782,0.40952407,-0.19829168,0.08698151,1.34415314,-0.10469178,0.98890799,0.03685180,0.14041691,0.03140108
1755651363663,-0.05458827,0.33111266,0.17751464,0.15420156,1.34329379,-0.10707033,0.98779693,0.03771533,0.14793936,0.03080149
1755651363674,-0.52543754,0.05001349,0.12856046,0.17721897,1.33481597,-0.10309132,0.98663859,0.03869889,0.15534759,0.03022933
1755651363685,0.04178024,-0.44537904,0.27932828,0.18165347,1.31238912,-0.07811145,0.98542619,0.03971615,0.16269697,0.02979191
1755651363696,-0.22427768,-0.80492880,0.08172831,0.19358775,1.29446012,-0.06695699,0.98416887,0.04080024,0.16994594,0.02941695
1755651363707,-0.58407673,-0.47562706,0.37294800,0.14827573,1.28604450,-0.04673229,0.98288289,0.04162317,0.17708349,0.02915759
1755651363718,0.49713345,-0.81536529,0.85440584,0.17001061,1.29134129,-0.04356152,0.98151889,0.04257523,0.18431500,0.02891364
1755651363730,0.04561580,-0.66142909,0.59490605,0.12432033,1.27961892,-0.02550123,0.98011984,0.04327143,0.19148087,0.02877084
1755651363741,-0.16062715,-0.53348877,0.13792476,0.05533921,1.27540865,-0.02715994,0.97870116,0.04357856,0.19855939,0.02862010
1755651363752,0.22191470,-0.51426078,-0.82663226,0.01812325,1.23811238,-0.00766663,0.97726563,0.04368005,0.20549281,0.02857716
1755651363763,-0.38258874,-0.69632309,-0.17408617,0.04771786,1.25243014,-0.01510192,0.97576873,0.04394488,0.21244380,0.02849335
1755651363774,0.53586017,0.20338245,0.37259237,0.00496215,1.22307416,0.01433516,0.97423490,0.04397292,0.21935417,0.02857434
1755651363785,-1.12541558,-0.16905741,0.25277587,-0.02932545,1.27729372,0.00906803,0.97264712,0.04381310,0.22631542,0.02862376
1755651363796,0.55936897,-0.32560108,0.07709000,-0.01659381,1.26292795,-0.01105532,0.97098038,0.04372017,0.23338782,0.02856185
1755651363808,0.27162282,0.03627222,0.21003964,-0.04583916,1.27598374,-0.04512729,0.96923829,0.04346118,0.24059713,0.02830688
1755651363819,-0.81622064,0.11535097,1.41276744,-0.07950086,1.31263223,-0.05748483,0.96746287,0.04302790,0.24775097,0.02799359
1755651363830,1.07860596,0.08711877,-0.24992632,-0.06876750,1.25061119,-0.05739714,0.96565244,0.04263936,0.25481693,0.02766930
1755651363841,-0.50918313,0.09863342,0.40065411,-0.06853258,1.30434959,-0.09993030,0.96376304,0.04226244,0.26199085,0.02711968
1755651363852,0.73175123,0.03117204,-0.53916012,-0.07208227,1.29724096,-0.09069514,0.96180849,0.04186238,0.26919054,0.02661632
1755651363863,0.36688995,-0.09022539,0.08545234,-0.05088853,1.27566021,-0.07051607,0.95978554,0.04157486,0.27639802,0.02621791
1755651363874,0.07030753,0.16176200,0.43054116,-0.06991538,1.32143524,-0.07735342,0.95765221,0.04118333,0.28379805,0.02578473
1755651363885,-0.21153667,0.09750848,0.45533867,-0.07147542,1.36046541,-0.09131667,0.95543318,0.04079022,0.29128061,0.02528249
1755651363897,1.20093211,-0.01517676,-0.04876577,-0.03096299,1.29000315,-0.14776593,0.95318999,0.04061373,0.29863363,0.02444022
1755651363908,-0.25940163,-0.10003244,0.07418389,0.00769141,1.32324705,-0.12748940,0.95089521,0.04065603,0.30591149,0.02373903
1755651363919,0.39575162,0.35814450,0.52551474,0.06276767,1.27814089,0.02991633,0.94854342,0.04100753,0.31306908,0.02390656
1755651363930,-0.62163760,0.26020060,0.76478011,0.11919790,1.32028455,0.09182539,0.94605154,0.04166908,0.32039666,0.02441619
1755651363941,-0.13033052,0.33827444,0.98083390,0.09789181,1.38912551,-0.01952832,0.94340842,0.04220748,0.32803685,0.02430879
1755651363952,1.69268378,0.32849820,-0.70495947,0.00413451,1.35315694,-0.20512670,0.94079117,0.04223043,0.33554687,0.02317033
1755651363963,1.56979856,1.10828425,-0.97114473,-0.08432038,1.28314533,-0.14232328,0.93830699,0.04177088,0.34254001,0.02239467
1755651363974,1.21207459,1.20182677,-0.96399652,-0.01481129,1.15225269,-0.00224398,0.93595163,0.04168868,0.34893501,0.02238222
1755651363986,0.50803769,0.89743457,-0.64454275,0.14985142,1.15645419,-0.01368712,0.93345329,0.04253534,0.35546898,0.02230488
1755651363997,-0.90807338,0.14487253,-0.05207534,0.25586963,1.21400640,-0.08908215,0.93080531,0.04395542,0.36220672,0.02181048
1755651364008,1.02039667,0.04588549,-0.28282138,0.20802262,1.26246746,-0.07340662,0.92797687,0.04512035,0.36927653,0.02139940
1755651364019,0.61327538,0.06158065,0.61432930,0.13289145,1.25197644,-0.01187833,0.92514684,0.04585789,0.37622500,0.02133348
1755651364030,0.20646612,0.11302294,-0.25352499,0.05155325,1.24463150,-0.05030396,0.92232564,0.04614144,0.38307048,0.02105681
1755651364041,0.91331816,0.23755637,-0.63164059,-0.00984136,1.19422358,-0.04801718,0.91952842,0.04608632,0.38975813,0.02078791
1755651364052,0.25388472,0.30201846,-1.51090503,-0.01523499,1.17309052,-0.05773692,0.91670244,0.04600025,0.39638609,0.02046170
1755651364063,-0.12101822,0.52896456,-0.85128882,0.02445515,1.24242116,-0.05902424,0.91369037,0.04613597,0.40328153,0.02013411
1755651364075,-0.05385764,0.87366004,-0.30132942,-0.01681104,1.25973053,-0.07585924,0.91061461,0.04604351,0.41021004,0.01971688
1755651364087,2.45167125,-0.51703020,-0.49625744,0.03130822,1.12162750,-0.06279909,0.90742261,0.04623919,0.41722022,0.01932439
1755651364097,-5.37585853,0.49080512,-0.56416730,0.05307087,1.42671931,-0.09585169,0.90413861,0.04650189,0.42428248,0.01884992
1755651364108,2.62317727,-0.90657499,-0.04034304,-0.01188985,1.28190541,-0.07848459,0.90077811,0.04643590,0.43139705,0.01841434
1755651364119,0.60980310,0.06409157,0.24414042,-0.05846814,1.31437619,-0.01718297,0.89723479,0.04610848,0.43875756,0.01831811
1755651364130,-0.13927239,-0.29590848,-0.25601517,-0.09597003,1.34847642,-0.01998653,0.89356576,0.04557585,0.44624160,0.01820719
1755651364142,0.00193506,-0.43345314,-0.28445362,-0.10637890,1.34942037,-0.10812595,0.88982840,0.04498544,0.45373089,0.01760709
1755651364153,0.87612195,-0.13185817,-1.05002082,-0.11570408,1.33590603,-0.12618854,0.88598600,0.04433171,0.46127875,0.01689412
1755651364165,1.02492725,-0.43876764,-0.48357376,-0.04890917,1.26816547,-0.09404953,0.88204157,0.04404070,0.46882434,0.01633453
1755651364175,-3.25527682,-0.09963293,-0.53342779,-0.05600208,1.46308701,-0.11293921,0.87802019,0.04375229,0.47635924,0.01575289
1755651364186,2.23887849,-0.43765130,-0.08935211,-0.06357140,1.35877411,-0.09891687,0.87383925,0.04339312,0.48403631,0.01519401
1755651364197,0.02509542,-0.47352043,-0.53776856,-0.06318130,1.36386224,-0.11755003,0.86959362,0.04303930,0.49167394,0.01453573
1755651364209,0.49793207,-0.11679893,-0.61237696,-0.09270774,1.35808354,-0.11220043,0.86532430,0.04252477,0.49921130,0.01391302
1755651364220,0.49675674,-0.52001412,-0.67603505,-0.08127257,1.32447179,-0.12589634,0.86103624,0.04206965,0.50662835,0.01320800
1755651364231,-0.10847764,-0.17623658,-0.27188022,-0.06899137,1.29989236,-0.12099541,0.85681797,0.04169019,0.51377775,0.01254252
1755651364242,0.47317462,-0.17626625,-0.74355509,-0.02950559,1.29688639,-0.10625887,0.85247712,0.04152644,0.52097547,0.01195279
1755651364253,0.09564935,-0.12405648,-0.30181084,-0.01574733,1.27163661,-0.07111384,0.84809392,0.04143825,0.52809664,0.01155455
1755651364264,0.74207219,-0.19436297,-0.48337226,-0.00722831,1.25641424,-0.04948435,0.84355836,0.04139669,0.53532102,0.01127001
1755651364275,-0.65423981,0.09862566,-1.13178439,-0.02171286,1.30888169,-0.08686062,0.83904323,0.04127944,0.54238898,0.01080097
1755651364287,0.96750548,0.08070758,-0.58286855,0.00106469,1.23394539,-0.10870452,0.83454308,0.04128540,0.54929907,0.01019222
1755651364298,0.16345661,-0.07127469,-0.66903173,0.04709142,1.20234156,-0.08031407,0.83006443,0.04154911,0.55603219,0.00974246
1755651364309,0.27250639,0.00655176,-0.40710913,0.09643638,1.22187182,-0.03618814,0.82537292,0.04209398,0.56293576,0.00953800
1755651364320,0.20544921,-0.31437601,-0.09547022,0.09303938,1.32043761,-0.02459493,0.82039384,0.04260104,0.57013215,0.00940396
1755651364332,1.26398034,-0.58812859,0.54452268,0.07337864,1.27537619,-0.05792206,0.81513951,0.04303031,0.57759310,0.00906511
1755651364342,-0.44908466,-0.41603173,-1.34580310,-0.01065721,1.43376125,-0.03019962,0.80970626,0.04297383,0.58519203,0.00890505
1755651364353,0.77406411,0.14107681,-0.18580075,-0.05569850,1.32992025,-0.04292956,0.80424167,0.04265913,0.59270608,0.00866250
1755651364365,0.20557386,-0.05080897,-1.00453997,0.01213613,1.33873217,-0.00151899,0.79865880,0.04272709,0.60020298,0.00865400
1755651364376,0.22905917,0.04494099,-0.40488232,0.05370415,1.37691179,0.00667221,0.79289462,0.04302246,0.60777600,0.00869069
1755651364387,0.64553268,-0.43519892,0.33873187,0.02883488,1.38571146,-0.03413159,0.78687887,0.04318394,0.61553598,0.00849956
1755651364398,0.62883524,-0.42187142,-0.09052427,-0.03510609,1.38687865,-0.04176595,0.78069936,0.04298559,0.62337185,0.00826358
1755651364409,0.48313725,-0.27760544,-0.28689849,-0.09394920,1.40330601,0.02253086,0.77438688,0.04245948,0.63123036,0.00838975
1755651364421,1.99192213,0.24437170,0.01475763,-0.10260024,1.37883363,0.05674604,0.76777059,0.04185926,0.63929654,0.00872172
1755651364432,-0.45092456,0.78931965,-1.94643209,-0.23599305,1.56321588,0.01905408,0.76105980,0.04064390,0.64734710,0.00881984
1755651364443,0.98229310,-0.14325976,0.71010363,-0.17888858,1.38525509,-0.04930958,0.75438953,0.03963318,0.65517379,0.00854125
1755651364454,-0.06852462,-0.72782178,-0.46806655,-0.18973728,1.37874933,-0.07364241,0.74767421,0.03857065,0.66289479,0.00812885
1755651364466,1.21663178,0.18049020,1.25977475,-0.17616887,1.32788096,0.02487111,0.74064615,0.03752245,0.67079568,0.00827683
1755651364476,-0.55667259,0.70759862,-0.87874321,-0.23912886,1.57552321,0.13180183,0.73319729,0.03627898,0.67898840,0.00896220
1755651364487,1.20852628,0.71066345,1.33630900,-0.20383839,1.53724645,0.00812070,0.72518592,0.03513748,0.68759698,0.00900768
1755651364498,0.61137488,1.04488417,-0.09429955,-0.28071918,1.52801589,-0.14749981,0.71713424,0.03357949,0.69607747,0.00818905
1755651364510,0.69514344,0.44351785,-1.28306864,-0.28402425,1.45647731,-0.17529381,0.70935368,0.03201736,0.70408809,0.00722494
1755651364521,0.88975847,0.74887310,0.24099362,-0.28587801,1.31321566,-0.10641619,0.70192310,0.03038785,0.71157342,0.00661836
1755651364532,0.84537543,0.27158071,-0.07363259,-0.21390018,1.35663445,-0.03083522,0.69439960,0.02922209,0.71896708,0.00645031
1755651364543,0.56478505,0.54173335,1.91573407,-0.20932714,1.32891336,-0.07304934,0.68645388,0.02801846,0.72660833,0.00603028
1755651364554,-0.23265754,0.89736658,0.06780974,-0.19590097,1.40506195,-0.05792835,0.67830270,0.02695080,0.73426592,0.00571457
1755651364565,-0.33059360,0.10704342,0.58466693,-0.11101501,1.36775445,-0.04787877,0.67009417,0.02634022,0.74178857,0.00545124
1755651364576,0.36910365,0.15351172,0.38706451,-0.09246622,1.30127982,-0.10857096,0.66203661,0.02582703,0.74901067,0.00484867
1755651364588,0.31936197,-0.31196053,0.34634789,-0.08246543,1.22854992,-0.13393461,0.65419361,0.02536523,0.75589055,0.00409863
1755651364599,0.71274687,0.07079952,0.77926991,-0.06186158,1.18418254,-0.07378988,0.64646788,0.02501880,0.76252197,0.00368541
1755651364610,0.69183963,0.09978456,0.98644167,-0.05219930,1.17569075,-0.00014811,0.63863231,0.02472649,0.76910584,0.00368458
1755651364621,0.69631999,0.17557206,1.10779697,-0.02093932,1.15860800,0.01610371,0.63066964,0.02460818,0.77565198,0.00377557
1755651364632,0.41504995,0.20394232,0.91601639,0.00289125,1.15815473,0.01569782,0.62260696,0.02462437,0.78213764,0.00386347
1755651364643,0.29288611,-0.00341302,0.86796185,0.01964570,1.16906267,0.01083740,0.61443815,0.02473242,0.78856749,0.00392308
1755651364655,0.00314473,0.39868900,1.13752672,-0.01021553,1.13401821,0.00793688,0.60620193,0.02467521,0.79491799,0.00396753
1755651364666,0.42384680,0.27131898,0.97693837,0.04457196,1.11891605,0.01575715,0.59788513,0.02492482,0.80118392,0.00405577
1755651364677,0.64432317,0.14112388,1.17270618,0.07314380,1.11975781,-0.00425341,0.58937173,0.02533442,0.80745456,0.00403195
1755651364688,0.66523041,-0.20146978,1.26583844,0.05780007,1.11842082,0.01743861,0.58067898,0.02565810,0.81371772,0.00412960
1755651364699,0.81158110,-0.29270138,0.79637583,0.01890739,1.12051506,0.04659647,0.57177712,0.02576398,0.81999260,0.00439054
1755651364711,0.70367026,0.06527367,0.73606522,-0.02871985,1.11899832,0.07433759,0.56276981,0.02560459,0.82620304,0.00480312
1755651364722,0.58099178,0.19498440,0.72890170,-0.03940798,1.06511931,0.04021593,0.55383997,0.02538193,0.83222097,0.00503034
1755651364733,0.44928641,0.32980685,0.59268979,-0.02285778,1.05559130,-0.04076816,0.54502316,0.02525622,0.83802672,0.00480611
1755651364744,0.15492093,-0.52831390,0.44855536,0.02056374,1.01234111,-0.08488150,0.53620414,0.02537137,0.84369583,0.00433078
1755651364755,0.23568163,0.04371514,0.42194615,-0.00984570,1.00165208,-0.04196065,0.52727904,0.02531624,0.84930508,0.00409580
1755651364767,0.31740994,-0.49939797,0.87620348,-0.02472086,0.96808460,-0.06929515,0.51845461,0.02517780,0.85472636,0.00370774
1755651364778,0.57563872,-0.35916725,0.82443709,-0.03202149,0.95109795,-0.07535882,0.50974243,0.02500168,0.85995740,0.00329327
1755651364789,0.36596312,-0.30772522,0.48273265,-0.03395325,0.91391870,-0.05317423,0.50101903,0.02481154,0.86507534,0.00299549
1755651364800,0.23069518,-0.60590826,0.76502175,-0.01521487,0.87570097,-0.06927334,0.49238375,0.02472558,0.87002305,0.00260410
1755651364811,0.79933335,-0.25780804,0.37502464,-0.03024350,0.87598669,-0.07159604,0.48370309,0.02455773,0.87488478,0.00220674
1755651364822,0.55616801,-0.00012870,0.24166708,-0.02585757,0.84628263,-0.08245851,0.47519614,0.02441551,0.87953933,0.00175322
1755651364833,0.29833327,-0.08888516,0.20944371,0.00697116,0.80251135,-0.07420509,0.46685768,0.02445420,0.88399327,0.00134138
1755651364844,0.18964363,-0.73900711,0.26611338,0.01457169,0.76234591,-0.11436770,0.45860621,0.02453653,0.88830052,0.00069520
1755651364856,0.51323578,-0.52723499,1.15716508,-0.01512769,0.74055771,-0.07332022,0.45056107,0.02445257,0.89241062,0.00028828
1755651364867,-0.01308699,-0.98983411,0.42986899,-0.02277540,0.71400070,-0.09701492,0.44248745,0.02432389,0.89644472,-0.00025986
1755651364878,0.71393051,-0.12538641,0.44782169,-0.04789639,0.70650965,-0.09532481,0.43454047,0.02406046,0.90033053,-0.00078414
1755651364889,0.04255444,0.12252436,0.14849071,-0.05101251,0.64181318,-0.10007964,0.42696044,0.02377224,0.90395677,-0.00134959
1755651364900,0.21068165,0.46827992,0.63545272,-0.03752516,0.60690603,-0.13640275,0.41976358,0.02356398,0.90732510,-0.00210663
1755651364911,0.31707488,0.09665618,0.69585350,0.00018720,0.58539225,-0.17219571,0.41272704,0.02356501,0.91054476,-0.00305371
1755651364922,0.76831521,0.26656733,0.30462369,0.05125782,0.54498601,-0.17740696,0.40590123,0.02385205,0.91359668,-0.00404718
1755651364934,0.85334360,-0.11996932,0.94971643,0.02442346,0.54363722,-0.15868489,0.39902297,0.02398760,0.91661386,-0.00492789
1755651364945,0.36609934,-0.46798191,0.33341551,0.02249550,0.52840419,-0.11621433,0.39207695,0.02411470,0.91959935,-0.00558450
1755651364956,0.35104991,-0.05373985,0.81499556,0.03955356,0.52623967,-0.08129235,0.38507092,0.02433620,0.92254629,-0.00603973
1755651364967,0.67434801,0.34850660,1.25194337,0.05774606,0.52393846,-0.11569246,0.37812621,0.02465092,0.92540175,-0.00667026
1755651364978,-0.13392214,0.17688411,0.13930095,0.07090348,0.49033473,-0.13739931,0.37123232,0.02505152,0.92817215,-0.00744656
1755651364989,0.54700274,0.15614833,0.90282952,0.09287438,0.48643352,-0.16076585,0.36429210,0.02557162,0.93089617,-0.00834685
1755651365001,0.00578747,0.04845692,0.05261338,0.08881935,0.46389559,-0.15492214,0.35709760,0.02610009,0.93365635,-0.00926864
1755651365013,1.19941172,0.23485511,1.61710800,0.07473598,0.49699034,-0.14302610,0.34961343,0.02652235,0.93646435,-0.01007674
1755651365024,0.62920231,0.23169759,1.32233005,0.05792180,0.50569140,-0.12453546,0.34195551,0.02684382,0.93927094,-0.01076791
1755651365035,0.66798385,0.12821811,0.77699498,0.02545157,0.52904043,-0.13583465,0.33381865,0.02698380,0.94218066,-0.01151500
1755651365046,0.04152762,-0.36444240,0.08865897,0.01853910,0.50769688,-0.14194278,0.32549717,0.02708947,0.94507453,-0.01232407
1755651365057,1.58648431,-0.43558836,1.39379978,-0.01844552,0.51272726,-0.14640003,0.31716751,0.02698802,0.94789453,-0.01312927
1755651365068,0.20587265,-0.37619740,0.19588071,-0.02887835,0.49823611,-0.12471623,0.30876415,0.02682775,0.95065974,-0.01382145
1755651365080,0.51135149,-0.37729814,-0.01002551,-0.00674417,0.47203628,-0.09077596,0.30040799,0.02678964,0.95332675,-0.01433433
1755651365090,1.26494544,0.27608289,1.18994812,-0.01029208,0.47517939,-0.01358186,0.29198630,0.02673304,0.95594023,-0.01440903
1755651365102,-0.51908423,0.34617696,-0.60200627,-0.02182979,0.44014505,-0.01648363,0.28350087,0.02660642,0.95849307,-0.01450464
1755651365113,1.88955267,-0.21281080,2.39887480,-0.02444305,0.45095120,-0.13293980,0.27510790,0.02647443,0.96092821,-0.01522251
1755651365124,0.04724768,1.43465788,0.34986935,-0.00412799,0.42045118,-0.11099996,0.26678892,0.02645152,0.96326171,-0.01583856
1755651365135,0.38120656,0.26558680,0.58245266,0.01454964,0.39796591,-0.13737012,0.25862580,0.02653227,0.96547042,-0.01660097
1755651365146,0.18538784,0.00501696,-0.14341862,0.01177437,0.36661628,-0.12315122,0.25071135,0.02659880,0.96754181,-0.01729677
1755651365157,0.88684658,-1.36462832,0.20047680,0.02573406,0.36183719,-0.12828567,0.24290765,0.02673905,0.96951382,-0.01799593
1755651365169,-0.40546649,-0.53590696,-1.25953275,0.04066741,0.33755143,-0.06946254,0.23510810,0.02696882,0.97142098,-0.01838839
1755651365180,1.20116023,-0.44219820,0.94976839,0.03567045,0.32878317,-0.04587396,0.22746281,0.02716501,0.97322929,-0.01864070
1755651365191,0.24689590,0.07742873,-0.23037753,0.01497735,0.30783344,-0.00302757,0.22001315,0.02724813,0.97493777,-0.01865750
1755651365202,-0.53224444,-0.37793155,-0.92469979,0.04549727,0.28143042,0.00142654,0.21268242,0.02750974,0.97655599,-0.01864930
1755651365213,1.65964826,0.01618358,1.50166947,0.04669304,0.28366279,0.01816384,0.20549803,0.02776188,0.97808777,-0.01855121
1755651365224,-0.57787052,0.50626146,-0.62207842,0.03836430,0.25829361,0.04535872,0.19848233,0.02797672,0.97953422,-0.01829720
1755651365236,0.00411777,-0.49428667,-0.55343169,0.05384281,0.23899589,0.06520767,0.19168793,0.02828093,0.98088454,-0.01792878
1755651365247,0.32824075,-0.90364243,-0.56202323,0.07224312,0.22939487,0.09178306,0.18504107,0.02868188,0.98215768,-0.01741939
1755651365258,0.07752021,-1.10357128,-0.97502921,0.04094925,0.22023019,0.07584537,0.17849597,0.02890710,0.98336895,-0.01700224
1755651365269,-0.67739462,0.34179884,-1.06879201,0.01116318,0.20567030,0.08175283,0.17206402,0.02896962,0.98452070,-0.01654442
1755651365280,-0.52750808,0.41929157,-0.39143827,0.01096157,0.18320146,0.05200588,0.16605080,0.02903155,0.98555579,-0.01625059
1755651365291,-0.19003219,0.73113952,-0.41664785,0.00946635,0.17270957,-0.00713082,0.16019096,0.02908456,0.98652297,-0.01629052
1755651365302,0.12068709,-0.06655383,0.09588114,0.01911343,0.16252435,-0.08750472,0.15451419,0.02918969,0.98741685,-0.01677180
1755651365314,-0.63931234,0.18890816,-0.63775726,0.00300511,0.15068734,-0.10458194,0.14895130,0.02920652,0.98826070,-0.01735745
1755651365325,-0.10766836,0.30173532,-0.08166610,0.02228171,0.14722061,-0.05855228,0.14341186,0.02932906,0.98907041,-0.01767949
1755651365336,-0.72484197,-0.14904617,-1.00506812,0.04544189,0.13683954,-0.02842001,0.13794882,0.02958354,0.98983671,-0.01783864
1755651365347,-0.16297686,-0.47624904,-0.52792547,0.03339934,0.13090148,-0.03266352,0.13256548,0.02976891,0.99056322,-0.01801993
1755651365358,-0.72228441,-0.01409655,-0.95550032,0.04268323,0.12342855,-0.00306085,0.12723549,0.03000793,0.99125442,-0.01803707
1755651365369,-0.52706160,0.45590069,-0.40010793,0.02651331,0.12015285,0.00246358,0.12189353,0.03015508,0.99192127,-0.01802339
1755651365380,-0.75497476,0.20782328,-0.62127886,0.01892835,0.11035880,-0.02051447,0.11666195,0.03026203,0.99254479,-0.01813930
1755651365391,-0.03196236,0.39530962,-0.22408522,-0.01516078,0.11359370,-0.00395588,0.11123693,0.03017864,0.99316956,-0.01816106
1755651365403,-0.76575796,-0.33653747,-0.62300124,-0.01443937,0.10653939,-0.01815729,0.10577986,0.03009778,0.99376618,-0.01826274
1755651365414,-0.53243485,0.48463717,-0.24291897,-0.05194863,0.10482815,-0.02445698,0.10022473,0.02980947,0.99434797,-0.01839848
1755651365425,-0.76434818,0.30815809,-0.40829738,-0.07505412,0.09985870,-0.04627682,0.09464496,0.02939292,0.99490219,-0.01865531
1755651365436,-0.81882415,0.04677161,-0.70786680,-0.10786568,0.09382193,-0.08407828,0.08904661,0.02878887,0.99542759,-0.01912615
1755651365447,-0.37633034,-0.66142909,-0.41434351,-0.11363321,0.08646541,-0.12274081,0.08351376,0.02815252,0.99591180,-0.01981350
1755651365458,-0.25537811,-0.03643483,-0.51561185,-0.10904368,0.08461682,-0.08913397,0.07785303,0.02755278,0.99637719,-0.02030374
1755651365470,-0.84406142,-0.25861963,-0.57386535,-0.08661955,0.07708773,-0.10931611,0.07207105,0.02706338,0.99681274,-0.02092137
1755651365481,-0.46784362,0.11216347,-0.50278131,-0.08266473,0.07306965,-0.08613450,0.06609252,0.02659219,0.99722923,-0.02141234
1755651365493,-1.59391437,0.35764125,-1.19665046,-0.04249833,0.06298318,-0.01810850,0.05993458,0.02632658,0.99762288,-0.02152552
1755651365503,4.04508581,0.35463819,3.71525006,-0.07193648,0.07725545,-0.01498571,0.05368610,0.02598848,0.99798598,-0.02159595
1755651365514,-3.05803086,1.21348765,-1.79484926,-0.07286165,0.05884777,-0.03455590,0.04735748,0.02558409,0.99831259,-0.02178773
1755651365525,-0.75660794,1.00284416,0.14706446,-0.09543012,0.05257658,-0.06863814,0.04086693,0.02505446,0.99860439,-0.02216868
1755651365536,-0.65309017,0.67618060,-0.25347248,-0.08984045,0.04427396,-0.05105937,0.03445382,0.02455135,0.99885232,-0.02245461
1755651365547,-0.50593146,-0.27494247,-0.42925476,-0.09503296,0.03738968,-0.07769823,0.02790236,0.02402392,0.99905983,-0.02288583
1755651365559,-0.68782402,-0.44815797,-0.76057626,-0.07094050,0.02992564,-0.03856625,0.02120726,0.02362310,0.99922891,-0.02310373
1755651365570,-0.20152009,-0.10396659,0.01767240,-0.04718937,0.02318427,0.00576616,0.01436549,0.02336120,0.99935758,-0.02307173
1755651365581,-0.61959749,-0.35119799,-0.28253029,-0.03202996,0.01432137,0.00024958,0.00738088,0.02318183,0.99943778,-0.02307033
1755651365592,-0.29721395,0.50393897,-0.16030624,-0.03377225,0.00710399,0.06018083,0.00034070,0.02299609,0.99947686,-0.02273934
1755651365603,-0.96632925,-0.05398734,-0.34623083,-0.02295236,-0.00329573,0.02146922,-0.00695391,0.02286755,0.99945840,-0.02261911
1755651365615,-0.72595940,0.14623889,0.08134028,0.01403757,-0.01358204,-0.01358742,-0.01422668,0.02295108,0.99937759,-0.02269996
1755651365625,0.81294577,0.64409905,2.02659503,-8.90453588,-388.08115583,8.87147378,0.02157533,-0.02290728,-0.99924037,0.02298813
1755651365636,-0.98363681,-0.31389464,-0.79266678,0.01492368,0.03520618,0.07560060,0.02904554,-0.02282371,-0.99904321,0.02341150
1755651365648,-0.98022816,-0.68987433,-0.60104304,-0.04510147,0.04807197,0.08273152,0.03665326,-0.02307402,-0.99877641,0.02387066
1755651365659,-0.96909602,-0.25140915,-0.68916843,-0.06422689,0.05954979,0.05627610,0.04447044,-0.02343369,-0.99844293,0.02418580
1755651365670,-0.58376574,-0.31523315,0.06841815,-0.07337593,0.07308304,0.06818644,0.05243771,-0.02384093,-0.99803732,0.02456424
1755651365681,-0.58274869,-0.19648269,0.14696712,-0.08130279,0.08376346,0.05624506,0.06040126,-0.02429623,-0.99756825,0.02487921
1755651365692,-0.64432317,-0.08362897,-0.13114542,-0.06955177,0.09719944,0.05580766,0.06855127,-0.02468572,-0.99702393,0.02519173
1755651365703,-0.64622383,-0.25278756,0.13114542,-0.06328220,0.11217270,0.06148005,0.07691808,-0.02504010,-0.99639576,0.02553602
1755651365715,-0.54263449,-0.31970644,0.32261806,-0.07018333,0.13042685,0.08460626,0.08545138,-0.02542610,-0.99567841,0.02600136
1755651365726,-0.60935106,0.31874904,-0.11538724,-0.07521113,0.14544086,0.06038546,0.09425432,-0.02584729,-0.99486395,0.02633951
1755651365737,-0.36487950,0.08639087,0.06639670,-0.06301513,0.16470303,0.04865503,0.10329257,-0.02619702,-0.99394984,0.02660955
1755651365748,-0.61531673,-0.46765184,0.19458631,-0.05428240,0.18499504,0.09067078,0.11262501,-0.02650100,-0.99291387,0.02711731
1755651365759,-0.76077177,-0.26926255,0.03586770,-0.05293958,0.20811802,0.10608353,0.12218372,-0.02679482,-0.99175882,0.02770607
1755651365770,-0.53407619,-0.25155763,0.09094776,-0.06092596,0.22992766,0.12189591,0.13191746,-0.02713296,-0.99048272,0.02838259
1755651365782,-0.75366269,-0.28119790,-0.04901735,-0.07357609,0.24793539,0.13233693,0.14180806,-0.02754866,-0.98908188,0.02913030
1755651365793,-0.74648776,-0.08250203,0.03401001,-0.05918102,0.27500740,0.11118927,0.15198215,-0.02788007,-0.98754184,0.02975296
1755651365804,-0.60230429,-0.67687316,0.14716812,-0.07828007,0.29830231,0.08901607,0.16220876,-0.02831453,-0.98588626,0.03024700
1755651365815,-0.53214114,-0.03483106,0.08707764,-0.06641149,0.32067046,0.03889319,0.17257927,-0.02868311,-0.98410654,0.03046285
1755651365826,-0.80885452,-0.24284986,-0.10062305,-0.05118843,0.34207674,-0.00002108,0.18303097,-0.02896721,-0.98220802,0.03046274
1755651365837,-0.60382716,-0.00762404,0.07474211,-0.01820088,0.35999537,-0.00191215,0.19352317,-0.02906913,-0.98019204,0.03045203
1755651365848,-0.91555919,-0.20855008,-0.14507757,-0.00587896,0.38421010,0.01614719,0.20400874,-0.02910176,-0.97805968,0.03054164
1755651365859,-0.83788041,0.07788611,-0.20124610,-0.03009589,0.40833272,0.00950742,0.21455652,-0.02926879,-0.97579343,0.03059441
1755651365871,-0.48598634,0.52673492,-0.21746271,-0.07902597,0.43357890,-0.02607105,0.22527750,-0.02971134,-0.97336539,0.03044841
1755651365882,-0.15395332,0.31408379,0.14064872,-0.09386979,0.46426006,-0.00252652,0.23616469,-0.03023701,-0.97076553,0.03043426
1755651365893,-0.40319340,0.22094886,-0.02737451,-0.06170381,0.50273446,0.01464280,0.24720230,-0.03057638,-0.96800049,0.03051480
1755651365904,-0.42319021,0.67345508,-0.29812690,-0.04696397,0.52109136,-0.03410551,0.25835131,-0.03083938,-0.96508238,0.03032381
1755651365915,-0.52471189,0.79434159,0.26031722,-0.05484733,0.54710428,-0.08710185,0.26945724,-0.03114378,-0.96204595,0.02984039
1755651365926,-0.27864845,0.87609781,-0.09675293,-0.05847296,0.56407990,-0.13530932,0.28043713,-0.03146831,-0.95891531,0.02908943
1755651365937,0.03323894,0.63753667,-0.52761771,-0.06407628,0.57998516,-0.14801726,0.29145129,-0.03183034,-0.95563839,0.02825313
1755651365949,-0.28841229,-0.40902419,-0.61051500,-0.06104850,0.61328264,-0.09203776,0.30249478,-0.03217221,-0.95220401,0.02773772
1755651365960,-0.65653074,0.10542528,-0.48897624,-0.07620850,0.65454040,-0.10967294,0.31361107,-0.03259136,-0.94860404,0.02713452
1755651365971,0.04668769,-0.14099541,-0.34959474,-0.08141186,0.66447869,-0.09881642,0.32455314,-0.03304319,-0.94491618,0.02658609
1755651365982,-0.24155484,0.27710228,-0.42011398,-0.08296838,0.67899852,-0.09460013,0.33541486,-0.03350781,-0.94111379,0.02605632
1755651365993,-0.25238732,-0.16843414,0.08103276,-0.09119435,0.70299690,-0.01915340,0.34603092,-0.03400938,-0.93724731,0.02595098
1755651366004,-0.03803929,0.44775518,-0.59060196,-0.05509254,0.69567357,-0.00469404,0.35646859,-0.03432066,-0.93331675,0.02592446
1755651366016,0.53144425,0.28529638,0.00691301,-0.04561218,0.69827442,0.02621995,0.36650853,-0.03457608,-0.92940641,0.02607129
1755651366027,0.45615799,-0.41434351,0.09313226,-0.04562007,0.70678748,0.09225903,0.37633110,-0.03483156,-0.92544840,0.02658794
1755651366038,-0.11368470,-0.25930218,-0.53773898,-0.03352882,0.71616198,0.08290702,0.38591240,-0.03501764,-0.92147370,0.02704808
1755651366049,-0.43091862,-0.76081554,-0.65117239,-0.02834507,0.71162268,0.07107429,0.39525178,-0.03517637,-0.91748862,0.02744609
1755651366060,-0.46424066,-0.65184224,-0.60079652,0.02000815,0.70483648,0.03522124,0.40412804,-0.03506633,-0.91361202,0.02763981
1755651366071,0.06631570,-1.12028257,-0.34315522,0.06214165,0.66822687,0.02198209,0.41250520,-0.03471834,-0.90986995,0.02776291
1755651366082,-0.20924550,-0.45000481,-0.21641558,0.06206476,0.64235033,-0.03169975,0.42031990,-0.03437388,-0.90630490,0.02758697
1755651366093,0.00580518,-0.08223999,-0.39281691,0.02509816,0.62362857,-0.07226600,0.42774064,-0.03423458,-0.90284376,0.02718590
1755651366105,0.47082892,-0.01528638,-0.54455679,-0.04348689,0.60294535,-0.05626994,0.43485870,-0.03448028,-0.89943712,0.02686797
1755651366116,0.71614503,-0.09125313,-0.54337744,-0.04508744,0.61762116,-0.02283741,0.44180396,-0.03472826,-0.89604021,0.02674237
1755651366127,0.68026108,0.35658294,-0.75900038,-0.06229099,0.61061632,-0.03216978,0.44859543,-0.03507398,-0.89265129,0.02656383
1755651366138,0.56521469,0.32950737,-0.72548642,-0.02236127,0.58673244,-0.05890174,0.45508423,-0.03519920,-0.88936558,0.02623398
1755651366149,0.12645056,0.25499336,-0.12004885,0.00323907,0.57412296,-0.10687535,0.46140392,-0.03518090,-0.88612179,0.02563013
1755651366160,0.52733524,0.98308212,-0.50407404,0.04627734,0.56375129,-0.17983294,0.46738272,-0.03492638,-0.88302116,0.02464105
1755651366171,0.69602301,0.62032704,-0.25233165,0.06851120,0.56261841,-0.14297090,0.47330357,-0.03454614,-0.87989862,0.02384756
1755651366183,1.20587353,1.16450424,-0.67136046,0.10259187,0.54767515,-0.12038674,0.47903569,-0.03397162,-0.87683164,0.02317339
1755651366194,0.87699623,0.66040788,-0.39461375,0.08351374,0.56699856,-0.06649884,0.48480103,-0.03350812,-0.87368480,0.02280433
1755651366205,0.86613513,0.68070108,-0.75310589,0.07681676,0.57902111,-0.04376726,0.49063954,-0.03307795,-0.87044228,0.02255923
1755651366216,1.44039202,-0.08890040,-0.62561138,0.05645899,0.59742576,0.02196679,0.49649125,-0.03276460,-0.86712657,0.02268114
1755651366227,0.70242630,-0.25736280,-0.57084231,0.04377548,0.62200884,0.03205057,0.50248015,-0.03252165,-0.86367442,0.02285903
1755651366238,0.51592689,-0.23459442,-0.62037051,0.01170798,0.61872159,0.00817082,0.50844340,-0.03245550,-0.86017864,0.02290519
1755651366250,0.23337729,-0.50256434,-0.57934757,0.03637990,0.62480365,0.01224418,0.51432659,-0.03225177,-0.85667974,0.02297376
1755651366261,-0.05688697,0.07659584,-0.27413249,0.04048095,0.64120828,-0.00847206,0.52011866,-0.03203115,-0.85318516,0.02292759
1755651366272,0.64970039,0.02390419,0.00885866,0.03237153,0.62272750,0.03082541,0.52574949,-0.03185149,-0.84972902,0.02309867
1755651366283,0.74886771,0.10739576,-0.53988137,-0.00416752,0.61527173,0.07789540,0.53120850,-0.03187462,-0.84631426,0.02353099
1755651366294,0.50742759,-0.02211381,-0.19119023,-0.01787753,0.62407682,0.08990585,0.53680537,-0.03197652,-0.84275703,0.02404345
1755651366305,0.65071645,0.07894569,-0.68708245,-0.00501123,0.65920708,0.09817308,0.54242964,-0.03200408,-0.83913139,0.02458340
1755651366316,0.37038647,-0.19792765,-0.27998425,0.03416251,0.66413289,0.10885316,0.54812375,-0.03181277,-0.83541224,0.02519298
1755651366327,0.51144292,-0.49921922,-0.41344602,0.05216896,0.66650568,0.12491375,0.55370520,-0.03152323,-0.83171314,0.02588625
1755651366339,0.30186915,-0.23220704,-0.22059669,0.05375310,0.66296407,0.09609210,0.55918443,-0.03122490,-0.82803369,0.02641956
1755651366350,0.44458282,-0.06292720,-0.09766987,0.05977290,0.64856373,0.08346897,0.56452164,-0.03089017,-0.82440173,0.02688699
1755651366361,0.48604527,-0.25192045,0.20304294,0.09800714,0.65192399,0.11143960,0.56976918,-0.03034623,-0.82078355,0.02750548
1755651366372,0.50473608,0.20833184,-0.05678003,0.12407363,0.64232054,0.11684745,0.57492082,-0.02965142,-0.81718656,0.02815982
1755651366383,0.73935609,0.17391024,0.17295991,0.15210235,0.62850497,0.14461361,0.57989436,-0.02879965,-0.81366693,0.02896966
1755651366394,0.78231658,0.14790673,-0.17527831,0.19434300,0.61773831,0.15353384,0.58468437,-0.02772105,-0.81023848,0.02982177
1755651366405,0.52398478,0.06674513,-0.01851467,0.20461621,0.60729680,0.14268225,0.58929701,-0.02659566,-0.80689835,0.03060652
1755651366417,0.52516917,-0.55045657,0.17289079,0.22802466,0.57842924,0.16904282,0.59371318,-0.02531872,-0.80365914,0.03155316
1755651366428,0.71367383,-0.06512250,-0.18512637,0.19908492,0.55876046,0.14068165,0.59789218,-0.02421380,-0.80055802,0.03233395
1755651366439,0.61147854,-0.34105409,0.10642823,0.18806040,0.54820336,0.13924461,0.60194362,-0.02317006,-0.79751549,0.03310676
1755651366450,0.71468177,-0.12203168,0.22244551,0.14490842,0.52507349,0.13406793,0.60580871,-0.02235857,-0.79457508,0.03385754
1755651366461,0.72942887,0.20607608,-0.01308684,0.13204825,0.50731571,0.12388538,0.60953748,-0.02161250,-0.79170875,0.03455749
1755651366472,1.38792988,-0.20428094,-0.38060136,0.16649556,0.50238083,0.15937271,0.61309121,-0.02069678,-0.78894565,0.03543404
1755651366483,0.48580827,-0.54326862,0.12471774,0.17856416,0.48260185,0.16162299,0.61653330,-0.01969682,-0.78624308,0.03633913
1755651366495,0.78850185,-0.25617499,-0.37196320,0.16863926,0.46416589,0.12436635,0.61979266,-0.01876087,-0.78366696,0.03702936
1755651366506,0.37603926,-0.07302552,-0.26237646,0.09576215,0.43394330,0.06880347,0.62284584,-0.01822460,-0.78123688,0.03741466
1755651366517,0.26229085,-0.24328426,-0.74885938,0.08213316,0.42171313,0.05459279,0.62579140,-0.01776466,-0.77887529,0.03772038
1755651366528,0.72594071,-0.41084146,-0.36709100,0.08003319,0.42172193,0.07066040,0.62868215,-0.01732047,-0.77653473,0.03811254
1755651366539,0.67340042,-0.42716420,-0.44312844,0.07667674,0.41807117,0.07975688,0.63152202,-0.01689492,-0.77421444,0.03855519
1755651366550,0.70823147,0.84126676,-0.16447999,0.01641904,0.41880063,0.02947211,0.63435335,-0.01680379,-0.77189009,0.03871876
1755651366561,0.97510621,-0.25079272,-0.35686144,0.05229478,0.41475177,0.10225850,0.63714164,-0.01651094,-0.76956748,0.03929141
1755651366573,0.43905207,0.34496948,-0.67663436,0.08584396,0.43344160,0.07397215,0.64004874,-0.01603021,-0.76714021,0.03970566
1755651366584,0.84486044,-0.21838519,-1.00642056,0.09867709,0.44721828,0.09621800,0.64299221,-0.01548256,-0.76465815,0.04023967
1755651366595,0.24415754,-0.23069454,-0.67134334,0.10097358,0.46303066,0.08310233,0.64604740,-0.01491710,-0.76206518,0.04070504
1755651366606,0.41434351,-0.09883423,-0.78307122,0.09266312,0.48452358,0.03674563,0.64923322,-0.01439819,-0.75935184,0.04091081
1755651366617,0.23106476,0.40374758,-0.91078290,0.08593743,0.49992191,0.01091678,0.65244193,-0.01392553,-0.75660227,0.04097086
1755651366628,0.29277438,0.73833923,-0.24610428,0.08074979,0.49702654,0.03019951,0.65562607,-0.01347737,-0.75384378,0.04113846
1755651366640,0.28357391,0.75805726,-0.39970835,0.07686311,0.48218522,0.08110244,0.65872543,-0.01304310,-0.75111943,0.04159669
1755651366651,1.28451935,0.38448160,-0.81024160,0.12683416,0.51396322,0.12891905,0.66193203,-0.01233917,-0.74826693,0.04231219
1755651366662,0.44119338,0.21575904,-0.62502395,0.08292557,0.54850326,0.13580762,0.66531743,-0.01187893,-0.74522274,0.04306593
