UnixTime(ms),Ax,Ay,Az,Gx,Gy,Gz,QuatW,QuatX,QuatY,QuatZ
1756814180212,0.00000000,0.00000000,0.00000000,0.00000000,0.00000000,0.00000000,0.99609950,0.07586747,-0.00337575,0.04492781
1756814180224,0.21849862,-0.02933666,-0.09747843,-0.01290433,-0.01310309,-0.00165957,0.99610558,0.07579004,-0.00345437,0.04491785
1756814180230,0.55566699,-0.11427250,0.32393636,-0.02430122,-0.02268190,-0.01030719,0.99611206,0.07571957,-0.00352015,0.04488796
1756814180239,0.06866724,0.03486260,-0.06298660,-0.05043750,-0.03834268,-0.01683884,0.99613229,0.07549008,-0.00369461,0.04481134
1756814180272,-0.03126755,-0.00255584,-0.02285598,-0.02755873,-0.02699949,-0.02370297,0.99618211,0.07503812,-0.00413740,0.04442261
1756814180305,0.05619023,-0.03146908,-0.09388140,-0.00600149,-0.02163099,-0.00791093,0.99619386,0.07493879,-0.00449539,0.04429169
1756814180338,0.00768828,-0.01784436,0.14756092,-0.00711131,-0.04160396,-0.01233385,0.99620820,0.07482288,-0.00517354,0.04409065
1756814180348,-0.01089548,-0.11795512,0.02018679,0.00962642,-0.01584199,-0.03215452,0.99621158,0.07487582,-0.00526067,0.04391380
1756814180360,-0.00906544,0.12953897,-0.07473337,0.00857984,-0.01009392,-0.02555983,0.99621399,0.07492430,-0.00531770,0.04376938
1756814180371,-0.06551519,0.04571041,0.04973893,0.01458585,0.01579330,-0.00902663,0.99621056,0.07500525,-0.00523005,0.04371928
1756814180382,-0.12393796,0.13490126,0.11025745,0.01534169,0.00363348,-0.00136164,0.99620453,0.07509116,-0.00520970,0.04371166
1756814180393,-0.07662748,0.28991694,0.02212097,0.02698200,-0.00110460,0.02222185,0.99618808,0.07523821,-0.00521572,0.04383277
1756814180404,0.00121704,-0.02593689,0.03440943,0.01171243,0.01428769,0.00780273,0.99618168,0.07530322,-0.00513642,0.04387607
1756814180416,-0.07074378,-0.02052802,-0.11157282,-0.00996101,0.01849359,-0.00030990,0.99618663,0.07524594,-0.00503008,0.04387429
1756814180426,0.16403653,-0.18402994,-0.02620612,-0.02124300,0.02175159,-0.00441273,0.99619692,0.07513123,-0.00491263,0.04385046
1756814180437,0.08142198,-0.06414722,-0.14732302,-0.00085555,0.00235492,-0.01063109,0.99619996,0.07512644,-0.00489944,0.04379093
1756814180449,-0.01418994,-0.10188645,-0.05699676,0.00370439,-0.00897430,-0.02359048,0.99620391,0.07514700,-0.00494925,0.04366000
1756814180460,0.02998566,0.11852753,0.10584473,-0.01392683,-0.00658498,-0.01725738,0.99621366,0.07507040,-0.00498546,0.04356509
1756814180471,-0.02411059,0.02787437,-0.01340541,-0.01329018,-0.01270684,-0.01225944,0.99622198,0.07499531,-0.00505726,0.04349582
1756814180482,-0.07066601,0.01251197,0.07344552,-0.00933754,-0.02352452,-0.01704009,0.99622940,0.07494302,-0.00518899,0.04340040
1756814180493,-0.08658991,-0.01483519,-0.27171968,-0.00696295,-0.01339953,-0.01175433,0.99623471,0.07490473,-0.00526269,0.04333575
1756814180504,-0.15429080,0.00631429,-0.12466807,-0.01165491,-0.03202419,0.00734476,0.99623686,0.07483946,-0.00544203,0.04337688
1756814180515,0.06153161,0.00003629,-0.04498277,0.00051168,-0.01056161,0.00008253,0.99623631,0.07484227,-0.00550012,0.04337733
1756814180526,0.08511602,-0.09227696,0.34519627,0.01117023,-0.01921250,0.00138016,0.99623067,0.07490483,-0.00560771,0.04338506
1756814180538,-0.05528243,-0.03147965,-0.04502184,0.01742965,-0.01891577,-0.02404317,0.99622858,0.07500243,-0.00571363,0.04325042
1756814180549,0.06742268,0.04563693,-0.01129504,0.00921851,-0.00260770,-0.01662558,0.99622865,0.07505359,-0.00572811,0.04315815
1756814180560,-0.11218264,0.06309531,-0.01326983,0.01251773,-0.00941348,-0.00833265,0.99622495,0.07512620,-0.00578271,0.04310982
1756814180571,-0.00184444,0.03597875,0.08871128,-0.00046706,-0.00492720,0.01996667,0.99622036,0.07512370,-0.00580907,0.04321664
1756814180582,-0.10962459,-0.03641905,0.10611740,-0.00596950,-0.01041110,0.01566331,0.99621876,0.07509087,-0.00586633,0.04330279
1756814180593,0.05631051,-0.15064013,0.05204564,-0.00668502,-0.01869158,0.01391749,0.99621757,0.07505343,-0.00597100,0.04338073
1756814180604,0.09129911,-0.07876509,-0.11225176,-0.00779226,-0.00818428,-0.00866646,0.99622265,0.07501018,-0.00601642,0.04333263
1756814180616,-0.11712285,-0.01221944,-0.09912960,-0.02109469,-0.00047096,-0.02584966,0.99623780,0.07489205,-0.00601906,0.04318787
1756814180627,-0.08999197,0.07086504,-0.18926861,0.00302269,0.01000250,-0.01574575,0.99624066,0.07490883,-0.00596355,0.04310048
1756814180638,-0.01145918,0.12499270,0.00967529,0.00949671,0.01958572,0.01510390,0.99623371,0.07496154,-0.00585484,0.04318431
1756814180649,-0.12121328,0.13097928,0.09735764,-0.00752055,0.00921648,0.02107979,0.99623207,0.07491980,-0.00580369,0.04330130
1756814180660,-0.01444102,-0.00751862,0.11440657,-0.01467695,0.00521080,0.03095679,0.99623087,0.07483761,-0.00577451,0.04347466
1756814180671,-0.04557125,-0.00481104,0.12520587,-0.04135235,-0.02482039,0.03682565,0.99623840,0.07460603,-0.00591351,0.04368088
1756814180682,0.09163480,-0.15645360,-0.04572548,0.00013248,-0.00376899,-0.00608679,0.99623970,0.07460677,-0.00593443,0.04364710
1756814180694,0.09212693,-0.08036541,-0.21769410,-0.00295596,-0.01949290,-0.01076313,0.99624290,0.07459036,-0.00604261,0.04358736
1756814180705,0.04703059,0.05876320,-0.09984613,-0.00365544,-0.00652497,-0.01089555,0.99624691,0.07456971,-0.00607948,0.04352580
1756814180716,-0.01962908,-0.07610169,-0.16293291,0.00827535,-0.00465756,0.00138908,0.99624305,0.07461481,-0.00610486,0.04353337
1756814180727,-0.15866545,0.08210183,0.11457062,0.00263379,-0.00806314,0.00364178,0.99624075,0.07462969,-0.00615042,0.04355395
1756814180738,-0.03551911,-0.02283594,0.04849634,0.00961408,-0.00836944,0.00795973,0.99623453,0.07468305,-0.00619687,0.04359813
1756814180749,-0.04763482,0.01313268,0.13227651,-0.01365361,-0.00709171,0.01729761,0.99623575,0.07460795,-0.00623587,0.04369326
1756814180760,-0.06210280,-0.04199110,0.07391436,-0.02704107,-0.01822161,0.01316177,0.99624326,0.07445517,-0.00633882,0.04376763
1756814180772,0.03827092,-0.01144713,-0.00290794,-0.04279612,-0.00817481,-0.00314148,0.99626146,0.07421765,-0.00638419,0.04375019
1756814180783,0.01858225,-0.09985252,-0.13093888,-0.01173895,0.00769807,-0.00694318,0.99626834,0.07415191,-0.00634109,0.04371131
1756814180794,-0.12221483,-0.05471778,0.20492509,-0.03288033,0.00723980,-0.00142890,0.99628251,0.07396943,-0.00630090,0.04370338
1756814180805,0.01352855,0.02868913,0.07309401,-0.02906703,0.01781425,-0.00280422,0.99629590,0.07380665,-0.00620114,0.04368768
1756814180816,-0.01091413,-0.10961535,0.02674959,0.00933538,0.00851178,-0.00110080,0.99629262,0.07385846,-0.00615390,0.04368157
1756814180851,-0.01220574,0.04945416,-0.14203275,-0.01050116,0.02516072,0.00524611,0.99630464,0.07367732,-0.00571988,0.04377206
1756814180869,-0.00258956,0.03753042,-0.05972826,-0.03680797,0.01373620,0.00958385,0.99632682,0.07333317,-0.00559145,0.04386167
1756814180882,0.11104791,0.00776602,0.06966622,-0.04983982,-0.00993057,-0.00984842,0.99635307,0.07300921,-0.00565600,0.04379766
1756814180895,0.17098468,-0.07660524,-0.06637664,-0.05900597,-0.02514654,-0.01354552,0.99638236,0.07264632,-0.00581065,0.04371435
1756814180907,0.04240933,0.05032787,0.08089032,-0.04959291,-0.03117490,-0.03156716,0.99641143,0.07234628,-0.00599926,0.04352337
1756814180919,-0.10829660,0.04926352,0.09922014,-0.01500948,-0.02959816,-0.00509683,0.99641816,0.07225698,-0.00617537,0.04349304
1756814180930,-0.11295573,0.11124682,0.09063150,0.00666314,-0.00644922,0.02402341,0.99640887,0.07229629,-0.00621342,0.04363478
1756814180942,-0.18050120,0.07601631,-0.04462409,0.01894275,-0.00431681,0.01724473,0.99639625,0.07240710,-0.00623867,0.04373566
1756814180954,-0.05424622,0.11248902,0.08389163,0.02434225,0.03143946,0.02023003,0.99638195,0.07254829,-0.00605632,0.04385300
1756814180965,0.00001967,0.06552587,0.08552942,0.04714149,0.04345313,0.05897843,0.99634868,0.07281935,-0.00580646,0.04419212
1756814180977,0.03063329,0.00315488,0.09374492,0.06415705,0.00326008,0.01795227,0.99631717,0.07318826,-0.00578772,0.04429535
1756814180989,0.11497166,-0.06444347,0.07413238,0.03270373,-0.01046315,0.00638740,0.99630067,0.07338448,-0.00585050,0.04433367
1756814181000,-0.03040853,-0.08520281,0.04117772,0.01256406,-0.00654154,-0.02734739,0.99630210,0.07345672,-0.00588811,0.04417643
1756814181012,0.04314013,-0.06095674,-0.01971798,0.01406149,0.00757627,-0.00626692,0.99629799,0.07353757,-0.00584455,0.04414039
1756814181023,-0.01503643,0.07697723,-0.01058096,0.00768002,0.01232615,0.00414647,0.99629406,0.07358212,-0.00577306,0.04416444
1756814181035,0.05295519,0.02771896,0.02114876,0.00484073,0.01213929,0.03069261,0.99628465,0.07360971,-0.00570386,0.04433939
1756814181046,0.07375479,-0.03428322,0.04024552,-0.00341298,0.00598139,0.03078065,0.99627845,0.07359026,-0.00566977,0.04451484
1756814181058,0.04916030,0.05022090,0.09390621,-0.02217350,-0.00918582,0.02129261,0.99628205,0.07346387,-0.00572213,0.04463621
1756814181069,0.13816481,-0.04190808,-0.02648637,-0.02429356,-0.01968124,0.00588943,0.99629010,0.07332539,-0.00583431,0.04466978
1756814181080,0.11321112,-0.02222427,-0.04035434,-0.01056477,-0.01814229,-0.01214894,0.99629678,0.07326729,-0.00593409,0.04460296
1756814181091,0.22738834,-0.15463698,-0.24830990,0.01052086,-0.02998950,-0.03395677,0.99629995,0.07332673,-0.00610353,0.04441110
1756814181103,0.11876934,-0.01943021,-0.12451671,0.02026263,0.00016684,-0.03695573,0.99630081,0.07344122,-0.00610259,0.04420230
1756814181114,-0.11987797,0.11430564,0.07643716,0.00857435,0.02114051,-0.03896375,0.99630770,0.07348966,-0.00598315,0.04398216
1756814181125,-0.22393336,0.10177916,0.18630764,0.02835686,0.00019670,0.01636069,0.99629165,0.07365129,-0.00598203,0.04407541
1756814181137,-0.17551129,0.13555900,0.15968681,0.06016995,-0.02417875,0.04942348,0.99625324,0.07399125,-0.00611864,0.04435466
1756814181148,0.09869599,0.07078796,0.13928104,0.05871083,-0.01882549,0.01182676,0.99622516,0.07432004,-0.00622406,0.04442089
1756814181159,0.12963631,-0.02476601,-0.02181731,0.06136255,-0.02604858,-0.01566740,0.99620225,0.07466673,-0.00637123,0.04433236
1756814181170,0.07260636,0.16373520,0.02308122,0.05968833,-0.02183285,-0.06572884,0.99619267,0.07500099,-0.00649350,0.04396428
1756814181182,0.07625200,0.19138214,0.10173272,0.08566364,-0.02078519,-0.05877595,0.99616953,0.07549355,-0.00661301,0.04362632
1756814181193,0.05135493,0.11017114,0.18231568,0.11581025,-0.06552648,-0.01084682,0.99612121,0.07613051,-0.00697341,0.04356666
1756814181204,0.00606485,0.07548448,-0.00012094,0.17706757,-0.05429702,-0.02414795,0.99604801,0.07713094,-0.00728019,0.04343023
1756814181215,-0.03381323,0.20982291,0.05531483,0.16616207,-0.05853515,0.01205455,0.99596942,0.07806976,-0.00761091,0.04349834
1756814181226,0.00067324,0.19353909,-0.03009875,0.15888369,-0.03658581,0.01810396,0.99589462,0.07894362,-0.00781213,0.04359791
1756814181238,-0.05591184,-0.08675697,-0.01224480,0.13754961,-0.02829230,0.00517380,0.99583017,0.07972077,-0.00797198,0.04362714
1756814181249,0.01853720,-0.01028752,0.04067178,0.10655449,-0.03166103,0.00221485,0.99578024,0.08031748,-0.00814929,0.04363954
1756814181260,0.06266233,-0.09117220,0.05785129,0.07747773,-0.02720656,-0.01099178,0.99574658,0.08075135,-0.00830164,0.04357799
1756814181271,0.07411466,-0.16165844,-0.03428419,0.06449043,-0.04211425,-0.02331568,0.99572071,0.08111573,-0.00853959,0.04344626
1756814181282,0.06340876,-0.17499866,-0.14629386,0.05373654,-0.05703249,-0.03702618,0.99570255,0.08141396,-0.00885612,0.04324076
1756814181294,-0.15148787,-0.07038108,0.07943703,0.05807125,-0.01909484,-0.04579945,0.99568606,0.08173916,-0.00896305,0.04298428
1756814181305,-0.08910592,0.00973928,-0.04098825,0.01143557,0.01092717,-0.03756428,0.99569052,0.08180492,-0.00890022,0.04276829
1756814181316,-0.09746450,-0.07573683,0.00471252,0.01838306,0.03784471,-0.03447636,0.99569216,0.08190510,-0.00869396,0.04258039
1756814181322,0.28241932,-0.03347197,-0.13212536,0.02383374,0.04744530,-0.03120980,0.99569156,0.08197065,-0.00856349,0.04249457
1756814181327,-0.13543486,-0.15569415,-0.10337853,0.04067277,0.05397436,-0.02846497,0.99568687,0.08208453,-0.00841236,0.04241486
1756814181336,-0.10433112,-0.11214963,-0.04747610,0.03825706,0.04121753,-0.00844691,0.99567583,0.08225669,-0.00822688,0.04237685
1756814181347,-0.08319769,-0.08681917,-0.05486303,0.02105741,0.03135615,-0.00942818,0.99566976,0.08237461,-0.00805129,0.04232405
1756814181358,0.03493782,-0.10461249,-0.01612297,0.00170036,0.04745354,-0.03458104,0.99567922,0.08238405,-0.00778792,0.04213213
1756814181370,-0.04363916,-0.19632859,-0.11017718,-0.00673370,0.05266232,-0.05047249,0.99569652,0.08234634,-0.00749301,0.04184948
1756814181381,0.02488072,0.01803269,-0.06792827,-0.01505893,0.05035921,-0.03839859,0.99571426,0.08226351,-0.00721604,0.04163829
1756814181392,0.04780345,-0.02525392,-0.02546666,0.00955510,0.04704434,-0.02613636,0.99571783,0.08231702,-0.00695259,0.04149193
1756814181403,-0.10409889,-0.07971265,-0.20435710,0.04925132,0.03114010,0.00458695,0.99569532,0.08259037,-0.00677976,0.04151739
1756814181414,0.12472058,0.02219270,-0.08248188,0.05061717,0.03028827,0.03150734,0.99566580,0.08287129,-0.00661166,0.04169225
1756814181425,-0.11905146,0.07020635,-0.12335999,0.03633887,-0.00175526,0.01591882,0.99564523,0.08307297,-0.00662140,0.04178060
1756814181436,-0.03365188,-0.08236093,0.01668988,-0.00364227,0.00696989,0.00534754,0.99564592,0.08305276,-0.00658272,0.04181028
1756814181447,-0.00745300,-0.04595764,0.04196658,-0.04979578,0.01172899,0.00814443,0.99566747,0.08277639,-0.00651762,0.04185548
1756814181458,-0.02746876,-0.10328376,-0.01124753,0.00064782,0.00890718,-0.00952898,0.99566971,0.08277999,-0.00646819,0.04180260
1756814181470,-0.04562506,-0.10273952,0.03579859,-0.01271087,0.01147730,-0.01879925,0.99568036,0.08270944,-0.00640449,0.04169826
1756814181481,0.00942356,-0.04744957,-0.12032580,-0.01544382,0.01710705,-0.00230627,0.99568870,0.08262296,-0.00630869,0.04168534
1756814181492,-0.13137180,0.03880646,-0.09664711,-0.01866141,0.01920774,0.00212104,0.99569746,0.08251939,-0.00620209,0.04169712
1756814181503,0.02671969,0.03488365,-0.08710706,0.01175358,0.02628164,0.01710616,0.99568905,0.08258403,-0.00605754,0.04179120
1756814181514,0.01067554,0.11431596,0.10471547,-0.01200673,0.00076363,0.04014966,0.99568519,0.08251679,-0.00605326,0.04201604
1756814181525,0.04382525,0.01432289,0.08866391,-0.03245130,-0.01242835,0.02304629,0.99569427,0.08233669,-0.00612224,0.04214395
1756814181536,-0.00644012,-0.05297223,0.10606540,-0.07570649,-0.02430305,-0.00296773,0.99572878,0.08191652,-0.00625712,0.04212747
1756814181547,0.07707726,-0.08862408,-0.14844398,-0.04180953,-0.00439575,0.00697967,0.99574621,0.08168238,-0.00628174,0.04216656
1756814181558,0.09693672,-0.09392943,-0.10296227,-0.02575748,-0.00323229,-0.00836840,0.99575965,0.08154072,-0.00629951,0.04212053
1756814181570,-0.11815677,0.05346149,0.07524190,-0.05137275,-0.00568795,-0.00363668,0.99578361,0.08125560,-0.00633108,0.04210035
1756814181581,0.05056931,0.07003487,0.14486955,-0.02062706,0.00739933,0.00903471,0.99579116,0.08114009,-0.00628965,0.04215094
1756814181592,-0.11737624,0.27498404,0.19367000,0.00425588,-0.05256813,0.02428635,0.99578163,0.08116371,-0.00658140,0.04228573
1756814181603,0.02217759,0.19302210,0.17572752,-0.00586187,-0.04884633,-0.00189522,0.99578290,0.08113117,-0.00685250,0.04227522
1756814181614,0.16180718,0.03153156,0.10443240,0.00814865,-0.04025638,0.01794038,0.99577333,0.08117681,-0.00707793,0.04237568
1756814181625,0.08390755,-0.08455903,-0.14156763,-0.00177284,-0.05482615,-0.01272335,0.99577491,0.08116706,-0.00737948,0.04230570
1756814181636,-0.08592760,0.05155832,0.00528843,-0.00838899,-0.03947868,-0.01392657,0.99578034,0.08112050,-0.00759858,0.04222841
1756814181647,0.01390823,-0.05357694,-0.04595764,0.01877827,0.00342524,0.01089268,0.99576942,0.08122472,-0.00757957,0.04228887
1756814181659,-0.09772070,-0.04526424,-0.01974823,0.02068169,0.01558904,0.01854379,0.99575622,0.08134053,-0.00749227,0.04239271
1756814181670,-0.07693032,0.12681711,-0.04390081,-0.01146427,0.00094363,0.01211265,0.99575857,0.08127748,-0.00748708,0.04245933
1756814181681,0.04891765,-0.10014094,-0.14920600,-0.00908477,0.02729419,0.03770580,0.99575483,0.08122660,-0.00733424,0.04267048
1756814181692,-0.28517576,-0.02921053,0.23442070,-0.02942568,0.02436290,0.01616472,0.99576527,0.08106329,-0.00719902,0.04276020
1756814181703,0.19487407,-0.18364175,-0.01874766,-0.05629847,0.01319423,0.05953803,0.99577684,0.08075365,-0.00712645,0.04308766
1756814181714,0.04227211,-0.15039130,0.03382543,-0.05364612,-0.00949251,-0.00429200,0.99580204,0.08045055,-0.00718009,0.04306341
1756814181725,0.31975386,0.10741663,-0.27237235,-0.04562565,-0.02010517,-0.05028197,0.99583368,0.08019733,-0.00729167,0.04278434
1756814181736,0.14975540,-0.05194423,-0.22615998,-0.01455274,-0.02113891,-0.03221028,0.99584698,0.08011656,-0.00740899,0.04260557
1756814181747,-0.00486788,-0.04831600,-0.10618634,-0.00293122,-0.00973616,-0.04153092,0.99585772,0.08010029,-0.00746303,0.04237508
1756814181759,-0.01874588,0.04281317,-0.01608518,-0.03348901,0.01816871,-0.05631046,0.99588665,0.07991443,-0.00736219,0.04206255
1756814181770,-0.13509128,0.01614565,-0.07171811,-0.01514099,0.02703629,-0.03199366,0.99590197,0.07983040,-0.00721214,0.04188499
1756814181781,-0.19701859,0.03388384,-0.05825047,0.00415485,0.02094413,-0.01250776,0.99590389,0.07985366,-0.00709485,0.04181495
1756814181792,0.02803972,-0.04827874,0.28723311,-0.01240272,0.02309935,0.03305788,0.99590260,0.07978483,-0.00696665,0.04199842
1756814181803,-0.15232704,-0.08757422,0.11648916,-0.01784300,-0.00739856,0.02255582,0.99590497,0.07968491,-0.00700808,0.04212473
1756814181814,0.05228903,-0.10655452,0.06591829,-0.00638007,0.00739489,0.03856240,0.99589907,0.07964982,-0.00696741,0.04233682
1756814181825,-0.01130443,0.01647658,-0.23015104,-0.02210412,-0.02254084,0.03206391,0.99590041,0.07952714,-0.00709251,0.04251478
1756814181836,0.16680810,-0.05793082,-0.06651764,-0.04150857,-0.02004272,-0.00285478,0.99591866,0.07929677,-0.00720375,0.04249893
1756814181847,0.04877219,0.02278703,-0.01828206,-0.06184741,-0.01031443,-0.01970923,0.99595046,0.07895042,-0.00726151,0.04238856
1756814181859,-0.03170915,0.03052954,-0.04043897,-0.05895092,-0.01228036,-0.01322261,0.99597947,0.07861735,-0.00733090,0.04231385
1756814181870,-0.00351038,-0.12450275,-0.09960353,-0.01291769,-0.00078537,-0.01069816,0.99598747,0.07854695,-0.00733518,0.04225555
1756814181881,0.02148315,0.09860422,-0.00995934,-0.01418698,0.02777993,-0.01926949,0.99599933,0.07846821,-0.00718100,0.04214860
1756814181892,-0.30964135,0.03804617,0.13502576,-0.04635533,0.01262066,0.00516229,0.99601868,0.07821325,-0.00711158,0.04217700
1756814181903,0.04643519,0.04472487,0.15088851,-0.02927575,0.02332101,0.00676058,0.99603086,0.07804931,-0.00698099,0.04221486
1756814181914,-0.01183212,-0.10689849,0.05511786,-0.03380323,-0.00933949,0.02488411,0.99603932,0.07786170,-0.00703282,0.04235296
1756814181925,0.14382223,0.07327648,-0.03977684,-0.04043841,0.00990931,-0.00459695,0.99605848,0.07763525,-0.00697733,0.04232722
1756814181936,-0.02306728,0.06783261,0.01769843,-0.05486490,-0.00926173,0.00754463,0.99607983,0.07733349,-0.00702827,0.04236872
1756814181948,0.03903369,0.05769362,0.01647309,-0.02797970,0.02776141,-0.00827486,0.99609504,0.07717680,-0.00687280,0.04232238
1756814181959,-0.16675357,0.12227152,-0.09089917,-0.01995538,0.02463456,-0.00362724,0.99610540,0.07706605,-0.00673608,0.04230224
1756814181970,-0.02774088,-0.07625341,-0.13871952,0.00553172,0.03580780,0.02694532,0.99609799,0.07709675,-0.00653735,0.04245179
1756814181981,-0.05283617,0.19658987,0.04886023,-0.00110808,0.03961487,0.01353431,0.99609668,0.07709060,-0.00631749,0.04252691
1756814181992,0.03572300,0.03882211,0.08792423,0.01133405,0.01438367,0.04150565,0.99608245,0.07715351,-0.00623766,0.04275726
1756814182003,0.07310247,-0.07222315,0.09603206,0.01507239,-0.00720550,0.02528099,0.99606934,0.07723942,-0.00627873,0.04290136
1756814182014,-0.02798078,-0.08156157,-0.00625010,0.00479828,-0.00425502,-0.01364286,0.99607036,0.07726557,-0.00630192,0.04282701
1756814182025,0.07324549,0.13706944,0.02901710,-0.00708736,-0.00640955,-0.00777221,0.99607500,0.07722659,-0.00633717,0.04278426
1756814182036,0.10238989,-0.00206699,-0.07686031,-0.01184825,-0.00174654,-0.00708198,0.99608172,0.07716083,-0.00634686,0.04274496
1756814182048,0.02901260,-0.13202887,-0.09096940,0.01521301,-0.01147993,-0.02137024,0.99607983,0.07724602,-0.00641115,0.04262529
1756814182059,0.01175532,-0.06748355,-0.05793622,0.00365158,-0.01720671,-0.04184005,0.99608755,0.07726629,-0.00650665,0.04239307
1756814182070,0.02491626,-0.13398896,-0.07922989,-0.00494923,-0.00541990,-0.03898114,0.99609857,0.07723907,-0.00653646,0.04217868
1756814182081,0.13608093,0.13272643,0.15352784,-0.05167504,-0.00724647,-0.04083174,0.99613035,0.07694969,-0.00657704,0.04195002
1756814182092,-0.06420262,-0.16834147,0.10610536,-0.03815984,-0.04611030,-0.00810680,0.99614686,0.07673790,-0.00683295,0.04190503
1756814182103,0.03079464,-0.01687129,0.04607858,-0.01122908,0.02992713,-0.03018465,0.99615982,0.07667558,-0.00666685,0.04173750
1756814182114,-0.04916258,0.08901270,-0.03108188,-0.02672722,0.01714443,0.00010917,0.99617183,0.07652725,-0.00657170,0.04173811
1756814182125,-0.16074593,0.03186800,-0.15807011,-0.03823056,-0.01351182,0.00255522,0.99618702,0.07631507,-0.00664669,0.04175229
1756814182136,-0.00879847,-0.14011034,0.07655576,-0.02273640,0.03956869,-0.01736159,0.99620215,0.07618888,-0.00642709,0.04165593
1756814182147,-0.08886902,0.13639096,-0.02165316,-0.05764659,0.01978066,-0.00108453,0.99622775,0.07586606,-0.00631632,0.04164986
1756814182159,0.16230993,0.12125486,-0.11602469,-0.03360767,0.03171460,-0.00357265,0.99624387,0.07567954,-0.00614030,0.04163003
1756814182170,0.06356970,0.02860259,-0.01257788,-0.00552628,-0.00499395,-0.02705268,0.99625229,0.07564886,-0.00616802,0.04147989
1756814182181,-0.18835075,-0.00374918,0.10654917,-0.04753487,-0.01395003,-0.03174091,0.99627912,0.07538505,-0.00624544,0.04130373
1756814182192,-0.19300324,-0.07638003,0.27915812,-0.03333429,0.03110093,-0.03691680,0.99630286,0.07519837,-0.00607127,0.04109699
1756814182203,-0.09052797,0.02197944,0.04269115,0.01643639,-0.01501936,-0.01332602,0.99629850,0.07528960,-0.00615463,0.04102303
1756814182214,0.01118706,0.00554705,0.01863064,0.01562621,-0.03656598,0.03003542,0.99628340,0.07537867,-0.00636306,0.04119423
1756814182225,0.02463460,0.30527141,-0.09369101,0.00564600,0.00714983,-0.02144266,0.99628614,0.07540944,-0.00632409,0.04107737
1756814182237,0.05148821,0.09787081,0.11386777,0.01927936,-0.00231442,0.01334083,0.99627490,0.07551644,-0.00633694,0.04115141
1756814182248,-0.09979593,0.11511825,-0.04718684,0.03344246,-0.02350060,0.03581866,0.99625153,0.07570371,-0.00646854,0.04135200
1756814182259,-0.00808915,-0.03988304,-0.04576785,0.08359833,-0.02096256,0.07649585,0.99619818,0.07616350,-0.00658383,0.04177273
1756814182270,-0.00888890,-0.08781868,0.00480136,0.04752152,-0.01806734,0.05033585,0.99616556,0.07642725,-0.00668411,0.04205209
1756814182281,-0.08198299,0.05472588,0.02902588,0.04261841,-0.04088823,0.01010983,0.99614346,0.07666378,-0.00691104,0.04210820
1756814182292,0.32704941,-0.19370822,0.11204145,0.02463086,-0.01837566,0.03108890,0.99612475,0.07680171,-0.00701394,0.04228230
1756814182303,-0.04722024,-0.17238922,-0.02476378,0.05611922,-0.04193599,-0.01423287,0.99610237,0.07711318,-0.00724668,0.04220330
1756814182326,-0.03547575,0.03823374,0.05276276,0.00891858,-0.02878541,0.00897578,0.99608751,0.07721619,-0.00757916,0.04230697
1756814182338,-0.14209743,0.01827390,0.01573335,-0.01203375,0.02507356,0.03037351,0.99608656,0.07714940,-0.00744000,0.04247555
1756814182349,-0.12898375,0.10594446,-0.05490729,-0.00382574,0.03856660,0.02254511,0.99608444,0.07712817,-0.00722595,0.04260067
1756814182360,0.01354513,-0.01591106,-0.09594258,0.01514233,0.03856138,0.05384195,0.99606647,0.07721296,-0.00701001,0.04290219
1756814182371,-0.06547533,0.09339628,-0.01349142,-0.00675343,0.04838041,0.02423610,0.99606543,0.07717548,-0.00674150,0.04303670
1756814182382,0.05525380,-0.11376660,-0.00444771,-0.01527366,0.06662216,0.02197856,0.99606918,0.07708995,-0.00636841,0.04315978
1756814182393,0.05347341,-0.29792021,0.14756118,-0.01372555,0.05553908,0.02342817,0.99607136,0.07701377,-0.00606017,0.04328980
1756814182404,0.02527670,-0.04910211,0.00338635,0.04329690,0.00397765,0.01121497,0.99605017,0.07725407,-0.00603810,0.04335205
1756814182415,0.05756800,-0.01935059,-0.01668988,0.02098636,0.00865756,0.02989816,0.99603419,0.07737054,-0.00599005,0.04351798
1756814182426,-0.01728986,0.29432165,-0.10549938,0.01185052,0.01324396,0.00041326,0.99602937,0.07743691,-0.00591588,0.04352030
1756814182438,0.03842255,0.06889808,-0.02889629,0.00571476,0.04243855,-0.00219008,0.99602881,0.07746834,-0.00568247,0.04350825
1756814182449,0.01695204,0.10059990,-0.06392044,0.01968948,0.01918724,0.02413123,0.99601493,0.07757860,-0.00557502,0.04364339
1756814182460,-0.04665494,0.08981447,0.12169597,0.02212890,0.00162973,0.02623745,0.99599901,0.07770141,-0.00556598,0.04378900
1756814182471,0.13096617,-0.07422306,0.04617337,0.04693739,0.00797611,0.02046186,0.99597368,0.07796426,-0.00552131,0.04390359
1756814182482,0.00621065,-0.00480849,-0.04368676,0.04997582,-0.00420190,-0.00107767,0.99595206,0.07824163,-0.00554463,0.04389761
1756814182493,0.30126396,0.10053763,0.14476571,0.05276935,0.00155860,-0.01519641,0.99593294,0.07853186,-0.00553606,0.04381403
1756814182504,0.02917996,0.02047851,-0.02000659,0.07871111,0.01099818,-0.01689893,0.99590259,0.07897264,-0.00547447,0.04371940
1756814182515,-0.00363348,0.17483465,0.11458017,0.03117969,0.01510438,0.02903406,0.99588241,0.07914413,-0.00539139,0.04387908
1756814182527,-0.42126585,-0.06908764,-0.14514919,0.03133599,0.01397349,0.02204398,0.99586359,0.07931805,-0.00531384,0.04400143
1756814182538,-0.05310829,-0.11525693,0.11090305,0.05153323,0.02304928,0.01895291,0.99583679,0.07960406,-0.00518592,0.04410662
1756814182549,-0.04756314,-0.03599586,-0.00280497,0.02649365,0.02116687,0.02133612,0.99582023,0.07975242,-0.00506738,0.04422610
1756814182560,0.01156729,-0.04365575,-0.09336984,0.02550727,0.04199402,0.00577734,0.99580851,0.07989526,-0.00483222,0.04425845
1756814182571,0.01554770,-0.03305810,-0.08968186,0.02673309,0.05428626,0.01192454,0.99579519,0.08004229,-0.00453364,0.04432404
1756814182582,0.03398372,-0.01296983,-0.00849681,0.00609377,0.05903726,0.03364875,0.99578549,0.08007642,-0.00420303,0.04451247
1756814182593,-0.04669977,-0.13084845,0.04050778,0.00050658,0.04169586,0.03446357,0.99577757,0.08007925,-0.00396954,0.04470546
1756814182605,-0.04122053,-0.07632331,0.08208468,0.00088038,0.05055960,0.02711050,0.99577144,0.08008418,-0.00368640,0.04485728
1756814182615,0.00755264,0.14845148,0.11150070,-0.00861952,0.05576247,0.01343082,0.99577299,0.08003721,-0.00338250,0.04493048
1756814182627,-0.06735472,0.02129794,-0.11124627,0.03375300,0.05525402,-0.01528070,0.99576264,0.08022623,-0.00307307,0.04484491
1756814182638,-0.00642957,0.16482271,-0.02173878,0.02186199,0.04002226,0.02204166,0.99574787,0.08034865,-0.00284895,0.04496834
1756814182649,0.02788745,0.11456477,-0.01859566,0.01765336,0.00150232,0.00823670,0.99573801,0.08044575,-0.00284069,0.04501364
1756814182660,0.22125526,-0.20826463,0.12268101,0.04233067,0.05746994,0.07849552,0.99569973,0.08068280,-0.00251885,0.04545322
1756814182671,-0.17979700,-0.00160895,-0.14883646,0.11773656,-0.04392894,-0.05246345,0.99565917,0.08133624,-0.00276266,0.04516205
1756814182682,0.26703259,0.15026170,-0.19175994,0.04773996,-0.02831683,0.04871761,0.99562442,0.08160358,-0.00292123,0.04543487
1756814182693,0.06163815,0.13586174,0.30100421,0.05026029,0.01435813,-0.04196801,0.99561236,0.08188252,-0.00284155,0.04520194
1756814182705,-0.06171023,-0.01596423,0.17415528,0.03103096,-0.02371294,-0.02405588,0.99560384,0.08205475,-0.00297315,0.04506843
1756814182716,-0.03579859,-0.00042329,0.11344281,0.01683406,-0.05148490,0.00119540,0.99559495,0.08214817,-0.00325890,0.04507507
1756814182727,0.12677658,-0.19677128,-0.25820939,0.00758234,-0.02870220,0.01398371,0.99558742,0.08219026,-0.00341819,0.04515268
1756814182738,0.03136969,-0.08928492,-0.12894297,-0.01219854,-0.03483548,0.02449869,0.99558614,0.08212194,-0.00361327,0.04528987
1756814182749,0.04620358,-0.17604175,-0.12870948,-0.02519731,-0.01134101,0.00141383,0.99559708,0.08198210,-0.00367621,0.04529772
1756814182760,0.08293541,-0.18274210,-0.09179435,0.01118053,-0.00483479,-0.00643676,0.99559349,0.08204415,-0.00370305,0.04526199
1756814182772,-0.03836332,0.03135630,-0.00241095,-0.02768519,0.00673162,-0.01025777,0.99560928,0.08188635,-0.00366468,0.04520352
1756814182782,-0.09510487,-0.00070937,-0.03577769,-0.01834504,0.02531128,-0.02268015,0.99562347,0.08178728,-0.00352800,0.04508105
1756814182793,-0.18680581,-0.09893827,0.55213338,-0.00564027,0.03540707,-0.00433378,0.99562781,0.08175598,-0.00333149,0.04505700
1756814182805,-0.06070642,-0.04106053,0.04363274,0.01504120,0.02440069,0.01227894,0.99561822,0.08184021,-0.00319484,0.04512576
1756814182816,-0.00860531,0.07166574,-0.03156888,-0.00278988,0.02960427,0.00336812,0.99561916,0.08182473,-0.00303054,0.04514445
1756814182827,0.22443563,0.08225261,-0.62109251,-0.00938962,0.04604732,-0.00503079,0.99562539,0.08177308,-0.00277728,0.04511678
1756814182838,0.06782233,0.00590120,-0.14287542,-0.00234460,0.02731594,-0.01950732,0.99563189,0.08175984,-0.00262294,0.04500657
1756814182849,0.00703509,-0.01659148,-0.00593409,-0.03032732,-0.00154563,-0.02465168,0.99565167,0.08159304,-0.00263144,0.04487098
1756814182860,0.05246342,0.04310822,0.09750114,-0.03744175,0.01174815,-0.02705558,0.99567603,0.08138149,-0.00256507,0.04471812
1756814182871,-0.01547141,0.00922481,-0.00718194,-0.01820808,-0.00753456,-0.02944685,0.99569137,0.08128135,-0.00260651,0.04455616
1756814182882,0.05668842,0.05083762,-0.06377997,-0.00066821,-0.02292699,-0.01038767,0.99569391,0.08127764,-0.00273375,0.04449851
1756814182894,0.15085044,-0.48650164,-0.17635883,0.01389645,-0.00809452,-0.01406176,0.99569094,0.08135546,-0.00277908,0.04441976
1756814182905,-0.08668958,0.01431587,-0.08001986,0.00106960,0.00469254,-0.01429187,0.99569406,0.08136139,-0.00275304,0.04434044
1756814182916,0.06080608,0.09670348,0.16317194,0.00006550,0.00606024,-0.00085332,0.99569434,0.08136176,-0.00271910,0.04433567
1756814182927,-0.21885091,0.39702490,0.15914950,0.00628957,-0.01273101,0.00638172,0.99568976,0.08139635,-0.00278912,0.04437077
1756814182938,0.02102048,-0.06354681,0.08364591,0.02046045,-0.00738595,0.00449986,0.99567905,0.08151195,-0.00283085,0.04439619
1756814182949,0.12600162,-0.00694763,0.08697557,0.00892398,-0.01400233,0.01173170,0.99567193,0.08156104,-0.00290786,0.04446071
1756814182960,-0.05002565,0.03927667,0.09784287,-0.02004626,-0.03231494,-0.00182145,0.99568103,0.08144878,-0.00308883,0.04445051
1756814182972,0.14354826,-0.29514072,-0.15341063,0.02056064,-0.02439091,-0.00559279,0.99567264,0.08156289,-0.00322420,0.04441947
1756814182983,0.05767382,0.01475482,-0.05466541,0.00083346,-0.02018503,-0.01343867,0.99567522,0.08156751,-0.00333622,0.04434489
1756814182994,0.07189952,0.24629669,0.22156422,-0.01170843,-0.00933875,-0.02250658,0.99568592,0.08150253,-0.00338805,0.04421998
1756814183005,-0.00248231,-0.07277081,-0.00243896,-0.01252851,-0.00133114,-0.00901563,0.99569388,0.08143237,-0.00339551,0.04416949
1756814183016,-0.05708909,-0.03789994,-0.00177200,-0.01627344,0.00880921,-0.00733737,0.99570323,0.08134206,-0.00334662,0.04412877
1756814183022,-0.41041324,0.00527390,-0.33361690,-0.00410919,-0.00543901,-0.02930101,0.99570775,0.08133055,-0.00336185,0.04404672
1756814183033,0.22986087,-0.06943342,-0.08980611,-0.01449329,-0.00849170,0.00753814,0.99571235,0.08124939,-0.00340940,0.04408894
1756814183044,0.06980546,-0.09502574,0.07146759,-0.03024485,-0.00559528,0.01278567,0.99572278,0.08108153,-0.00344045,0.04415990
1756814183055,-0.04994909,-0.04725163,0.04942106,-0.04275493,-0.01336223,0.00274525,0.99574147,0.08083996,-0.00351595,0.04417541
1756814183066,0.07730761,0.01617642,-0.02157226,-0.03624937,-0.02095528,0.00837615,0.99575505,0.08064240,-0.00363016,0.04422106
1756814183077,0.00895550,0.10045231,-0.23954449,0.00097958,-0.02992627,-0.04128952,0.99576431,0.08064794,-0.00379924,0.04398777
1756814183088,0.14498390,0.06918093,-0.01074239,-0.03173224,0.00011851,-0.02273215,0.99578394,0.08047341,-0.00379859,0.04386275
1756814183100,-0.00163554,0.00539852,0.14790361,-0.03239005,-0.00730556,-0.03001119,0.99580582,0.08029203,-0.00383950,0.04369468
1756814183111,-0.03710738,-0.03771619,0.12045422,-0.03213073,-0.02825233,-0.01637470,0.99582370,0.08011210,-0.00399771,0.04360299
1756814183122,-0.02035173,0.02498623,-0.05591909,-0.02329722,-0.03322957,-0.01541956,0.99583708,0.07998280,-0.00418214,0.04351741
1756814183133,-0.03167038,-0.02408084,-0.17949514,-0.01110629,-0.02249739,-0.01141131,0.99584420,0.07992171,-0.00430587,0.04345465
1756814183144,-0.01670001,0.02876074,-0.07908090,-0.00903973,-0.01609193,-0.01066363,0.99585053,0.07987064,-0.00439679,0.04339440
1756814183156,-0.01333707,-0.00066965,-0.04547073,0.00477662,-0.00690910,-0.03023990,0.99585558,0.07989739,-0.00443548,0.04322505
1756814183167,-0.07113163,-0.01018173,0.00021813,-0.00816884,-0.00028258,-0.01986086,0.99586398,0.07985205,-0.00443705,0.04311482
1756814183178,-0.03430194,0.04499011,-0.01028000,-0.01221863,-0.00603096,-0.01960492,0.99587397,0.07978424,-0.00447052,0.04300602
1756814183189,0.10875383,-0.07654966,0.16784547,-0.01659140,0.00375592,-0.01437793,0.99588498,0.07969132,-0.00444949,0.04292550
1756814183200,0.03929017,-0.11023818,0.05832645,-0.02410648,-0.01480072,-0.01236190,0.99589838,0.07955633,-0.00453237,0.04285627
1756814183211,0.00420224,0.02049147,0.02126361,-0.02696173,-0.01181117,-0.02424096,0.99591596,0.07940534,-0.00459852,0.04272052
1756814183222,-0.05146789,0.12951665,-0.08760352,-0.02279210,-0.02157111,-0.03170190,0.99593301,0.07927885,-0.00471824,0.04254458
1756814183233,-0.10806784,0.09461073,-0.07414066,0.00291867,-0.01581325,-0.05093950,0.99594343,0.07929519,-0.00480679,0.04225932
1756814183245,-0.03081192,0.00896962,-0.08447093,0.01215132,-0.00396749,-0.03402666,0.99594595,0.07936263,-0.00482881,0.04207047
1756814183256,-0.09656971,0.12284984,-0.02854091,0.01214019,0.01577920,-0.02233721,0.99594623,0.07943061,-0.00474045,0.04194538
1756814183267,-0.02777975,0.08388080,0.05637262,0.02822563,0.01733036,0.01375503,0.99593096,0.07958727,-0.00464426,0.04202172
1756814183278,-0.16203093,0.00435388,0.03337976,0.03511248,-0.00321655,0.00609177,0.99591386,0.07978214,-0.00466212,0.04205553
1756814183289,-0.01755765,-0.03212453,0.30917913,-0.01466427,0.00265850,0.01420069,0.99591717,0.07969929,-0.00464709,0.04213577
1756814183300,-0.40206979,-0.17738409,0.05489334,0.01791462,-0.01823026,-0.00677897,0.99591038,0.07979782,-0.00474736,0.04209848
1756814183311,0.15650085,0.18356580,-0.06386212,-0.02503638,-0.01517517,0.01537422,0.99591755,0.07965761,-0.00483234,0.04218458
1756814183323,0.21704627,0.00736505,-0.20372681,-0.01023124,0.00214138,0.00523537,0.99592095,0.07960032,-0.00482035,0.04221389
1756814183334,-0.01165827,-0.01397356,-0.14909778,0.00544232,0.00013760,-0.01151281,0.99592125,0.07963052,-0.00481959,0.04215000
1756814183345,0.00022223,-0.12881561,-0.06035176,0.01387770,0.01651055,-0.00581545,0.99591681,0.07970893,-0.00472630,0.04211714
1756814183356,-0.04048478,-0.07722110,-0.00831100,0.01301524,0.02316523,-0.00806505,0.99591355,0.07978052,-0.00459889,0.04207278
1756814183367,0.01696905,-0.06175952,0.04065249,0.01045109,0.01952391,-0.00064049,0.99590951,0.07983904,-0.00448956,0.04206920
1756814183379,0.02187631,0.00597400,0.04295110,-0.00764855,0.00942532,-0.00676825,0.99591483,0.07979583,-0.00443631,0.04203096
1756814183390,0.08136571,-0.03948462,0.09075511,-0.02907664,0.00219016,-0.01362141,0.99593099,0.07963445,-0.00442415,0.04195536
1756814183401,0.09741811,-0.16278681,0.06047058,-0.04270199,-0.00182572,-0.03332160,0.99595764,0.07939746,-0.00443428,0.04177042
1756814183412,-0.02389758,-0.00728048,0.02521412,-0.04466984,-0.01934518,-0.03590946,0.99598572,0.07914507,-0.00454358,0.04156753
1756814183423,-0.02159922,-0.13498176,-0.10712314,-0.02069934,-0.01547823,-0.03833000,0.99600314,0.07903123,-0.00462871,0.04135672
1756814183434,-0.01987684,0.09498842,-0.01860377,-0.04692595,-0.00061382,-0.02481464,0.99602994,0.07876610,-0.00463218,0.04121652
1756814183445,-0.12530633,0.01461422,-0.08487833,-0.02628526,0.01774873,-0.01601552,0.99604531,0.07862284,-0.00453545,0.04112923
1756814183457,-0.02225045,0.20439815,-0.04983997,-0.02517436,0.01966891,-0.00000836,0.99605693,0.07848186,-0.00442531,0.04112918
1756814183468,-0.05184463,0.09127968,-0.05602752,-0.00131483,0.00457189,-0.02056695,0.99606242,0.07847444,-0.00439947,0.04101298
1756814183479,0.17534545,-0.15012415,0.21024351,-0.02175001,0.04237982,0.02153370,0.99606806,0.07835264,-0.00416215,0.04113357
1756814183490,-0.27345203,-0.05709216,0.37626312,0.01000019,-0.00778790,-0.06813209,0.99607895,0.07840764,-0.00420498,0.04075884
1756814183501,0.06947500,0.09551132,0.11417341,-0.03866334,0.00046367,0.00871976,0.99609398,0.07819112,-0.00420238,0.04080767
1756814183512,0.02921296,-0.01440226,-0.01197102,-0.01189249,0.03498147,-0.02268186,0.99610511,0.07812512,-0.00400824,0.04068179
1756814183523,0.08295052,0.09022211,-0.41881926,-0.01854855,0.00470729,-0.01495820,0.99611667,0.07802217,-0.00398211,0.04059877
1756814183535,0.00837157,0.03165035,-0.12222753,-0.03276895,0.00986402,-0.02592454,0.99613715,0.07783867,-0.00392687,0.04045359
1756814183546,-0.06671039,0.03167957,0.08051550,-0.04585998,0.02111673,-0.01509750,0.99616086,0.07758414,-0.00380968,0.04036980
1756814183557,-0.05221607,0.14132561,0.10040955,-0.04466703,0.02404080,-0.00898768,0.99618286,0.07733401,-0.00367505,0.04031947
1756814183568,-0.06728716,0.04359011,-0.00359368,0.00077244,-0.00394615,-0.00007624,0.99618246,0.07733830,-0.00369695,0.04031905
1756814183579,0.04290108,0.06286024,0.03372150,-0.00281107,-0.01788405,-0.00214333,0.99618380,0.07732241,-0.00379799,0.04030694
1756814183590,0.10183096,-0.16448983,0.19244981,-0.00018537,-0.00672924,-0.01200684,0.99618641,0.07732139,-0.00383500,0.04024090
1756814183602,0.03094023,-0.06047549,0.12335704,0.01016564,-0.01430643,-0.01580077,0.99618525,0.07737832,-0.00391512,0.04015242
1756814183613,-0.07565511,0.01870961,0.05571305,0.01384098,-0.01978323,-0.01424118,0.99618200,0.07745583,-0.00402591,0.04007267
1756814183624,-0.10950804,0.02590031,-0.13615060,0.05017308,-0.01711093,-0.00138715,0.99616023,0.07773429,-0.00412087,0.04006497
1756814183635,-0.12416671,0.10387269,0.06888709,0.02705414,-0.00762616,0.01784440,0.99614419,0.07788580,-0.00416358,0.04016490
1756814183646,-0.06539710,0.08888798,0.11989321,0.01482850,-0.00461668,0.02622901,0.99613188,0.07796735,-0.00418897,0.04030916
1756814183657,-0.04055935,-0.10755458,-0.06251438,0.03310410,-0.00246066,0.03222021,0.99610997,0.07815273,-0.00420275,0.04048959
1756814183668,0.06771095,-0.01116637,-0.03421185,0.01328384,0.01005160,0.02708313,0.99609819,0.07822712,-0.00414646,0.04064126
1756814183679,0.01133173,-0.06704753,-0.09141255,-0.02054849,0.00475963,0.01863330,0.99610299,0.07811411,-0.00412028,0.04074374
1756814183691,0.00776793,-0.01861238,0.15485508,-0.00261130,0.00721594,-0.00183372,0.99610475,0.07809922,-0.00407915,0.04073329
1756814183702,0.02250301,-0.04710977,0.05247255,-0.01703830,0.00479790,-0.00599400,0.99611363,0.07800466,-0.00405252,0.04070002
1756814183713,0.01058235,-0.04777176,-0.05563294,-0.01828902,0.00237208,-0.01743411,0.99612557,0.07790316,-0.00403936,0.04060326
1756814183724,0.13666587,-0.07924440,-0.20666342,-0.03419451,0.01232674,-0.00569854,0.99614211,0.07771167,-0.00397033,0.04057135
1756814183735,0.05816366,-0.05670521,-0.11414579,-0.04671647,0.01385469,-0.00165622,0.99616298,0.07745239,-0.00389344,0.04056216
1756814183747,0.02825651,0.02454107,0.00312603,-0.02729817,-0.01202139,-0.00077288,0.99617476,0.07729952,-0.00396076,0.04055783
1756814183758,0.06729518,-0.13221454,-0.08362897,-0.02403799,-0.01403567,-0.00808151,0.99618673,0.07716491,-0.00403935,0.04051257
1756814183769,0.00219989,0.04043268,-0.01697604,-0.06453462,-0.01458969,-0.03967361,0.99622300,0.07680674,-0.00412033,0.04029238
1756814183780,0.05786868,-0.03347877,-0.01394244,-0.08660414,-0.00574224,-0.02015739,0.99626470,0.07632176,-0.00415248,0.04017950
1756814183791,0.20142184,0.02023497,0.30505250,-0.06378369,-0.01547178,-0.02947808,0.99629798,0.07596776,-0.00423835,0.04001590
1756814183802,0.12438799,0.00175365,0.07534635,-0.02014204,-0.02941227,-0.03500970,0.99631357,0.07585597,-0.00440159,0.03982159
1756814183813,-0.01858360,-0.01841704,-0.06900621,-0.00933801,-0.02919008,-0.04388139,0.99632638,0.07580461,-0.00456214,0.03958025
1756814183825,-0.15171357,0.07004529,-0.28307316,-0.03126539,-0.00040612,-0.02921189,0.99634634,0.07562796,-0.00456443,0.03941520
1756814183836,-0.10826442,0.06963857,-0.10809786,0.00079113,-0.00653036,-0.03342939,0.99635316,0.07563235,-0.00460067,0.03922967
1756814183847,-0.05741682,0.05194423,0.00024188,0.03105726,0.01076308,-0.00995840,0.99634251,0.07580472,-0.00454094,0.03917440
1756814183858,-0.09192986,0.15831023,0.04561418,0.00914048,0.00764505,-0.00290077,0.99633942,0.07585636,-0.00449774,0.03915801
1756814183869,-0.12716198,-0.00041997,-0.00682786,0.06209289,0.02130998,0.01868580,0.99630930,0.07620408,-0.00437841,0.03926265
1756814183880,0.11038239,0.05994602,0.08023372,0.03768874,0.03560904,0.01132960,0.99629212,0.07640760,-0.00418612,0.03932383
1756814183891,0.06151400,0.16403193,0.10303024,-0.00158496,-0.00438530,0.00237897,0.99629217,0.07639865,-0.00421090,0.03933727
1756814183902,0.06907627,-0.04560285,0.06679270,0.00996107,0.00076452,-0.01544144,0.99629133,0.07645393,-0.00420665,0.03925157
1756814183914,0.01209757,-0.04375313,0.03865314,-0.00582507,-0.00080691,-0.02699255,0.99629976,0.07642131,-0.00421117,0.03910041
1756814183925,-0.01917579,-0.09693057,-0.08205642,-0.00319490,-0.00092100,-0.02651593,0.99630686,0.07640358,-0.00421628,0.03895325
1756814183936,0.01359076,-0.02285788,-0.06264752,0.00176570,0.00193183,-0.01238322,0.99630884,0.07641338,-0.00420556,0.03888452
1756814183947,-0.02401744,-0.00055037,-0.06283922,0.00450861,0.00449606,0.00703191,0.99630544,0.07643885,-0.00418016,0.03892425
1756814183958,-0.06509163,0.08818216,0.03143828,0.00021613,0.00229223,0.00394277,0.99630455,0.07644005,-0.00416744,0.03894613
1756814183969,0.08544240,0.00728960,0.09178810,-0.00053730,0.00526662,0.01609735,0.99630137,0.07643704,-0.00413794,0.03903628
1756814183981,-0.07584145,0.03467178,-0.00432797,-0.00042880,-0.01067846,0.00197512,0.99630088,0.07643466,-0.00419721,0.03904724
1756814183992,0.08092566,0.15297142,-0.05118614,-0.00306298,-0.00290180,0.00170421,0.99630175,0.07641751,-0.00421346,0.03905678
1756814184003,-0.05131361,0.08094150,-0.06627036,0.02055048,0.00719617,-0.01389887,0.99629618,0.07653157,-0.00417352,0.03897965
1756814184014,-0.01826717,0.08488777,-0.06922712,0.03365430,0.01527640,-0.00240196,0.99628245,0.07672171,-0.00408721,0.03896607
1756814184025,-0.15019221,-0.07891893,0.07833563,0.05574385,0.03083802,0.02825587,0.99625312,0.07703109,-0.00391606,0.03912289
1756814184036,-0.08016249,0.04201033,0.07927008,0.06283765,0.01533350,0.03614264,0.99621821,0.07738298,-0.00383019,0.03932529
1756814184048,-0.03065332,-0.04220739,0.03515177,0.08182067,-0.01730011,0.04069621,0.99617352,0.07783709,-0.00392621,0.03955116
1756814184059,0.11338494,0.01908203,0.09214982,0.03945255,-0.00876842,0.04307587,0.99614643,0.07805802,-0.00397531,0.03979238
1756814184070,0.05834291,-0.15132170,-0.01436824,0.03602016,-0.00929374,0.00722821,0.99612893,0.07825793,-0.00402689,0.03983250
1756814184081,0.07459838,-0.12318099,-0.02897053,0.01331118,-0.01510749,0.00257886,0.99612209,0.07833314,-0.00411225,0.03984707
1756814184092,-0.05716637,0.02012119,0.03832123,0.00237661,-0.00839703,-0.01964445,0.99612522,0.07834633,-0.00415885,0.03973804
1756814184103,0.06338985,0.00444977,0.01405422,0.00330809,0.00916226,0.01936268,0.99611959,0.07836502,-0.00410708,0.03984744
1756814184115,-0.09067220,-0.06182816,0.00948542,-0.01424033,0.00466794,0.00651639,0.99612451,0.07828528,-0.00408094,0.03988393
1756814184126,0.20550796,-0.19839891,0.01526206,-0.01046469,0.00380039,0.02089051,0.99612451,0.07822824,-0.00406023,0.03999779
1756814184137,0.02901911,-0.12783672,-0.01630452,-0.01352599,-0.01332591,0.01588675,0.99612659,0.07815182,-0.00413552,0.04008755
1756814184148,0.01425544,-0.05529385,-0.16473450,-0.03651465,-0.01366301,-0.00277773,0.99614262,0.07795099,-0.00421067,0.04007227
1756814184159,0.13003539,-0.03278550,-0.19958701,-0.08189608,0.00675848,-0.03394581,0.99618581,0.07749647,-0.00417316,0.03988387
1756814184170,0.09141640,-0.10026023,-0.16689881,-0.04795556,0.00430996,-0.03532751,0.99621440,0.07723032,-0.00414924,0.03968780
1756814184181,-0.02717328,0.04051154,-0.08588549,-0.06885437,-0.01551638,-0.04447161,0.99625410,0.07684129,-0.00423691,0.03943654
1756814184193,-0.02010658,0.09191439,0.47902161,-0.06866290,-0.00728151,-0.03014385,0.99629017,0.07645678,-0.00427768,0.03926773
1756814184204,-0.04925585,0.05940101,0.14385628,-0.05029228,-0.03054006,-0.01754250,0.99631464,0.07617765,-0.00444718,0.03917037
1756814184215,-0.02045417,0.09415270,0.07135529,-0.01932198,-0.02305652,-0.02008778,0.99632663,0.07607042,-0.00457514,0.03905888
1756814184226,-0.03136514,0.05213808,-0.35488908,-0.01682397,-0.02529138,-0.00620409,0.99633452,0.07597620,-0.00471678,0.03902414
1756814184237,0.00271254,0.02666915,-0.06061204,0.00705218,-0.00622629,-0.00149667,0.99633170,0.07601534,-0.00475133,0.03901584
1756814184248,-0.04955143,0.02405521,-0.00431394,0.00491054,-0.01058380,0.00048552,0.99632921,0.07604284,-0.00481060,0.03901855
1756814184259,-0.03402604,0.08904995,0.05297115,0.03765749,-0.00643631,-0.00464462,0.99631407,0.07625184,-0.00484632,0.03899278
1756814184270,0.03489724,-0.00930504,0.07856199,0.05028581,-0.01152680,-0.00153422,0.99629289,0.07652841,-0.00490972,0.03898434
1756814184282,-0.01806988,-0.04869381,0.18482515,-0.00457703,-0.01200270,-0.01110591,0.99629699,0.07650255,-0.00497754,0.03892159
1756814184293,-0.28629231,-0.04572723,0.14608367,-0.00144695,-0.01784343,-0.01526210,0.99630044,0.07649445,-0.00507746,0.03883612
1756814184304,0.02426309,-0.05933618,-0.01853142,-0.00860140,-0.00779384,-0.00783707,0.99630563,0.07644628,-0.00512110,0.03879223
1756814184315,-0.03455799,-0.08385272,-0.08715755,-0.01637399,-0.00153920,0.00155717,0.99631222,0.07635541,-0.00512965,0.03880088
1756814184326,0.18527753,-0.01483926,-0.23922717,-0.03410352,-0.00418755,0.00431011,0.99632577,0.07616443,-0.00515310,0.03882501
1756814184338,0.06772516,-0.01919293,0.00590992,-0.05478732,-0.00059072,0.00790599,0.99634724,0.07586036,-0.00515638,0.03886889
1756814184349,0.02533717,-0.02340212,0.08115152,-0.05102713,-0.02061658,0.00773951,0.99636649,0.07557716,-0.00527080,0.03891185
1756814184360,0.05285129,-0.10533976,0.09941364,-0.04551569,-0.02781886,0.00082492,0.99638461,0.07532454,-0.00542519,0.03891642
1756814184371,0.04032414,0.01236210,0.00974270,-0.06344561,-0.03352247,-0.00374419,0.99641142,0.07496608,-0.00561459,0.03889527
1756814184382,-0.04348807,0.05217559,-0.01324574,-0.07633957,-0.02230371,-0.00083909,0.99644297,0.07453857,-0.00573950,0.03889057
1756814184393,0.05531698,-0.06848833,-0.16097669,-0.05092318,-0.02092114,0.00004949,0.99646301,0.07426104,-0.00585352,0.03889084
1756814184404,-0.04910147,0.02864560,-0.06603926,-0.02481638,-0.02520802,-0.00921763,0.99647464,0.07412083,-0.00599594,0.03883876
1756814184416,-0.04450568,0.07025217,-0.08775686,-0.02514125,-0.03421725,0.00071051,0.99648385,0.07397878,-0.00618927,0.03884278
1756814184427,0.05360380,-0.05795465,0.02957891,-0.03635788,-0.00442776,0.02342920,0.99649350,0.07377881,-0.00621362,0.03897164
1756814184438,-0.04018847,-0.00923441,0.03806678,-0.02160359,-0.03494986,0.01782720,0.99649726,0.07365891,-0.00640759,0.03907058
1756814184449,0.06870970,0.02703035,-0.05381882,-0.03354139,-0.06246604,0.03052840,0.99650206,0.07347276,-0.00675428,0.03924001
1756814184460,0.11834006,-0.10984382,-0.00654207,-0.03708067,-0.03552282,-0.00160017,0.99651633,0.07326511,-0.00695321,0.03923105
1756814184471,0.00021099,-0.12328253,0.01848725,-0.05033309,-0.02725725,-0.02424149,0.99654150,0.07298073,-0.00710721,0.03909408
1756814184483,-0.00944889,-0.06015878,0.03409096,-0.06101921,-0.02062198,-0.03514433,0.99657333,0.07263902,-0.00722269,0.03889728
1756814184494,-0.06985891,0.09258694,0.06307622,-0.05189661,-0.00957833,-0.02380174,0.99659905,0.07235099,-0.00727585,0.03876518
1756814184505,0.01238135,0.09892987,-0.05696329,-0.03851859,-0.00587807,-0.01352161,0.99661722,0.07213721,-0.00730848,0.03869013
1756814184516,0.01919186,0.01099974,-0.08423466,-0.03527261,-0.00205431,0.00407671,0.99663029,0.07194321,-0.00731978,0.03871255
1756814184527,0.06354643,0.02671256,-0.01629626,-0.05589928,0.00444111,0.00805162,0.99665164,0.07162459,-0.00729446,0.03875845
1756814184538,0.01945501,0.00876850,0.01122394,-0.05741346,-0.01678028,0.00451551,0.99667264,0.07130881,-0.00738675,0.03878328
1756814184550,0.08220880,-0.16529893,-0.02556746,-0.04446943,-0.01514769,-0.00747469,0.99669159,0.07105756,-0.00747234,0.03874105
1756814184561,0.07361745,-0.05659137,-0.01344266,-0.07031587,-0.01591540,-0.02531645,0.99672412,0.07066731,-0.00756067,0.03860054
1756814184572,-0.00587011,-0.03780513,-0.06630424,-0.07251462,-0.02267451,-0.04240996,0.99676168,0.07025398,-0.00768991,0.03835881
1756814184583,0.09158142,-0.13773276,-0.15065724,-0.06732970,-0.02753456,-0.04115436,0.99679430,0.06989376,-0.00783722,0.03813863
1756814184594,-0.11922218,0.11778753,0.34097055,-0.08507406,-0.02853102,-0.02907811,0.99683254,0.06941735,-0.00799700,0.03797579
1756814184605,0.00374192,-0.01710592,-0.09728995,-0.09636114,-0.02053502,-0.01325064,0.99687187,0.06887772,-0.00811199,0.03790159
1756814184617,-0.01449778,-0.02186722,-0.04800756,-0.09683976,-0.02774878,-0.00914750,0.99691054,0.06832574,-0.00827016,0.03784945
1756814184627,0.10053163,-0.07576364,-0.40600024,-0.10866096,-0.03995630,-0.02446664,0.99695417,0.06773354,-0.00848792,0.03771611
1756814184639,-0.05270224,-0.09447502,0.02976868,-0.09459150,-0.02004741,-0.04722187,0.99699942,0.06719909,-0.00860119,0.03744930
1756814184650,-0.06773455,-0.06355993,0.04637719,-0.08603934,0.01463073,-0.04505620,0.99704155,0.06672158,-0.00851999,0.03719924
1756814184661,-0.12151239,0.15446017,-0.01290746,-0.07198742,-0.00647253,-0.01913710,0.99707159,0.06632564,-0.00855559,0.03709399
1756814184672,-0.15224534,0.15655773,-0.09997619,-0.02575681,-0.00199053,0.01566060,0.99707786,0.06618012,-0.00856683,0.03718247
1756814184683,-0.07672477,0.06202912,-0.03027397,0.00375950,0.00818470,0.00956752,0.99707494,0.06620061,-0.00852223,0.03723461
1756814184694,0.04010456,0.40076106,0.32538079,0.01072850,0.02508219,0.00380884,0.99707128,0.06626176,-0.00837926,0.03725632
1756814184706,-0.12234264,0.18091058,0.08501486,-0.05263521,0.01080412,0.03556207,0.99708387,0.06596700,-0.00831876,0.03745547
1756814184717,-0.00021729,0.00341740,-0.02926923,0.07564368,0.01990138,-0.05114985,0.99706799,0.06637548,-0.00821129,0.03717926
1756814184728,-0.05639445,-0.17702740,-0.19997389,0.06313390,0.02025549,0.02560854,0.99703996,0.06672903,-0.00809786,0.03732267
1756814184739,-0.01641521,0.14409227,0.08418924,0.01449912,0.02885087,0.02255755,0.99703100,0.06681095,-0.00793485,0.03745012
1756814184750,-0.14069915,-0.07309161,-0.01018123,0.03831706,0.01986034,0.02705199,0.99701230,0.06701978,-0.00782661,0.03759755
1756814184761,0.01830800,-0.02856394,-0.00983263,0.03440063,0.02744279,0.01583975,0.99699677,0.06721758,-0.00766882,0.03768863
1756814184772,0.01987799,-0.01978093,0.00623501,0.03799060,0.01773297,0.02771732,0.99697780,0.06742463,-0.00757217,0.03783969
1756814184784,0.05162693,0.04799391,0.08546572,0.00922349,-0.00669834,0.02908266,0.99696774,0.06747674,-0.00761002,0.03800401
1756814184795,0.00142957,0.11075172,0.30082543,-0.00787203,-0.01845803,0.01318562,0.99696711,0.06743266,-0.00771338,0.03807785
1756814184806,0.10929983,0.03661186,0.00948256,-0.02842284,0.01035558,0.01365921,0.99697524,0.06727633,-0.00765643,0.03815297
1756814184817,0.02146838,-0.08952961,-0.10802831,-0.06289260,-0.01058327,-0.01094824,0.99699992,0.06693671,-0.00771358,0.03809385
1756814184828,-0.09341158,-0.12239346,-0.36787300,-0.00665332,-0.00559447,-0.00512803,0.99700330,0.06689912,-0.00774518,0.03806488
1756814184839,-0.03185408,0.09949337,-0.08829347,-0.02721238,-0.01164577,-0.01016480,0.99701507,0.06674809,-0.00780982,0.03800846
1756814184850,-0.04223734,0.01877007,0.02584938,-0.00382182,-0.00373917,-0.00189234,0.99701675,0.06672669,-0.00783076,0.03799787
1756814184861,-0.07344263,0.03682525,0.10002214,0.01447823,-0.00471717,0.00994728,0.99700898,0.06680777,-0.00785717,0.03805357
1756814184873,-0.07497074,0.10722515,0.09657614,0.01834381,-0.00788320,0.01340107,0.99699870,0.06691233,-0.00790211,0.03812996
1756814184884,-0.05618545,0.02005016,-0.01489639,0.02626660,0.00302866,0.02172614,0.99698468,0.06705548,-0.00788560,0.03824837
1756814184895,0.05647481,-0.05027269,0.12815991,0.04273562,0.03101789,0.02143830,0.99696547,0.06729266,-0.00771345,0.03836735
1756814184906,-0.02875709,0.04388209,0.12439327,0.01345289,0.01215621,0.01413781,0.99695772,0.06736935,-0.00764416,0.03844793
1756814184917,-0.05431162,0.00847359,0.12325812,0.02408083,-0.00282654,-0.00211632,0.99694909,0.06750179,-0.00765971,0.03843629
1756814184928,0.01279570,-0.02930038,0.03532417,0.03381742,0.00115487,-0.00053165,0.99693641,0.06769117,-0.00765324,0.03843332
1756814184940,0.04370029,-0.07549177,0.00071275,0.03054074,-0.00796199,0.00035780,0.99692437,0.06786220,-0.00769783,0.03843532
1756814184951,-0.01173063,-0.06373145,-0.01069120,0.02762371,0.00546346,-0.01103778,0.99691644,0.06801689,-0.00766723,0.03837351
1756814184962,-0.07008678,-0.00605835,-0.04977349,0.02582220,0.01214652,-0.00635202,0.99690845,0.06816149,-0.00759921,0.03833794
1756814184973,0.05390148,0.00997846,0.03480581,0.00750060,0.02674284,0.01517369,0.99690344,0.06820350,-0.00744945,0.03842291
1756814184984,-0.05706999,0.01170418,0.12707261,0.00523153,0.00398240,0.01621409,0.99689805,0.06823305,-0.00742695,0.03851452
1756814184995,0.12205863,-0.20882823,0.36454934,-0.00383367,0.02365627,0.03394687,0.99689322,0.06821197,-0.00729684,0.03870123
1756814185006,-0.00061575,-0.00775846,0.09223942,-0.01740280,-0.00560220,0.03551986,0.99689194,0.06811625,-0.00732765,0.03889659
1756814185018,0.03471393,-0.02390133,-0.04053662,-0.01549062,0.00240675,0.00055770,0.99689789,0.06802873,-0.00731406,0.03889974
1756814185029,0.04291833,0.04258146,-0.27529099,-0.03211785,0.00905934,-0.01319000,0.99691326,0.06785048,-0.00726378,0.03882653
1756814185040,0.00041646,-0.01989318,-0.11651552,-0.01164471,0.02147394,-0.04767702,0.99692865,0.06778643,-0.00714567,0.03856431
1756814185051,-0.00584803,0.03751998,-0.01865045,-0.02039754,0.01636030,-0.00429172,0.99693808,0.06767119,-0.00705323,0.03854006
1756814185062,-0.06573902,0.01030194,0.07507022,-0.03307252,0.01723179,0.00059729,0.99695106,0.06748763,-0.00695760,0.03854338
1756814185073,-0.04677400,0.00199553,0.10908893,-0.02433165,0.02228057,-0.00254449,0.99696160,0.06735259,-0.00683394,0.03852925
1756814185084,-0.01327050,0.01755059,0.07465114,-0.01613338,0.02099735,0.01689806,0.99696483,0.06726225,-0.00671636,0.03862388
1756814185096,-0.03722383,0.09476658,0.05118079,-0.02003636,0.01670007,0.01431431,0.99696987,0.06715104,-0.00662367,0.03870333
1756814185107,0.00296175,-0.00417374,-0.00879054,-0.00452730,0.02300617,0.00332641,0.99697170,0.06712569,-0.00649484,0.03872196
1756814185118,0.00769738,0.03415499,-0.00552440,-0.00177432,0.02045026,-0.00384371,0.99697396,0.06711567,-0.00637929,0.03870024
1756814185129,-0.05540644,0.00602565,-0.05625691,0.00392638,0.01742767,0.00091405,0.99697291,0.06713746,-0.00628257,0.03870531
1756814185140,0.07901136,-0.02884966,-0.02835898,0.04360713,0.02110511,0.00517879,0.99695605,0.06738166,-0.00616438,0.03873431
1756814185151,-0.01640736,0.07745643,0.14245147,0.00748520,0.02551991,0.01114058,0.99695178,0.06742245,-0.00602530,0.03879503
1756814185163,0.05226531,-0.04991431,0.11271273,0.00046701,0.02370360,0.02232681,0.99694756,0.06742504,-0.00589374,0.03891894
1756814185174,-0.02716115,-0.01294724,0.02634382,0.00402803,0.00036735,0.00386028,0.99694516,0.06744800,-0.00589165,0.03894095
1756814185185,0.08866213,-0.08736311,0.10181056,-0.00645991,0.00610741,0.01059564,0.99694549,0.06741247,-0.00585806,0.03899922
1756814185196,0.03870323,0.11048764,0.15159046,-0.01254429,0.01755005,-0.01275875,0.99695360,0.06734223,-0.00575978,0.03892777
1756814185207,-0.06390175,-0.07510392,-0.08546437,-0.01614528,0.02000780,-0.01194557,0.99696287,0.06725262,-0.00564873,0.03886148
1756814185218,-0.06913578,0.02269981,-0.06093665,-0.00321827,0.06011365,-0.00800143,0.99696768,0.06723460,-0.00531210,0.03881667
1756814185229,-0.00032668,-0.01954114,-0.22035757,-0.00293603,0.05878173,0.04211990,0.99696128,0.06721816,-0.00498292,0.03905254
1756814185241,-0.08824697,0.07002738,0.06450359,-0.00533588,0.04275964,0.04502581,0.99695455,0.06718827,-0.00474346,0.03930468
1756814185252,-0.01550224,-0.00665230,0.06390964,-0.01011940,0.05444654,0.02689985,0.99695382,0.06713161,-0.00443856,0.03945532
1756814185263,-0.04857597,-0.06247691,-0.02872569,-0.00489610,0.04838776,0.00508855,0.99695569,0.06710443,-0.00417001,0.03948356
1756814185274,0.06524818,-0.04220136,-0.07440392,-0.01645569,0.06857731,0.00105407,0.99696319,0.06701228,-0.00378598,0.03948947
1756814185286,0.00600864,0.03721675,-0.04536633,-0.02573361,0.06103671,-0.00517881,0.99697536,0.06686689,-0.00344112,0.03946021
1756814185297,0.05423537,-0.04527880,-0.01061951,-0.02493435,0.04676792,0.01389200,0.99698257,0.06672601,-0.00317688,0.03953870
1756814185308,0.13090963,-0.00973629,0.03626585,-0.02097131,0.01895206,0.02364451,0.99698560,0.06660437,-0.00306696,0.03967583
1756814185319,0.07405036,0.08943220,0.18491898,-0.02070515,-0.00821254,0.00508253,0.99699143,0.06649981,-0.00310843,0.03970150
1756814185330,0.18757527,0.03626831,-0.02767829,-0.00376231,-0.03431606,0.01230823,0.99698950,0.06647912,-0.00329717,0.03976920
1756814185341,0.04893949,-0.11879371,-0.07163865,-0.00593349,-0.00564510,0.00094288,0.99699147,0.06644471,-0.00332991,0.03977467
1756814185353,0.10376891,0.04413406,-0.14212255,0.01689404,-0.02941997,-0.00106951,0.99698472,0.06654100,-0.00349761,0.03976857
1756814185369,-0.03020769,0.03698364,-0.14544760,0.02431029,-0.03744450,0.00229112,0.99696914,0.06674521,-0.00381214,0.03978781
1756814185379,0.30143536,-0.15155487,0.15886659,0.03353124,-0.03325699,-0.00875712,0.99695921,0.06690951,-0.00397510,0.03974490
1756814185391,-0.08155598,0.09206441,0.26173037,-0.01957124,-0.01124327,0.00499601,0.99696540,0.06679600,-0.00404031,0.03977388
1756814185401,-0.00753476,-0.05555282,0.30339226,-0.00822012,-0.04015435,-0.00503681,0.99696847,0.06675284,-0.00425112,0.03974744
1756814185413,0.04437493,-0.09273570,-0.02590048,-0.00870127,-0.00982902,-0.01928258,0.99697605,0.06670237,-0.00430813,0.03963560
1756814185424,-0.02180209,0.06989393,-0.34037123,-0.01972382,-0.00050082,-0.04494701,0.99699386,0.06658896,-0.00431101,0.03937715
1756814185455,-0.08468293,0.03295319,-0.13422646,0.00336091,0.00154870,-0.01236758,0.99699796,0.06664005,-0.00428747,0.03918917
1756814185463,0.74624991,0.53162058,0.57977243,-0.00051410,0.05818993,-0.03104391,0.99700387,0.06663802,-0.00405762,0.03906654
1756814185475,-0.64329986,-0.19711522,-0.24245115,0.03876075,0.06780092,0.03884271,0.99698013,0.06687640,-0.00364064,0.03930543
1756814185486,-0.11978286,0.07063208,0.06243209,0.01560005,0.03478941,0.03360353,0.99696775,0.06696220,-0.00344930,0.03949025
1756814185510,0.05003148,-0.04787512,-0.04382333,0.00044747,0.02806937,0.02657914,0.99695586,0.06696754,-0.00311387,0.03980787
1756814185517,0.05744859,0.25517175,0.38236977,0.07085765,0.05819908,0.02950721,0.99693652,0.06720492,-0.00291891,0.03990672
1756814185574,0.01688838,-0.05789313,-0.08470084,-0.00868747,-0.00487611,-0.01050590,0.99696490,0.06695559,-0.00305885,0.03960520
1756814185577,3.39262874,1.70723249,-5.79873978,-0.01722485,-0.07191498,-0.03359773,0.99696887,0.06692544,-0.00318470,0.03954640
1756814185602,-0.54789541,-0.12793115,0.71360310,0.02702172,-0.00292536,0.02266789,0.99693515,0.06725916,-0.00322083,0.03982635
1756814185621,-0.06551205,0.05388071,0.03467181,0.02110010,0.01236951,0.00622291,0.99691937,0.06746278,-0.00310146,0.03988640
1756814185637,0.02706997,-0.03799606,0.06862277,0.03888518,-0.00002989,0.00724972,0.99689639,0.06776803,-0.00310170,0.03994331
1756814185651,-0.01697766,-0.12976564,-0.10936852,0.03735199,-0.02229337,0.03790240,0.99686866,0.06801828,-0.00325106,0.04019726
1756814185662,0.14275105,-0.12742818,-0.11148539,0.02433490,0.01197766,0.02749134,0.99685266,0.06816064,-0.00318100,0.04035808
1756814185673,-0.01193332,-0.06216918,0.01136366,-0.01144220,0.01531057,0.00693641,0.99685555,0.06810057,-0.00310062,0.04039450
1756814185683,-0.03787680,-0.05249408,-0.10591777,0.00130747,0.00381412,-0.00151075,0.99685547,0.06810704,-0.00308174,0.04038702
1756814185694,-0.04861397,0.09031857,0.31441011,0.00688875,-0.00082214,0.01092705,0.99685001,0.06814803,-0.00308663,0.04045203
1756814185707,0.03496808,-0.00782276,0.11005520,-0.00700035,-0.00129762,0.00072488,0.99685268,0.06810603,-0.00309441,0.04045638
1756814185718,0.11892158,-0.07555632,0.07653405,-0.02766002,0.01178826,0.01007494,0.99686170,0.06794145,-0.00302427,0.04051633
1756814185730,-0.01852482,-0.08986567,-0.25377888,-0.04476486,-0.00980934,0.01283405,0.99687665,0.06767286,-0.00308313,0.04059333
1756814185742,0.15481208,-0.22814819,-0.16954279,-0.05449770,-0.00441707,-0.00634090,0.99689948,0.06735678,-0.00310875,0.04055656
1756814185754,0.02629364,-0.08762124,-0.08205509,-0.07463880,0.00364062,-0.02995293,0.99693606,0.06692014,-0.00308745,0.04038133
1756814185766,-0.05735825,-0.06636856,-0.04414048,-0.10533878,0.00221456,-0.04893922,0.99699152,0.06627231,-0.00307383,0.04008036
1756814185777,-0.09911884,-0.01372330,-0.00827569,-0.10149200,0.01533521,-0.04380398,0.99703796,0.06571918,-0.00299025,0.03984162
1756814185789,-0.04899911,0.17802287,0.28314484,-0.04949610,-0.00157162,-0.00740731,0.99705871,0.06542962,-0.00299945,0.03979829
1756814185800,-0.02463400,0.18367048,0.34745156,-0.01340107,0.01800969,0.00735510,0.99706238,0.06535257,-0.00289589,0.03984058
1756814185811,-0.17766139,0.13997783,0.11992842,-0.00886758,0.03070845,0.02657882,0.99706018,0.06530335,-0.00272546,0.03998810
1756814185823,-0.16144640,-0.01170387,-0.35248025,0.00068466,0.03300734,0.00817480,0.99705848,0.06530743,-0.00252907,0.04003674
1756814185835,-0.04863203,0.10588456,-0.24253993,-0.01006919,0.04744348,0.02942249,0.99705609,0.06524902,-0.00225389,0.04020739
1756814185845,-0.08094677,0.15093136,-0.05790124,-0.01081545,0.04177629,0.02516752,0.99705495,0.06519278,-0.00203666,0.04033826
1756814185857,0.09131659,-0.06796890,0.12655744,0.01268291,0.02153466,0.01395866,0.99704691,0.06526825,-0.00190853,0.04042131
1756814185868,-0.05965108,-0.05392680,0.01023802,0.01810592,-0.01179020,-0.00322767,0.99704097,0.06536783,-0.00197337,0.04040356
1756814185879,0.12002901,-0.07395839,0.00575957,-0.01033710,0.00904751,-0.00285820,0.99704556,0.06530943,-0.00192225,0.04038741
1756814185891,-0.01158227,0.07468669,0.13595311,-0.00819785,-0.00624070,-0.02181609,0.99705351,0.06526311,-0.00195751,0.04026415
1756814185902,0.02039752,0.00643154,0.02680265,-0.00925778,-0.00488877,-0.00095620,0.99705706,0.06521126,-0.00198489,0.04025879
1756814185913,-0.08737089,0.00089093,0.07079952,-0.02507800,-0.00029469,0.01255347,0.99706339,0.06507083,-0.00198654,0.04032909
1756814185924,0.05550516,-0.02827229,-0.09788390,-0.05470918,0.00614941,0.02518390,0.99707769,0.06476446,-0.00195210,0.04047012
1756814185936,0.03113568,-0.04745847,0.04723060,-0.02874956,-0.02511366,-0.00308480,0.99708884,0.06459915,-0.00209651,0.04045239
1756814185947,0.00081635,-0.00306980,0.03737187,-0.04670926,-0.03151327,-0.00674053,0.99710674,0.06433991,-0.00227141,0.04041498
1756814185958,0.08916992,0.04179032,-0.01273961,-0.03651724,-0.01762715,-0.02437859,0.99712554,0.06413176,-0.00237188,0.04027602
1756814185969,-0.06472699,-0.02389220,-0.13223295,-0.00446959,-0.01766666,-0.02615462,0.99713268,0.06410718,-0.00246905,0.04013217
1756814185981,0.00770591,0.14298781,0.08321994,0.00438425,0.01488084,-0.01098737,0.99713380,0.06413217,-0.00238423,0.04006954
1756814185992,-0.04804905,0.19491420,0.37999715,0.01659091,-0.00457035,-0.00027814,0.99712787,0.06422425,-0.00240959,0.04006800
1756814186003,-0.04245178,0.24398898,0.23544726,0.06231619,0.00507438,0.03516944,0.99709747,0.06457322,-0.00238118,0.04026495
1756814186014,-0.06677155,0.08753440,-0.02610179,0.08763490,-0.00406020,0.06641961,0.99705000,0.06506836,-0.00240412,0.04064022
1756814186025,-0.12297041,0.03986082,-0.39240807,0.03197657,-0.01334194,0.03484977,0.99703032,0.06524583,-0.00247816,0.04083363
1756814186036,0.05230190,-0.03743596,-0.02334194,0.03394813,-0.00277091,0.02112733,0.99701328,0.06543254,-0.00249340,0.04094983
1756814186048,0.05334590,0.01100732,0.02855649,0.05701532,-0.02331449,0.01287207,0.99698854,0.06575753,-0.00262630,0.04102320
1756814186059,0.06265165,0.10687452,0.03348035,0.09160640,-0.03948604,0.01143991,0.99695133,0.06627052,-0.00284742,0.04108727
1756814186071,0.15042859,0.13117709,0.05986309,0.11306925,-0.06165424,0.04062460,0.99689574,0.06693763,-0.00321118,0.04132695
1756814186081,-0.07898431,0.27528820,0.07763201,0.11458420,-0.09885696,0.03885174,0.99684537,0.06753347,-0.00372523,0.04152898
1756814186092,-0.05111103,-0.11354149,0.26552562,0.12314092,-0.09118056,0.02754476,0.99678994,0.06822306,-0.00423585,0.04168323
1756814186104,0.07054709,0.08903396,0.11308917,0.07696907,-0.07821043,0.04076153,0.99674881,0.06865409,-0.00467382,0.04191150
1756814186115,-0.01379188,0.07067607,-0.05828716,0.08135236,-0.11467988,0.04459747,0.99670399,0.06910559,-0.00531030,0.04215901
1756814186126,0.12551060,-0.06327394,-0.25548551,0.09736724,-0.10913506,0.02903672,0.99665570,0.06965085,-0.00592145,0.04232162
1756814186137,-0.02058182,-0.12689652,0.00064080,0.07796840,-0.12214467,0.03634943,0.99661173,0.07009137,-0.00661157,0.04252699
1756814186148,0.03911882,-0.05900714,-0.06871384,0.05274344,-0.10669963,0.02619609,0.99658050,0.07038673,-0.00720909,0.04267369
1756814186160,0.13572595,-0.13118067,-0.12730354,0.01001649,-0.08079791,0.04667249,0.99656210,0.07044232,-0.00765752,0.04293272
1756814186171,-0.02607805,-0.24893145,-0.21925442,-0.01005490,-0.07236757,0.02575467,0.99655661,0.07038551,-0.00806639,0.04307824
1756814186182,0.08067469,-0.12488681,0.04505548,-0.03295613,-0.05137235,0.00167467,0.99656685,0.07020096,-0.00835408,0.04308761
1756814186193,0.07403948,-0.42640238,0.24063297,-0.02616332,-0.06504956,0.00820548,0.99657201,0.07005575,-0.00871510,0.04313315
1756814186204,0.02637645,-0.39403451,0.00194882,-0.01552345,-0.05705553,-0.01964136,0.99658003,0.06996882,-0.00903462,0.04302316
1756814186215,0.11403526,-0.27779009,-0.09169437,-0.03927634,-0.02752092,-0.04501703,0.99660511,0.06974691,-0.00919011,0.04276882
1756814186227,-0.03630603,0.00347197,-0.54718921,-0.01991239,-0.00414097,-0.03861055,0.99662180,0.06963640,-0.00921309,0.04255453
1756814186238,0.05704834,0.18593190,-0.17843747,-0.09103045,-0.00219014,-0.03847229,0.99666674,0.06912208,-0.00922547,0.04233716
1756814186249,0.05312916,-0.21679614,-0.13775306,-0.09309994,0.03233215,-0.01627778,0.99670792,0.06860537,-0.00904602,0.04224682
1756814186260,-0.00031786,-0.04549619,-0.07977241,-0.08666772,0.04246423,-0.04517414,0.99675321,0.06812870,-0.00881247,0.04199836
1756814186271,0.07939239,-0.02084720,0.06657345,-0.11561430,0.03844952,0.00414905,0.99679895,0.06746970,-0.00859331,0.04202201
1756814186292,-0.08280934,0.18578550,0.19353782,-0.04750314,0.00670514,-0.01501262,0.99683963,0.06697329,-0.00852324,0.04186513
1756814186294,15.13969786,-30.65485240,-12.04637677,-0.45576760,-0.03453984,-0.28634955,0.99688183,0.06651752,-0.00855778,0.04157878
1756814186303,-2.97072367,6.13355109,2.82087260,-0.08477472,-0.01516465,-0.07040503,0.99691727,0.06616147,-0.00862147,0.04128308
1756814186314,0.04718383,0.10899797,0.05431317,-0.08710072,-0.02493833,-0.06369068,0.99696341,0.06566935,-0.00876237,0.04092323
1756814186326,-0.13088129,0.33593859,-0.25521501,-0.05542282,-0.01536445,-0.05733940,0.99699705,0.06535067,-0.00885072,0.04059352
1756814186337,-0.05207481,0.08727231,-0.10354863,-0.05459058,-0.00478293,-0.04340893,0.99702694,0.06504223,-0.00887774,0.04034826
1756814186348,-0.03025529,0.19741034,0.09683155,-0.07424528,0.00255275,-0.03510897,0.99706266,0.06461903,-0.00886319,0.04014814
1756814186360,-0.02924090,-0.00071247,0.01095732,-0.02709314,-0.00055177,-0.01738865,0.99707649,0.06446596,-0.00886631,0.04004990
1756814186371,0.04149663,0.00517795,-0.01590623,-0.01591093,-0.00610564,-0.02580214,0.99708794,0.06437526,-0.00890111,0.03990282
1756814186381,0.03174325,-0.01148557,-0.04057235,-0.02503386,-0.00946768,-0.03967516,0.99710444,0.06424258,-0.00895129,0.03969255
1756814186393,-0.04509637,-0.26033304,0.29986023,-0.01616007,0.00964370,-0.02909654,0.99711722,0.06415209,-0.00889728,0.03952961
1756814186404,-0.07077574,0.12286466,0.05504335,-0.00968093,0.01036867,-0.02687868,0.99712745,0.06409642,-0.00883766,0.03937505
1756814186415,-0.09488702,0.13277395,-0.04007570,0.01069428,-0.00262118,-0.03864280,0.99713195,0.06415578,-0.00885221,0.03916059
1756814186427,0.06807014,0.38907364,-0.27220081,0.02572873,0.03274926,-0.03784279,0.99713258,0.06429986,-0.00866881,0.03894867
1756814186432,0.39392659,-0.14068848,-0.34650383,0.03702232,0.06517899,-0.03051245,0.99713086,0.06439982,-0.00849283,0.03886628
1756814186439,-0.38625454,0.41114251,0.43164693,0.00964652,0.03286015,-0.03010236,0.99713383,0.06443454,-0.00837453,0.03875791
1756814186448,0.15863852,0.04134175,-0.21652508,0.02680581,0.05666673,-0.05761835,0.99713799,0.06454981,-0.00813087,0.03851015
1756814186459,-0.13766963,0.01220045,0.23036227,0.01890809,0.05384469,-0.03218794,0.99714045,0.06465380,-0.00783472,0.03833312
1756814186470,-0.12305589,0.04599705,0.07506095,0.04237362,0.05939434,-0.03199524,0.99713468,0.06488262,-0.00751399,0.03816035
1756814186481,-0.08356573,-0.04034228,0.05349967,0.05224572,0.05059611,0.01068811,0.99711558,0.06517259,-0.00723318,0.03821967
1756814186492,0.19261194,0.30905086,0.40536242,0.01533475,0.06380865,-0.01423868,0.99711554,0.06525923,-0.00687267,0.03813922
1756814186503,-0.04117191,0.08206768,0.00748337,0.00791456,0.07159812,0.00270473,0.99711475,0.06530315,-0.00647530,0.03815423
1756814186514,-0.04762058,-0.05466541,-0.02443012,0.04038217,0.05527055,0.01233173,0.99709937,0.06552727,-0.00616854,0.03822267
1756814186525,-0.31884627,-0.06839223,-0.23462586,0.00313453,0.02204219,0.01405348,0.99709598,0.06554467,-0.00604621,0.03830067
1756814186536,-0.05137883,-0.12995608,0.08807672,-0.00381110,0.06060036,-0.02135703,0.99710383,0.06552371,-0.00571291,0.03818320
1756814186547,-0.18349826,-0.14405797,-0.11473689,0.01517127,0.07515352,-0.05797744,0.99711287,0.06560791,-0.00529581,0.03786143
1756814186559,-0.08865154,0.04063191,-0.04974907,-0.01664477,0.08775204,0.00622271,0.99712022,0.06551387,-0.00480001,0.03789659
1756814186570,-0.15951022,-0.12197548,-0.05850570,0.02503163,0.09547131,0.02722288,0.99710797,0.06565029,-0.00427969,0.03804495
1756814186581,-0.03802243,0.07362599,0.13752418,0.00877869,0.05959598,0.05534935,0.99709423,0.06569945,-0.00394595,0.03835491
1756814186592,0.06726866,-0.19754498,0.31522559,-0.02339768,0.04733343,0.04038729,0.99709514,0.06556959,-0.00368325,0.03857906
1756814186603,-0.00278165,-0.26879174,-0.03676611,-0.00164495,0.00497640,0.01305113,0.99709304,0.06556046,-0.00365563,0.03865149
1756814186614,0.14827387,-0.03295647,0.05297223,-0.03438839,0.02219335,0.01530105,0.99710272,0.06536961,-0.00353246,0.03873641
1756814186625,-0.04826762,0.14893894,-0.16894639,-0.02632416,0.01072413,-0.01572175,0.99711576,0.06522482,-0.00347348,0.03864994
1756814186636,-0.05630517,0.01765481,-0.20293349,-0.00693712,0.00200108,0.00717923,0.99711679,0.06518563,-0.00346217,0.03869050
1756814186647,-0.01903900,0.05883627,-0.03803225,-0.00363788,0.00345545,0.04922427,0.99710754,0.06516544,-0.00344299,0.03896370
1756814186659,-0.07733986,0.12667577,-0.05220068,-0.00391952,0.00139432,0.06035504,0.99709573,0.06514349,-0.00343518,0.03930169
1756814186670,0.02088796,0.16721254,0.06157725,0.01889187,-0.00653483,0.05935736,0.99707589,0.06524740,-0.00347112,0.03962815
1756814186681,0.04528807,0.07486368,0.02345599,0.02400512,-0.04900533,0.03943071,0.99705746,0.06538062,-0.00374310,0.03984699
1756814186692,0.06113576,0.06343364,0.21334022,0.03374728,-0.06235537,0.01719525,0.99703998,0.06556792,-0.00408918,0.03994243
1756814186703,0.12322393,0.01354541,0.17439716,0.01885667,-0.05423826,-0.01531759,0.99703522,0.06567258,-0.00439020,0.03985741
1756814186714,-0.10223677,0.04991582,-0.03239253,0.00077239,-0.05953941,-0.03368964,0.99704093,0.06567690,-0.00472362,0.03966875
1756814186725,-0.02514818,-0.13563663,-0.25966197,0.03606057,-0.02543559,-0.00794450,0.99702891,0.06587523,-0.00486352,0.03962506
1756814186736,-0.10790847,0.04631476,-0.13283091,0.04236175,0.03123110,0.01822440,0.99700982,0.06611458,-0.00468706,0.03972803
1756814186748,-0.10300094,0.20791071,-0.00193292,-0.01342068,0.04694069,0.08558824,0.99699690,0.06604009,-0.00442654,0.04020304
1756814186759,-0.13939053,0.05124848,0.13617132,0.00484346,0.06738889,0.06640407,0.99698123,0.06606794,-0.00403905,0.04058486
1756814186770,0.07716912,-0.02486366,0.09761325,0.03311080,0.03923804,0.06405402,0.99695630,0.06624509,-0.00382913,0.04092755
1756814186781,0.15668663,-0.08725274,0.12295152,-0.01258566,0.01395812,0.04214893,0.99695147,0.06617335,-0.00374957,0.04116780
1756814186792,-0.01859065,-0.30760339,0.22813402,-0.03331900,0.04187777,-0.04576572,0.99697440,0.06599343,-0.00352343,0.04092067
1756814186804,0.10125934,-0.14218183,0.08376448,-0.04557433,0.02691522,-0.03585200,0.99700091,0.06572909,-0.00336732,0.04071272
1756814186814,0.07228023,-0.19339990,0.01738882,-0.01063378,0.03784413,-0.06697788,0.99701989,0.06567220,-0.00316485,0.04035439
1756814186825,0.17138831,0.16391527,-0.08405491,-0.03751671,-0.00093782,-0.03022336,0.99703998,0.06546774,-0.00316996,0.04018968
1756814186836,0.03408243,0.07569067,-0.10380384,0.01061342,-0.03131640,-0.02635622,0.99704144,0.06552717,-0.00334534,0.04004208
1756814186848,0.13179531,-0.02202142,0.04024604,0.00958275,-0.02312576,-0.01394158,0.99704057,0.06558275,-0.00347947,0.03996122
1756814186859,-0.11965420,0.16682298,0.12670123,0.00453395,-0.02008382,-0.04539103,0.99704830,0.06560701,-0.00358691,0.03971838
1756814186870,0.03335844,-0.00585943,-0.21952919,0.04109919,-0.01921528,0.00245573,0.99703190,0.06584127,-0.00369644,0.03973238
1756814186881,-0.04341500,0.12643860,-0.07535145,0.02003054,0.01719620,-0.01223826,0.99702776,0.06594844,-0.00360444,0.03966690
1756814186892,-0.12653780,0.26371956,0.14250825,0.05868698,0.04059423,0.00747106,0.99700530,0.06627415,-0.00337914,0.03970837
1756814186903,0.00658332,0.11926360,0.27941676,-0.01009612,0.00663689,0.01677492,0.99700544,0.06621610,-0.00334098,0.03980482
1756814186914,-0.17078302,-0.09332889,0.14416142,0.01550478,0.00193712,-0.00576000,0.99700115,0.06629982,-0.00333052,0.03977372
1756814186925,0.20523040,-0.33496463,-0.10693403,0.01445180,0.00633504,-0.01330122,0.99699885,0.06638075,-0.00329505,0.03969923
1756814186937,0.14338091,-0.22077334,-0.16321903,0.03255799,0.04486778,0.00557280,0.99698625,0.06656308,-0.00304379,0.03973044
1756814186948,-0.08310467,0.01931117,-0.21715095,0.00463636,0.02595355,-0.00708168,0.99698653,0.06658881,-0.00289974,0.03969113
1756814186959,0.03390719,-0.08498239,-0.15983309,0.00891614,0.07446491,0.01093353,0.99698184,0.06663919,-0.00247902,0.03975291
1756814186970,0.02333710,0.17727995,0.08035203,-0.01117840,0.07939768,0.02084830,0.99698236,0.06657715,-0.00203836,0.03986862
1756814186981,-0.06077438,0.18359723,0.12284011,0.02975799,0.01149667,-0.01503235,0.99697498,0.06673784,-0.00197628,0.03978744
1756814186992,0.08158154,0.24205871,0.16856175,-0.07234207,-0.00591213,0.04053166,0.99699271,0.06633634,-0.00200909,0.04001239
1756814187003,-0.09778093,0.15540940,0.01064282,0.02101144,0.00484218,-0.07592630,0.99700182,0.06645295,-0.00198222,0.03959100
1756814187014,0.13668607,-0.28554876,-0.26566837,0.00659867,0.00358294,0.03121968,0.99699244,0.06648991,-0.00196215,0.03976583
1756814187025,0.03120480,-0.14899292,0.08324067,-0.02001264,0.01345305,0.00350832,0.99699915,0.06637984,-0.00188816,0.03978513
1756814187036,-0.06965428,-0.09576451,0.02205857,-0.01881921,0.05119554,0.00342358,0.99700583,0.06627539,-0.00160402,0.03980413
1756814187047,-0.08955327,0.08075497,-0.04992225,0.03635822,0.02933202,0.01568576,0.99698902,0.06647900,-0.00143977,0.03989197
1756814187059,-0.04038938,-0.03743433,-0.17351848,0.05225903,0.01195952,0.04381117,0.99696023,0.06676642,-0.00137399,0.04013293
1756814187070,0.19214116,0.08695670,0.17939313,-0.01291776,0.05317501,0.04350222,0.99695565,0.06669473,-0.00107887,0.04037437
1756814187081,-0.04200469,-0.02222570,0.19580654,-0.03212287,0.02514999,0.02556823,0.99696205,0.06651323,-0.00093677,0.04051883
1756814187092,0.01877848,-0.25321185,0.23062416,-0.02138380,0.00063261,0.03023016,0.99696313,0.06639562,-0.00093329,0.04068509
1756814187103,-0.03178306,-0.20264902,0.00545115,0.01796378,-0.00779692,-0.03333415,0.99696397,0.06649532,-0.00097656,0.04050009
1756814187114,0.10594030,0.04312065,-0.02510453,-0.00956341,0.01104881,-0.00319447,0.99696833,0.06644177,-0.00091469,0.04048220
1756814187125,0.26756337,0.20122615,-0.10407502,-0.00806210,0.01972913,-0.01677078,0.99697512,0.06639743,-0.00080618,0.04038996
1756814187136,-0.05516663,-0.04887233,-0.19299352,0.03674077,0.01291636,-0.03326691,0.99696903,0.06660134,-0.00073449,0.04020533
1756814187147,0.12775923,0.12317858,0.05321411,0.04260961,0.03441497,-0.00612202,0.99695470,0.06683782,-0.00054349,0.04017135
1756814187159,0.09791581,0.08640685,0.02132049,0.00149088,0.00213649,0.01575046,0.99695051,0.06684632,-0.00053131,0.04026113
1756814187170,-0.04693989,-0.06540053,0.03470375,0.00691422,-0.01886810,0.00177106,0.99694748,0.06688469,-0.00063603,0.04027096
1756814187181,0.26726486,-0.08617058,0.08175623,-0.00408424,-0.03028629,-0.00674597,0.99695039,0.06686202,-0.00080412,0.04023352
1756814187192,-0.05620741,0.07316941,-0.16133552,-0.02210513,-0.03305238,-0.01689359,0.99696223,0.06673934,-0.00098756,0.04013976
1756814187203,-0.09793059,0.01105881,-0.09558406,-0.03332088,-0.02593133,-0.03378156,0.99698215,0.06655274,-0.00113278,0.03995058
1756814187214,0.09936057,0.01156496,-0.14594307,-0.03113048,-0.00604387,-0.00955071,0.99699550,0.06638308,-0.00116571,0.03989853
1756814187225,-0.00277873,-0.17012372,-0.07988885,-0.02174193,-0.00151426,-0.00078527,0.99700370,0.06626242,-0.00117412,0.03989417
1756814187236,0.06132967,0.06160391,0.04575492,-0.05912311,0.01021127,0.02208241,0.99702075,0.06593133,-0.00111694,0.04001784
1756814187248,0.12527426,-0.20057607,-0.04737654,-0.02015051,-0.02254706,0.01441899,0.99702478,0.06581949,-0.00124207,0.04009786
1756814187259,0.16079128,0.01421059,0.23801222,-0.04324583,-0.08165702,0.01888070,0.99703571,0.06557948,-0.00169527,0.04020265
1756814187270,0.09040885,-0.31325409,-0.01948120,-0.02193977,-0.12245131,-0.00086274,0.99704263,0.06545552,-0.00238712,0.04019777
1756814187281,0.21038971,-0.16978263,0.07971249,-0.05937712,-0.12438738,-0.06810614,0.99707656,0.06513488,-0.00305881,0.03983000
1756814187292,-0.06894225,0.06929242,-0.01408037,-0.06598783,-0.08511267,-0.11896513,0.99712717,0.06475215,-0.00355246,0.03914000
1756814187303,0.04985449,-0.11326191,-0.27671349,-0.04888965,-0.01565783,-0.11026665,0.99716754,0.06448570,-0.00363780,0.03853905
1756814187315,-0.31000811,0.24208219,-0.16800555,-0.03690272,0.02072864,-0.07635777,0.99719773,0.06427905,-0.00352172,0.03811145
1756814187325,-0.23723700,0.30445013,-0.11852782,-0.00062827,0.02751874,-0.00995759,0.99720052,0.06427565,-0.00337312,0.03805768
1756814187336,-0.18665211,0.16594304,0.17939942,0.01095924,0.02672016,0.06712931,0.99718280,0.06433648,-0.00322482,0.03843024
1756814187348,-0.16285146,0.02699718,0.09602454,0.03854280,0.01828556,0.04412603,0.99715941,0.06455424,-0.00312151,0.03867956
1756814187359,-0.01019879,0.00444486,0.00685940,-0.01480510,-0.00485701,-0.00696081,0.99716614,0.06447208,-0.00314846,0.03864092
1756814187370,0.12252852,-0.12898375,-0.08901270,-0.02466362,0.01821097,0.01006019,0.99717313,0.06433519,-0.00304739,0.03869676
1756814187381,-0.05606214,-0.18422033,-0.31246396,-0.06812940,-0.00238893,-0.02999193,0.99720359,0.06396048,-0.00306053,0.03853180
1756814187392,0.25990229,-0.23674233,-0.08026535,-0.07469572,-0.00873527,-0.03449187,0.99723732,0.06354592,-0.00310901,0.03834037
1756814187403,-0.07520817,-0.13576223,-0.09309587,-0.04448599,-0.01697006,-0.05874745,0.99726545,0.06329680,-0.00320404,0.03801139
1756814187414,-0.09255315,0.03338031,-0.05987074,-0.04498274,0.01884930,-0.02783581,0.99728767,0.06304490,-0.00309849,0.03785551
1756814187438,-0.10795178,0.17371783,0.04273616,-0.00288247,0.01886455,-0.01239675,0.99729600,0.06301103,-0.00287683,0.03770984
1756814187449,-0.19190289,0.16960781,-0.02339590,0.04468628,0.02510715,0.01090234,0.99727856,0.06325680,-0.00273874,0.03776981
1756814187460,0.02988003,0.15201260,0.07145094,-0.02436641,0.00640547,0.01866291,0.99728329,0.06312157,-0.00270319,0.03787339
1756814187471,0.05929141,-0.01167082,-0.03604047,0.02223985,0.00565239,0.01962965,0.99727141,0.06324500,-0.00267182,0.03798233
1756814187482,0.02504222,0.03791737,0.00715432,-0.00132850,-0.02248496,0.01943195,0.99726735,0.06323749,-0.00279886,0.03809212
1756814187493,0.15008595,-0.22793048,-0.00444520,-0.00117760,-0.03111675,0.00623970,0.99726597,0.06323107,-0.00296845,0.03812613
1756814187505,0.06366395,-0.14003433,0.14152464,-0.00298528,-0.02767991,-0.02591470,0.99727215,0.06321421,-0.00312484,0.03797971
1756814187516,-0.01613008,-0.01592891,-0.02004391,-0.03758186,-0.05109043,-0.05972888,0.99729654,0.06300939,-0.00340328,0.03765419
1756814187527,-0.01567228,0.07444927,-0.15440082,-0.03581442,-0.02254711,-0.06254014,0.99732169,0.06281062,-0.00352842,0.03730709
1756814187538,0.01628117,-0.11087343,-0.12927282,-0.00694600,0.01706374,-0.04511587,0.99733422,0.06277068,-0.00343030,0.03704767
1756814187549,-0.12326777,-0.06079342,-0.22561702,0.02668328,0.02578595,-0.02998080,0.99733161,0.06291477,-0.00329106,0.03688578
1756814187560,-0.09067229,0.21819953,0.20479593,-0.01170989,0.05377459,-0.01512165,0.99733982,0.06284919,-0.00298992,0.03680109
1756814187571,-0.16831220,0.13554070,0.06830491,-0.01138491,0.03366327,0.01479076,0.99734132,0.06278544,-0.00280140,0.03688392
1756814187582,-0.01824601,0.14405592,0.18559379,-0.00846422,0.00902335,0.00935027,0.99734249,0.06273888,-0.00275178,0.03693535
1756814187594,0.00226945,-0.11012263,0.06706300,-0.00135350,-0.00273208,-0.01218261,0.99734545,0.06273130,-0.00276707,0.03686713
1756814187605,0.03210331,-0.08261924,-0.01473010,-0.02081201,0.00122600,-0.00870697,0.99735459,0.06261476,-0.00276021,0.03681837
1756814187616,0.02697757,-0.06513980,-0.10574635,-0.06103212,-0.02213772,-0.01871905,0.99737906,0.06227908,-0.00288197,0.03671541
1756814187627,0.02904145,-0.13413714,-0.12284838,-0.02833988,-0.00635847,-0.03449567,0.99739625,0.06211754,-0.00291821,0.03651879
1756814187638,0.04682529,-0.06947888,-0.04674649,-0.03640997,-0.01175959,-0.04586105,0.99741752,0.06191911,-0.00298230,0.03626884
1756814187649,-0.01750821,0.04702808,0.12363817,-0.02713726,-0.01805684,-0.02870072,0.99743220,0.06176985,-0.00308161,0.03611099
1756814187660,-0.13674400,0.08794216,0.05709966,0.01024357,-0.00483225,-0.04410324,0.99743747,0.06182722,-0.00310867,0.03586401
1756814187672,-0.06780093,0.10693031,0.05940391,0.03053534,0.01156734,0.01154404,0.99742450,0.06200127,-0.00304274,0.03592981
1756814187682,-0.19414260,0.09380543,0.10986800,0.02022809,0.00247721,0.01235151,0.99741525,0.06211151,-0.00302924,0.03599713
1756814187694,0.03349502,0.24944171,0.03639441,0.04802158,0.01377551,0.03802697,0.99739121,0.06237803,-0.00295278,0.03620818
1756814187705,0.00408176,-0.01723412,-0.02370447,0.01620044,0.04111245,0.05806809,0.99737448,0.06246794,-0.00272461,0.03653046
1756814187716,-0.04307017,-0.01548047,-0.18008140,-0.00947959,0.04251994,-0.00358147,0.99737912,0.06241533,-0.00248862,0.03651058
1756814187727,-0.07727979,-0.26067432,-0.09498155,-0.03856031,0.04000032,0.00201352,0.99739273,0.06219939,-0.00226462,0.03652186
1756814187739,0.04823353,-0.07424311,0.11453592,-0.03983725,0.00058463,-0.02528155,0.99741384,0.06195240,-0.00226100,0.03636511
1756814187749,-0.09455712,-0.09355533,0.02041586,-0.07599483,-0.02481272,-0.01631319,0.99743927,0.06158383,-0.00238134,0.03628599
1756814187760,0.14183132,0.11938260,0.23507418,-0.03351876,-0.00143208,-0.02441901,0.99745593,0.06139445,-0.00238943,0.03614802
1756814187771,-0.11144463,0.05378469,-0.04396474,0.00728151,-0.03530350,0.00110869,0.99745279,0.06143413,-0.00258184,0.03615407
1756814187783,0.03271320,0.12098224,-0.02692963,0.00079778,-0.00693501,-0.00032027,0.99745248,0.06143860,-0.00262067,0.03615227
1756814187794,0.07468993,-0.04104234,-0.12223609,0.03991222,-0.01667928,0.00350787,0.99743772,0.06166211,-0.00271408,0.03617192
1756814187805,-0.00491498,0.06105865,0.10952544,0.02899804,-0.00571898,0.00758162,0.99742604,0.06182450,-0.00274610,0.03621437
1756814187816,-0.06107420,0.05292155,0.21807902,0.01545000,-0.01044166,0.01407562,0.99741780,0.06190947,-0.00280353,0.03629179
1756814187827,-0.15419685,0.13725777,0.09942387,0.03422211,-0.04316750,0.02255836,0.99740057,0.06210112,-0.00304527,0.03641812
1756814187838,0.07005708,-0.02672801,0.15621036,0.01540262,-0.02045912,0.03623197,0.99738741,0.06218737,-0.00315984,0.03662102
1756814187849,-0.04862429,-0.02469251,0.09049207,0.03349902,-0.02302499,0.01248089,0.99737284,0.06237329,-0.00328763,0.03669028
1756814187860,0.00674247,-0.08109105,0.06264752,0.04169756,-0.02795779,0.02088971,0.99735355,0.06260471,-0.00344279,0.03680622
1756814187872,0.07284436,0.14821796,0.04863045,0.04484106,-0.00187520,0.02302584,0.99733277,0.06285806,-0.00345339,0.03693632
1756814187883,-0.01139874,0.07697753,-0.07130608,0.04670029,0.00845505,0.03956329,0.99730862,0.06311491,-0.00340689,0.03715392
1756814187894,0.05728379,0.12291968,0.06793342,0.01863078,0.01586240,0.02528561,0.99729703,0.06321925,-0.00331806,0.03729552
1756814187905,0.05771242,0.01591726,0.01017957,0.05113250,0.02961237,0.01276803,0.99727688,0.06350303,-0.00315371,0.03736638
1756814187916,0.15194475,-0.08765678,0.06294281,0.02743796,0.00944723,0.04415830,0.99725846,0.06365257,-0.00310222,0.03760704
1756814187927,0.07136991,-0.12552137,0.11052372,-0.00354587,0.00086547,0.01810413,0.99725591,0.06363271,-0.00309737,0.03770842
1756814187940,0.09394428,-0.06130857,0.00352292,-0.03866317,-0.02342759,-0.00045849,0.99727071,0.06339493,-0.00324145,0.03770560
1756814187949,0.22711523,-0.09268704,0.15646477,-0.01565913,-0.01960778,0.00225723,0.99727489,0.06331742,-0.00333851,0.03771678
1756814187961,0.01963279,-0.10685503,-0.14098469,-0.06360760,-0.06033443,-0.02423809,0.99730138,0.06296122,-0.00367638,0.03758104
1756814187972,0.12060251,-0.02085403,-0.14119618,-0.01852331,-0.03648413,-0.03759757,0.99731518,0.06285656,-0.00388252,0.03736862
1756814187983,-0.01062960,-0.09330363,-0.21481517,-0.01915280,-0.00876455,-0.02462529,0.99732669,0.06275122,-0.00393073,0.03723318
1756814187994,0.08757229,0.22356925,-0.01149034,-0.01639431,0.04026309,-0.01262563,0.99733596,0.06265941,-0.00370525,0.03716248
1756814188005,-0.01764418,0.14803631,0.03839882,0.00005399,0.00680619,0.00157486,0.99733576,0.06265971,-0.00366748,0.03717122
1756814188016,-0.04080331,0.04526543,0.15545980,-0.01563515,0.03365020,0.00960529,0.99733985,0.06257372,-0.00348240,0.03722405
1756814188027,-0.18042188,-0.39186931,-0.21723013,0.00700587,0.04718016,-0.02312028,0.99734310,0.06261295,-0.00321819,0.03709457
1756814188039,0.02858409,-0.15196852,-0.13587632,-0.00360343,0.05086594,-0.03176570,0.99735177,0.06259295,-0.00293589,0.03691827
1756814188050,0.09264093,0.04486917,-0.11332187,-0.04442561,0.03949482,-0.02485447,0.99737293,0.06234639,-0.00271669,0.03678033
1756814188061,0.03976507,-0.14058611,-0.04311476,-0.01915403,0.03042301,-0.04726238,0.99738980,0.06223913,-0.00254632,0.03651566
1756814188072,-0.01698713,-0.07774880,0.04038899,-0.01559182,-0.00140432,-0.03737633,0.99740287,0.06215181,-0.00255419,0.03630635
1756814188083,0.09913115,0.04504933,0.10701133,-0.04003918,-0.00594135,-0.03400784,0.99742309,0.06193360,-0.00258657,0.03612101
1756814188094,-0.06493709,0.00463016,-0.02118135,-0.03956567,-0.00382928,-0.04201586,0.99744506,0.06171401,-0.00260782,0.03588782
1756814188105,-0.01465626,0.03923639,0.04086522,-0.05115537,-0.00256184,-0.03162456,0.99746906,0.06142754,-0.00262216,0.03571072
1756814188116,-0.10376428,-0.06843434,-0.11851478,-0.03276338,-0.02375324,-0.03091740,0.99748601,0.06124570,-0.00275400,0.03553913
1756814188128,-0.07878216,0.04199865,0.09447067,-0.07039337,-0.00177496,-0.01153581,0.99751265,0.06084798,-0.00276402,0.03547396
1756814188139,-0.11961414,-0.03976372,0.06416403,-0.05523070,0.01240078,-0.00142998,0.99753143,0.06054697,-0.00269644,0.03546616
1756814188150,-0.27743318,0.05612991,0.12077790,-0.05969019,0.01151117,0.02650121,0.99754654,0.06021271,-0.00263198,0.03561457
1756814188161,-0.15074596,0.16464453,0.09515171,-0.08212581,0.03097112,0.11807121,0.99755081,0.05975281,-0.00245854,0.03627577
1756814188172,-0.23370180,0.39825008,0.13791180,-0.13541546,0.02273633,0.02459395,0.99759088,0.05900125,-0.00233235,0.03641226
1756814188183,-0.14187911,-0.32073598,-0.19858540,0.06986899,0.08664894,0.11572657,0.99754523,0.05938902,-0.00185145,0.03705455
1756814188194,-0.12461317,0.40635435,0.12001175,-0.04719783,0.03267506,0.09927773,0.99754040,0.05912235,-0.00166684,0.03761547
1756814188206,-0.10498836,-0.21107563,0.04216927,-0.05949583,0.12274929,0.09831855,0.99754005,0.05877430,-0.00094875,0.03819063
1756814188217,-0.62328886,0.15419481,0.47196807,-0.18239112,0.19709293,0.04452784,0.99758704,0.05782587,0.00007613,0.03842217
1756814188228,-0.03732511,-0.08645186,-0.01976684,-0.12376575,0.19928459,0.07745106,0.99760966,0.05712659,0.00120209,0.03885977
1756814188239,-0.20966533,-0.04368229,-0.40205033,-0.03821361,0.18896694,0.10347828,0.99759789,0.05692215,0.00221306,0.03941338
1756814188250,0.22308505,-0.36742656,-0.35078137,0.04915133,0.26128183,0.10545414,0.99755432,0.05719740,0.00367624,0.04000392
1756814188261,-0.12959143,-0.24280235,-0.27388099,-0.03378868,0.23552365,0.10345618,0.99753619,0.05700987,0.00498340,0.04057811
1756814188272,-0.21006684,-0.31874438,-0.14115216,-0.04483574,0.24134782,-0.00749258,0.99754468,0.05675431,0.00635908,0.04053540
1756814188283,0.23339603,-0.11081392,-0.03836803,-0.15328857,0.28408144,0.03480821,0.99757405,0.05588823,0.00796414,0.04073207
1756814188295,-0.02290016,-0.98494058,-0.48586669,-0.13602793,0.26821491,-0.04031689,0.99761217,0.05513327,0.00945273,0.04050831
1756814188305,0.02604357,1.66078781,0.41064444,-0.13557035,0.24017635,-0.03631616,0.99764717,0.05440119,0.01074968,0.04031220
1756814188317,0.46129733,-0.33791634,-0.25187678,-0.10748839,0.18245399,0.06300775,0.99765391,0.05380463,0.01176230,0.04066189
1756814188322,-0.91787486,-0.13863275,1.50173083,-0.14607470,0.09185487,0.04125940,0.99766835,0.05338832,0.01202409,0.04077948
1756814188333,0.57563864,0.41337489,-1.13159595,0.03327272,-0.00897107,0.06629629,0.99764417,0.05357132,0.01197475,0.04114411
1756814188344,-0.13503637,-0.56415319,0.20799681,-0.06852945,0.24495712,-0.04912200,0.99765860,0.05318755,0.01334651,0.04086903
1756814188356,0.02071649,0.38607693,0.42225278,-0.30835557,0.14480572,0.02773019,0.99773224,0.05144534,0.01416466,0.04102570
1756814188367,-0.15838382,-0.42963362,-0.38705529,-0.08010825,0.08039643,-0.02427693,0.99775397,0.05100475,0.01460684,0.04089218
1756814188378,0.58849954,-0.34468543,-0.98076776,-0.00771007,0.13762089,-0.00081471,0.99774470,0.05096119,0.01538440,0.04088758
1756814188389,-0.60458937,-0.00527674,0.35515399,-0.02755560,0.15178039,-0.04806869,0.99775010,0.05080688,0.01623437,0.04061839
1756814188400,0.07452659,0.51133648,0.12793806,-0.06613637,0.16328397,-0.02365067,0.99775897,0.05043651,0.01714876,0.04048595
1756814188412,0.00798870,-0.12484949,-0.27108139,-0.01702699,0.16515461,-0.00994553,0.99774972,0.05034116,0.01807363,0.04043025
1756814188423,-0.15989288,0.15383453,0.19315440,-0.00117571,0.17011246,0.00983431,0.99773011,0.05033458,0.01902626,0.04048533
1756814188434,-0.15563144,-0.03062295,-0.02682626,0.01044806,0.15243210,0.02347252,0.99770540,0.05039256,0.01987225,0.04061560
1756814188445,0.11766163,-0.06587130,-0.02817598,0.00712917,0.15343203,0.01400701,0.99768270,0.05043249,0.02073147,0.04069404
1756814188456,0.10033397,0.34021784,0.16915859,-0.03785860,0.15437589,0.00759133,0.99767332,0.05022048,0.02159598,0.04073655
1756814188468,0.07587784,0.11813779,0.20586505,-0.06812464,0.11862867,-0.00038361,0.99767794,0.04983898,0.02226030,0.04073440
1756814188479,-0.14301711,-0.39331748,-0.00130670,-0.05917409,0.06827732,0.00592333,0.99768448,0.04950761,0.02264265,0.04076757
1756814188490,0.26296808,-0.12010052,-0.11257679,-0.04432601,0.08395443,0.00164415,0.99768560,0.04926160,0.02310860,0.04077670
1756814188501,0.07150647,0.26032586,0.11755481,-0.06336896,0.06469750,-0.00005389,0.99769453,0.04890990,0.02346767,0.04077640
1756814188512,0.04665441,-0.20746477,0.07736338,-0.04944288,0.06481542,-0.00351433,0.99770032,0.04863055,0.02383388,0.04075654
1756814188523,-0.14512918,0.07518204,-0.00120752,-0.08455509,0.06206378,-0.00695992,0.99771623,0.04816549,0.02417523,0.04071826
1756814188534,0.18484806,-0.16885971,0.39398894,-0.10034717,0.05095430,-0.00439655,0.99773706,0.04760857,0.02445802,0.04069386
1756814188546,0.03594731,0.07856453,0.16882514,-0.08000062,0.01560935,-0.00635311,0.99775782,0.04715656,0.02454622,0.04065797
1756814188557,0.13834208,0.03030278,0.02666388,-0.07579170,0.02242992,0.02123007,0.99776984,0.04673213,0.02467182,0.04077685
1756814188568,-0.03663785,0.08454714,0.05285113,-0.11291896,0.02787801,0.00792061,0.99779294,0.04611672,0.02482376,0.04082002
1756814188579,0.07116949,0.09444130,0.15633778,-0.09727958,0.01531952,-0.00187529,0.99781647,0.04556709,0.02491031,0.04080943
1756814188590,0.08655849,0.05822514,0.20782188,-0.11641353,-0.01033207,0.01043026,0.99784483,0.04492100,0.02485297,0.04086731
1756814188601,0.01470542,0.04614394,0.16147676,-0.08785211,-0.01550212,-0.02035314,0.99787367,0.04442903,0.02476616,0.04075334
1756814188612,0.07135022,0.06293520,0.02322699,-0.06226087,-0.00910718,-0.02094877,0.99789480,0.04408659,0.02471607,0.04063812
1756814188624,0.05498045,0.29757924,-0.00589961,-0.08054013,0.00138857,-0.00303892,0.99791530,0.04363154,0.02472392,0.04062095
1756814188635,0.10024498,0.45975410,-0.30765720,-0.01661466,-0.04846428,0.02161688,0.99792107,0.04353933,0.02445494,0.04074092
1756814188646,-0.22879316,-0.32931741,0.18423032,0.00992797,0.06605806,0.01635198,0.99790563,0.04359542,0.02482817,0.04083331
1756814188657,-0.07656532,0.59049739,0.33987465,-0.06537424,0.03096866,0.03741091,0.99790860,0.04323259,0.02500004,0.04104094
1756814188668,-0.16687613,-0.17536469,-0.08635199,0.07234894,-0.02665604,0.07708776,0.99787713,0.04363413,0.02485210,0.04146878
1756814188679,0.14347950,0.17035453,-0.15561747,0.09336225,0.05682787,0.03269325,0.99783853,0.04415696,0.02517034,0.04165186
1756814188691,0.05242402,0.21655626,0.19172891,0.02231653,0.01207463,0.08254783,0.99781188,0.04428193,0.02523796,0.04211413
1756814188702,0.01780000,-0.00578476,0.15448519,0.05135646,0.01904791,0.03664426,0.99778813,0.04456439,0.02534272,0.04231567
1756814188713,0.02315928,-0.12136567,0.10616905,0.05821929,0.01879427,0.00916185,0.99776866,0.04489042,0.02544797,0.04236698
1756814188724,0.18397779,-0.05404997,-0.19137253,0.02392303,0.00125492,0.02085901,0.99775747,0.04502439,0.02545499,0.04248379
1756814188735,0.10570988,-0.11498105,-0.13328564,0.06220476,0.00889575,-0.00237545,0.99774069,0.04537896,0.02550570,0.04247025
1756814188746,-0.01551943,-0.05969666,-0.04883462,0.07790804,0.03760234,-0.00494586,0.99771718,0.04580355,0.02571063,0.04244329
1756814188757,0.03122176,0.00972006,0.00714895,0.06037417,0.03141745,0.02568728,0.99769162,0.04613259,0.02588186,0.04258329
1756814188768,0.00001949,-0.11337014,-0.02515021,0.04986338,0.02052977,0.03764983,0.99766689,0.04640934,0.02599580,0.04279225
1756814188780,0.17401511,-0.12515960,0.05995857,0.03480495,0.03122661,0.03342427,0.99764499,0.04660598,0.02617223,0.04298109
1756814188791,-0.01500947,0.09414356,0.04836587,0.00969796,0.00980895,0.02113858,0.99763590,0.04666029,0.02622716,0.04309947
1756814188802,0.09449528,-0.07533555,0.01424514,-0.00463393,0.01120648,0.01707146,0.99763137,0.04663457,0.02628936,0.04319422
1756814188813,0.15055333,0.04359903,0.02353884,-0.00846081,0.00790042,-0.00317757,0.99763318,0.04658719,0.02633360,0.04317642
1756814188824,0.14345134,-0.26380238,-0.13356548,0.01327976,-0.00916137,0.00552376,0.99762975,0.04666090,0.02628275,0.04320708
1756814188836,0.05335773,-0.07262517,-0.06929929,-0.01862795,-0.00730166,-0.02145044,0.99764080,0.04655751,0.02624223,0.04308803
1756814188847,0.01910631,-0.04011502,-0.10863504,-0.02533814,0.00035180,-0.01512551,0.99765101,0.04641562,0.02624420,0.04300333
1756814188858,0.01452492,0.03743920,-0.05010301,-0.02127038,0.00116546,-0.01415414,0.99765987,0.04629544,0.02625078,0.04292335
1756814188869,0.01358575,-0.03918066,-0.07207130,-0.00969569,-0.00241470,-0.00806995,0.99766464,0.04624163,0.02623738,0.04287857
1756814188880,0.02815825,0.15186271,0.13409487,-0.03064820,-0.00663788,0.00862637,0.99767148,0.04607000,0.02620021,0.04292687
1756814188891,-0.02275037,-0.19755578,0.04465753,-0.00313406,-0.01310973,0.01601864,0.99767036,0.04605260,0.02612745,0.04301578
1756814188902,0.07134322,-0.06664916,-0.07246440,0.01818152,-0.05036279,0.02836303,0.99766622,0.04615260,0.02585045,0.04317177
1756814188913,0.12421681,-0.12283997,-0.02843717,0.00347946,-0.02153776,-0.00698428,0.99767016,0.04617226,0.02572877,0.04313231
1756814188925,0.05910377,0.08310157,-0.09359134,-0.00276538,-0.02903873,-0.02839073,0.99768182,0.04615691,0.02556760,0.04297474
1756814188936,0.07538642,0.01546195,-0.07891094,0.00894570,-0.02853822,-0.02602251,0.99768992,0.04620746,0.02540636,0.04282772
1756814188947,0.08154458,0.02368627,-0.07773734,0.02247360,-0.04118369,-0.00994389,0.99769230,0.04633219,0.02517779,0.04277253
1756814188958,0.09777856,0.00532313,0.02918409,0.00940802,-0.04651878,-0.00630731,0.99769790,0.04638487,0.02491729,0.04273721
1756814188969,0.08896481,0.05273023,0.10295788,-0.01766662,-0.06686924,-0.01895495,0.99771599,0.04628770,0.02454950,0.04263296
1756814188981,0.06325327,0.01365283,0.18821686,-0.02438593,-0.05277446,-0.02039070,0.99773475,0.04614870,0.02424869,0.04251673
1756814188992,-0.05361553,0.06682189,0.33510004,0.00267290,-0.06243748,-0.01486369,0.99774583,0.04616341,0.02390528,0.04243498
1756814189003,0.00917675,0.05721012,-0.03365243,0.03892120,-0.07390021,-0.01440619,0.99774896,0.04637942,0.02349514,0.04235502
1756814189014,0.02843211,0.01546931,-0.18234002,0.04491461,-0.05665237,-0.00776305,0.99774648,0.04663319,0.02317505,0.04231116
1756814189025,0.09884464,0.01516980,-0.30950561,0.01822660,-0.03974320,-0.03014452,0.99775385,0.04673343,0.02295646,0.04214537
1756814189036,-0.05843948,-0.02316932,0.01094415,0.00740583,-0.03144075,-0.04368934,0.99776636,0.04677527,0.02277882,0.04189852
1756814189048,-0.00250033,-0.04469438,0.06187862,0.05281308,-0.04021696,-0.03242295,0.99776518,0.04707103,0.02255361,0.04171695
1756814189059,0.02644992,0.13457776,0.03178592,0.02310565,-0.06019797,0.00777235,0.99776481,0.04719811,0.02222252,0.04175970
1756814189070,-0.01610308,0.21386402,0.05478648,-0.03562558,-0.03958778,-0.00005905,0.99777916,0.04699861,0.02200083,0.04175937
1756814189081,-0.05685672,-0.14985744,-0.07945619,0.00376283,-0.05605958,-0.01532870,0.99778854,0.04701949,0.02168970,0.04167430
1756814189092,0.24484835,0.01535456,0.00153251,0.00132776,-0.02814628,-0.02229198,0.99779681,0.04702692,0.02153208,0.04154946
1756814189103,-0.13840367,0.00724405,0.01139439,-0.03417356,-0.03505341,-0.02756064,0.99781627,0.04683726,0.02133753,0.04139650
1756814189114,-0.13164008,-0.00033538,0.05109898,-0.03201410,-0.01860683,-0.02340567,0.99783246,0.04665638,0.02123240,0.04126426
1756814189125,-0.17645490,-0.03942631,-0.12219025,-0.00515770,-0.01034251,-0.01437185,0.99783821,0.04662827,0.02117604,0.04118593
1756814189137,-0.10988004,0.02434238,-0.06105865,0.01061012,-0.00231949,-0.01555277,0.99783930,0.04668769,0.02116305,0.04109884
1756814189148,-0.10110744,0.00567652,-0.03995863,0.01387821,-0.01129271,-0.00552491,0.99783827,0.04676610,0.02109924,0.04106762
1756814189159,-0.09302235,0.01343357,0.02984357,0.02952074,-0.00959231,0.01472157,0.99782833,0.04692994,0.02104601,0.04114933
1756814189170,0.00326749,0.01059756,0.00004709,0.04918016,-0.00608368,0.03872478,0.99780709,0.04720535,0.02101194,0.04136618
1756814189181,-0.03133661,0.04417020,-0.06943026,0.02023372,-0.01812554,0.02044445,0.99779925,0.04731664,0.02091225,0.04147863
1756814189193,-0.00367823,-0.13815126,0.35407717,0.00411768,-0.01749438,0.02481392,0.99779433,0.04734011,0.02081253,0.04162007
1756814189203,-0.00463150,-0.07079834,0.15951394,0.00627502,-0.01234685,0.00669560,0.99779257,0.04737462,0.02074462,0.04165689
1756814189215,-0.09008594,-0.09249079,0.07701338,0.01511018,-0.03161065,-0.00357874,0.99779305,0.04745924,0.02056760,0.04163685
1756814189226,0.06956455,0.15377708,-0.19429786,0.01999977,-0.01525524,0.00748275,0.99778782,0.04756923,0.02048370,0.04167801
1756814189237,-0.06716411,0.04497433,-0.16768342,0.05112714,-0.01714756,0.00654071,0.99777456,0.04785555,0.02038767,0.04171464
1756814189248,-0.02578389,0.10459359,-0.01884415,0.03116473,-0.00970261,0.01531046,0.99776379,0.04802851,0.02033382,0.04179961
1756814189259,-0.04263171,0.00906651,-0.07182313,0.05515869,0.00150531,-0.00369761,0.99774983,0.04833188,0.02034210,0.04177927
1756814189270,0.02690830,0.01213028,-0.05800369,0.03682281,-0.00074466,0.02639615,0.99773399,0.04853441,0.02033801,0.04192445
1756814189281,-0.01178118,-0.01804277,-0.03666936,0.05741715,-0.00713213,-0.00461675,0.99772032,0.04885307,0.02029842,0.04189883
1756814189293,0.12102553,-0.06811090,0.21918267,0.04584882,-0.01032312,0.01097166,0.99770606,0.04911441,0.02023958,0.04196137
1756814189304,0.11151092,0.08085128,0.13237987,0.01076357,-0.00356835,0.01514323,0.99770003,0.04917361,0.02021996,0.04204465
1756814189315,-0.00187034,-0.05086099,0.02696987,0.03261015,-0.01468023,0.01115311,0.99769022,0.04935297,0.02013921,0.04210600
1756814189326,-0.05325852,-0.03518486,-0.11475225,0.02308209,-0.01044349,-0.00272219,0.99768564,0.04948223,0.02008073,0.04209075
1756814189337,-0.04211889,0.00683049,0.00926571,-0.00132905,-0.03306259,-0.00894196,0.99769183,0.04947479,0.01989558,0.04204068
1756814189348,0.00372707,-0.03397427,-0.05143657,-0.01063205,-0.00861487,-0.02860453,0.99770248,0.04941525,0.01984734,0.04188049
1756814189359,0.01255245,-0.00830431,-0.04705324,-0.01116254,-0.00857800,-0.03380112,0.99771456,0.04935218,0.01979887,0.04168952
1756814189370,0.06274144,-0.09057744,-0.05414846,0.01923888,0.00004710,-0.01473447,0.99771269,0.04945895,0.01979913,0.04160774
1756814189382,-0.05477123,0.00139082,-0.03471011,0.01802297,-0.00764391,-0.01553484,0.99771215,0.04955898,0.01975671,0.04152152
1756814189393,-0.17055225,-0.07571598,0.26537728,0.01912839,-0.00409635,-0.02846292,0.99771390,0.04966610,0.01973377,0.04136213
1756814189404,0.02824377,-0.05662143,0.13712426,0.03396391,0.02961829,-0.01852771,0.99770534,0.04985800,0.01990111,0.04125745
1756814189415,-0.08849301,0.08523998,0.12429434,0.03666819,0.01197862,-0.01362389,0.99769695,0.05006150,0.01996759,0.04118183
1756814189426,-0.05011897,0.20612274,-0.27233145,0.04849364,-0.00254003,-0.01727938,0.99768773,0.05032822,0.01995362,0.04108680
1756814189437,0.02624517,0.08549239,0.03249401,0.05422086,0.00915581,-0.01375950,0.99767439,0.05063457,0.02000535,0.04100906
1756814189449,-0.04063360,0.05861765,0.12793596,0.03311465,0.00110900,-0.01348145,0.99766793,0.05082001,0.02001156,0.04093356
1756814189460,-0.08346266,-0.02614113,0.00423853,0.04482104,-0.00355168,-0.01061334,0.99765822,0.05106428,0.01999221,0.04087572
1756814189471,-0.02204875,0.04536285,-0.03566675,0.01702952,-0.00109872,0.01469953,0.99765001,0.05116050,0.01998600,0.04095877
1756814189482,-0.00836380,-0.06049841,-0.06392864,0.03327984,0.00805398,0.01009043,0.99763732,0.05134520,0.02003070,0.04101477
1756814189493,0.23114690,0.15361140,0.11648167,0.00326142,0.01349771,0.00402967,0.99763394,0.05136347,0.02010629,0.04103734
1756814189505,-0.04717493,-0.08434171,-0.00926571,0.00348834,0.00009175,0.00535633,0.99763168,0.05138300,0.02010680,0.04106733
1756814189515,-0.05229929,-0.08259256,0.00163271,-0.01161891,0.01403501,-0.00704640,0.99763504,0.05131852,0.02018470,0.04102823
1756814189527,-0.20854934,-0.14871206,-0.03391287,-0.01176422,0.01944476,-0.01322322,0.99763918,0.05125381,0.02029164,0.04095550
1756814189538,-0.05247847,0.07604463,-0.01252806,-0.00642938,0.00444986,-0.02201030,0.99764564,0.05121749,0.02031678,0.04083114
1756814189549,0.02730732,0.01166979,-0.07025217,0.01336210,0.00350066,-0.02139661,0.99764629,0.05129298,0.02033656,0.04071025
1756814189560,0.03430881,0.14283177,-0.00929511,0.04668818,0.00362442,-0.02144538,0.99763746,0.05154977,0.02035650,0.04059230
1756814189571,-0.02908743,0.08706251,-0.03553028,0.04689967,-0.00949194,-0.00107150,0.99762507,0.05181475,0.02030287,0.04058625
1756814189582,-0.07060173,0.15370343,0.08238102,0.04412507,-0.01944334,0.00908208,0.99761269,0.05205523,0.02019690,0.04063574
1756814189594,-0.05077797,0.08107659,0.34776598,0.05601216,-0.02206819,0.01909843,0.99759440,0.05236890,0.02007332,0.04074269
1756814189605,-0.02849503,0.06895826,0.10548654,0.08149616,-0.03623174,0.02280418,0.99756918,0.05282528,0.01987042,0.04087040
1756814189616,-0.03078176,0.01585862,-0.03908229,0.10308708,-0.02128460,0.01209080,0.99753803,0.05340257,0.01975123,0.04093811
1756814189627,0.01285061,0.08961309,-0.27107559,0.09887550,-0.03226453,-0.00233954,0.99751257,0.05395133,0.01957216,0.04092512
1756814189638,0.01044629,0.07758376,0.01112659,0.11779890,-0.03112872,-0.00275012,0.99748099,0.05460511,0.01939939,0.04090986
1756814189649,0.01476094,0.16281290,0.00293981,0.12822363,-0.02195135,-0.00109180,0.99744406,0.05532316,0.01927647,0.04090374
1756814189661,0.00265726,0.12247795,0.01112812,0.13014041,-0.02819141,0.00902281,0.99740362,0.05606496,0.01911578,0.04095517
1756814189672,-0.07113916,0.19483641,0.19350552,0.12583526,-0.01232449,0.00781864,0.99736401,0.05675706,0.01904799,0.04099818
1756814189683,-0.07447578,-0.12093017,0.10163786,0.15320569,-0.00523881,0.04267860,0.99730604,0.05760735,0.01901892,0.04123504
1756814189694,-0.30900897,-0.24545211,0.23349962,0.08470675,0.04067805,0.00598954,0.99727218,0.05809018,0.01925078,0.04126918
1756814189705,0.14903104,0.27098441,-0.06707225,0.11723416,-0.05135103,0.08789744,0.99722018,0.05872910,0.01897092,0.04174822
1756814189716,0.19060723,-0.21792267,-0.33939420,0.17432535,-0.05113833,0.07655142,0.99715021,0.05969661,0.01868710,0.04217309
1756814189726,0.06957256,-0.05638591,0.01472568,0.09634742,0.05691036,0.01431096,0.99711397,0.06016389,0.01896312,0.04224249
1756814189737,0.00419374,-0.02014918,0.25490008,-0.01292687,0.02976637,0.00644002,0.99711363,0.06009150,0.01912981,0.04227856
1756814189748,0.05681906,-0.17239839,0.03325558,0.06158558,-0.02588636,0.01536777,0.99709210,0.06043330,0.01898614,0.04236385
1756814189759,0.12701846,-0.13001175,-0.06434070,0.08190748,-0.00573801,0.01999487,0.99706032,0.06088789,0.01895429,0.04247482
1756814189771,0.04716016,-0.03880207,-0.16201355,0.05589910,0.00937124,0.00361713,0.99703911,0.06120372,0.01900724,0.04249526
1756814189782,0.00047239,0.06453603,-0.10271009,0.06326833,-0.00885385,0.00611810,0.99701698,0.06155486,0.01895810,0.04252921
1756814189793,0.06322955,-0.01142894,0.16048893,0.08958883,-0.01715359,0.00280615,0.99698730,0.06205208,0.01886290,0.04254479
1756814189804,-0.01273716,0.01289197,-0.04298585,0.06521774,-0.01116899,-0.01355957,0.99696875,0.06242056,0.01879979,0.04246817
1756814189815,-0.03362651,-0.02161611,-0.00317139,0.05933968,0.00192804,-0.02044221,0.99695285,0.06274693,0.01881040,0.04235574
1756814189826,-0.01002300,-0.06738914,-0.25152405,0.05344192,-0.00677472,-0.00948355,0.99693694,0.06304620,0.01877246,0.04230263
1756814189838,-0.11839022,-0.02577768,-0.03718163,0.06763577,-0.00546912,0.00307877,0.99691276,0.06342496,0.01874183,0.04231988
1756814189849,-0.01694259,0.06242475,0.01532406,0.07885439,0.00702369,0.01140979,0.99688111,0.06386655,0.01878116,0.04238377
1756814189860,-0.08585163,-0.03856997,-0.04055956,0.06945761,0.01077363,0.02939248,0.99684826,0.06425204,0.01884096,0.04254690
1756814189872,-0.04435983,-0.05297212,-0.04858539,0.05429949,0.02468802,0.03113947,0.99681641,0.06457783,0.01898909,0.04273374
1756814189883,0.06718506,0.02751769,-0.03051471,0.06647609,0.02103061,0.04555551,0.99678000,0.06494013,0.01910370,0.04298201
1756814189894,0.16348960,-0.14763161,0.06987970,0.07666854,0.01398704,0.01698999,0.99674542,0.06538097,0.01918413,0.04307971
1756814189905,0.02282226,0.00453514,0.04880492,0.06672600,0.00613114,-0.00049583,0.99672075,0.06574796,0.01921785,0.04307698
1756814189916,0.04396197,-0.08608808,0.02492774,0.07174581,0.00852729,0.00498069,0.99669178,0.06615333,0.01926603,0.04310512
1756814189928,-0.09108822,0.03024752,-0.10368475,0.07748005,0.01411163,-0.00305287,0.99666263,0.06657947,0.01934364,0.04308833
1756814189939,-0.02423311,-0.12954063,-0.07168183,0.07105080,0.01977264,0.01554227,0.99663034,0.06697380,0.01945338,0.04317459
1756814189950,-0.04634446,-0.07981088,-0.03976141,0.05479375,0.03845875,0.00879279,0.99660307,0.06728338,0.01967067,0.04322427
1756814189961,0.03774457,0.03871435,0.04684471,-0.00840146,0.05771152,0.02766653,0.99659308,0.06723634,0.01999386,0.04337920
1756814189972,0.07140982,-0.05329726,0.06988780,0.03184547,0.03694480,-0.00092968,0.99657723,0.06741308,0.02019890,0.04337404
1756814189983,0.04539073,-0.04275270,0.03253317,0.04992819,-0.00921660,-0.00589945,0.99656091,0.06769018,0.02014775,0.04334130
1756814189995,0.11068372,-0.13939809,0.13527128,0.03751263,-0.00883015,-0.01008382,0.99654968,0.06790775,0.02009653,0.04328281
1756814190007,0.09749794,-0.01981299,-0.06706550,0.00625937,0.00766304,-0.01199368,0.99654930,0.06794687,0.02014443,0.04320785
1756814190017,-0.08863483,-0.06326902,0.06848668,0.00157201,0.01940787,-0.03725066,0.99655436,0.06795403,0.02023273,0.04303836
1756814190028,-0.01462988,0.15857328,-0.32976661,-0.00550161,0.01917105,-0.00379126,0.99655520,0.06792294,0.02034105,0.04301694
1756814190039,-0.03861243,0.09312496,0.07281952,0.01443365,0.01801675,-0.00058049,0.99654769,0.06800449,0.02044284,0.04301366
1756814190050,-0.02455293,0.11945875,0.05435574,0.01876215,0.02336691,0.01022051,0.99653568,0.06810675,0.02057019,0.04306936
1756814190061,-0.05885808,0.03643128,0.01387241,0.02584313,0.01018369,-0.01489054,0.99652820,0.06825147,0.02062722,0.04298598
1756814190073,0.05394057,0.00982086,-0.02685407,0.00674177,0.00877104,0.00880576,0.99652242,0.06828956,0.02067678,0.04303573
1756814190084,0.00534208,-0.03009295,-0.10604614,0.01410345,0.01386176,-0.00756940,0.99651727,0.06836783,0.02075371,0.04299372
1756814190095,0.04646425,-0.24351288,0.04348628,0.02903686,0.02921400,-0.01636266,0.99650653,0.06853189,0.02091877,0.04290127
1756814190106,-0.08294885,-0.09121854,-0.07668205,0.01790562,0.03023704,-0.03804743,0.99650522,0.06863127,0.02108659,0.04269011
1756814190117,0.03370886,-0.01319598,0.05431538,-0.00107285,0.05254773,-0.00893768,0.99650151,0.06862526,0.02138085,0.04264006
1756814190128,-0.02666861,0.18032496,-0.01865021,-0.01414917,0.03440847,0.00030019,0.99650274,0.06854602,0.02157354,0.04264174
1756814190140,-0.01003029,-0.03572676,0.05876367,0.02027254,0.00327004,0.01739618,0.99649024,0.06866056,0.02159202,0.04274002
1756814190151,0.05976072,-0.00285710,-0.00522402,0.00899360,0.00488534,0.02878576,0.99647935,0.06871048,0.02161913,0.04289979
1756814190162,-0.00560125,-0.08962553,-0.14586962,-0.00754345,0.01578416,0.00082858,0.99648012,0.06866899,0.02170594,0.04290434
1756814190173,-0.03764033,-0.10650189,-0.10240638,-0.05255166,0.02792191,-0.01018511,0.99649923,0.06837733,0.02186091,0.04284782
1756814190184,0.04200163,-0.09820175,-0.01438764,-0.03974684,0.04344376,-0.01170896,0.99651192,0.06815475,0.02210420,0.04278225
1756814190195,-0.25622669,-0.05547636,0.21890783,-0.00573679,0.03542097,-0.01995580,0.99651447,0.06812291,0.02230078,0.04267149
1756814190207,0.05121700,0.07721619,-0.05761199,-0.00770279,0.02568088,0.01793639,0.99650984,0.06807939,0.02244588,0.04277283
1756814190217,-0.05387674,0.07383502,-0.02747228,-0.02116869,0.01559060,0.03057900,0.99650862,0.06796296,0.02253163,0.04294102
1756814190229,0.11709704,-0.00337310,-0.17794528,-0.01466695,0.01926057,0.01165819,0.99650896,0.06788009,0.02264045,0.04300688
1756814190240,-0.09785645,-0.04596674,-0.04088989,-0.00856777,0.02794361,0.00015488,0.99650863,0.06783254,0.02279554,0.04300774
1756814190251,0.00820888,0.10836329,-0.02443012,-0.01857841,0.05590409,0.00904589,0.99650633,0.06772943,0.02310580,0.04305795
1756814190262,-0.05697841,0.06518729,-0.13497034,0.00627706,0.04775747,0.02289462,0.99649228,0.06776427,0.02337086,0.04318501
1756814190273,0.01595483,0.05794842,-0.03886778,0.01127679,0.04515142,0.02656935,0.99647541,0.06782798,0.02362596,0.04333513
1756814190284,0.04149634,-0.08899665,-0.07379742,0.02315640,0.00624223,0.02581016,0.99645974,0.06795534,0.02366030,0.04347709
1756814190296,0.29489726,-0.03861684,0.11329435,0.00609570,0.01732557,0.00766068,0.99645323,0.06798948,0.02375732,0.04351999
1756814190307,-0.00374344,-0.03596326,-0.03051929,-0.01842489,0.00453438,-0.00583233,0.99646101,0.06788722,0.02378248,0.04348762
1756814190318,0.03855756,0.00507953,-0.04051529,-0.01554295,0.00604769,0.01105163,0.99646340,0.06780095,0.02381605,0.04354895
1756814190329,-0.10184301,0.05781116,-0.08295903,-0.02103773,-0.01243352,-0.00793033,0.99647501,0.06768314,0.02374642,0.04350454
1756814190340,-0.00952384,-0.06496377,-0.01261797,-0.00700314,-0.01112364,-0.00731185,0.99648100,0.06764358,0.02368357,0.04346323
1756814190351,-0.01073204,-0.02933806,0.00449552,-0.00999599,-0.01155383,-0.00599841,0.99648768,0.06758860,0.02362003,0.04343024
1756814190363,-0.03345319,0.01052934,0.01301182,-0.02128589,-0.01015950,0.00076356,0.99649700,0.06746833,0.02356263,0.04343455
1756814190374,-0.03342578,0.02295206,-0.04741215,-0.02291221,-0.00808378,0.00299188,0.99650594,0.06734117,0.02351776,0.04345116
1756814190385,0.01019290,-0.03838131,0.08553498,-0.02370573,-0.00997032,0.00318340,0.99651544,0.06720842,0.02346193,0.04346899
1756814190396,-0.10721643,-0.04721948,0.38678397,-0.02135848,-0.00714431,-0.01366136,0.99652777,0.06708881,0.02342192,0.04339248
1756814190407,-0.04546644,0.09634406,0.01131881,-0.02895428,-0.01276737,0.00284933,0.99653944,0.06692956,0.02335170,0.04340815
1756814190418,-0.07376539,-0.02744723,-0.17742429,-0.01510937,-0.00609394,-0.00399427,0.99654690,0.06684495,0.02331757,0.04338579
1756814190429,-0.03916206,-0.01902232,-0.32509526,-0.02494956,0.01231890,0.00456890,0.99655347,0.06670648,0.02338594,0.04341114
1756814190441,-0.09309774,-0.05978726,0.03174827,-0.01008227,0.00983123,0.00208501,0.99655544,0.06665002,0.02344100,0.04342282
1756814190452,-0.07405082,-0.07887740,-0.00784606,0.00173568,0.01910318,0.00940894,0.99655002,0.06665965,0.02354702,0.04347504
1756814190463,-0.05812700,0.04853474,0.04258181,-0.02181698,0.02927210,0.00771861,0.99655242,0.06653748,0.02371094,0.04351826
1756814190474,-0.06727933,-0.01903906,-0.02167978,-0.02222901,0.03185580,0.00738518,0.99655463,0.06641411,0.02388774,0.04355925
1756814190485,0.06376081,0.05183361,0.04583840,-0.00306711,0.01477063,0.01612958,0.99654984,0.06639693,0.02397046,0.04364958
1756814190496,0.05033211,-0.03246622,0.22586627,-0.00697581,-0.00279331,-0.00839239,0.99655483,0.06635821,0.02395496,0.04360300
1756814190508,0.01658835,-0.01557769,0.01040653,-0.02603293,0.00035397,-0.02017631,0.99656941,0.06621243,0.02395694,0.04349001
1756814190519,-0.08067032,0.00199121,-0.09902922,-0.03858562,0.01220583,-0.04850462,0.99659370,0.06599828,0.02402468,0.04322081
1756814190530,-0.13116825,0.17796493,-0.15855387,-0.02413913,0.01310591,-0.00760313,0.99660264,0.06586431,0.02409742,0.04317861
1756814190541,-0.08236072,0.09558299,0.07638378,-0.00714088,-0.00490219,0.02796277,0.99659915,0.06582432,0.02406997,0.04333521
1756814190552,0.00291872,-0.01843705,0.07567678,0.00981942,-0.00992157,0.03893393,0.99658745,0.06587882,0.02401490,0.04355129
1756814190563,0.05134292,-0.02995677,-0.04067045,0.02427581,-0.02064934,0.05534333,0.99656764,0.06601476,0.02389927,0.04386121
1756814190575,0.04849967,0.07981450,0.02334061,-0.01440160,-0.01605008,0.00646568,0.99657391,0.06592907,0.02380377,0.04389968
1756814190586,-0.02677875,0.04640802,0.12151875,-0.00267580,-0.00556356,0.00630095,0.99657408,0.06591489,0.02377428,0.04393308
1756814190597,-0.02110885,0.02750435,0.48755292,-0.01149278,-0.02510485,0.01214612,0.99657851,0.06585283,0.02363871,0.04399867
1756814190608,0.00283256,-0.03027854,0.14960205,0.01281385,-0.02711207,-0.00291891,0.99657808,0.06592459,0.02348689,0.04398232
1756814190619,-0.04119825,-0.04757585,-0.08362897,0.01964998,-0.02249861,0.00627738,0.99657220,0.06603463,0.02336089,0.04401747
1756814190630,0.08760104,-0.05755431,-0.38844704,0.01938201,0.00147011,0.01776156,0.99656042,0.06614317,0.02336913,0.04411694
1756814190641,0.00660776,0.00196005,-0.02482735,0.00316337,0.01160012,0.02017014,0.99655271,0.06616088,0.02343409,0.04422989
1756814190652,-0.06861673,0.02957900,0.00570197,-0.01185975,0.04231112,0.04254570,0.99654091,0.06609447,0.02367103,0.04446815
1756814190664,-0.04962935,-0.10657651,0.02240892,-0.00366199,0.02546189,0.03705013,0.99652980,0.06607432,0.02381107,0.04467192
1756814190675,0.07788733,-0.00143167,0.11898417,-0.00110931,0.02551253,0.02058450,0.99652154,0.06606806,0.02395522,0.04478823
1756814190686,0.19695303,-0.01724810,0.06385060,-0.01594157,0.00412847,0.03496259,0.99651814,0.06598038,0.02397792,0.04498052
1756814190697,0.15150513,-0.14555764,-0.02731731,-0.01162693,-0.00696345,0.00574928,0.99652190,0.06591585,0.02393928,0.04501243
1756814190708,0.16260956,-0.03132501,-0.15642867,-0.01091828,-0.00034678,0.00302644,0.99652522,0.06585471,0.02393733,0.04502938
1756814190719,0.15572034,-0.03308333,-0.10037852,-0.01280181,-0.00025482,0.00796938,0.99652797,0.06578302,0.02393591,0.04507400
1756814190730,0.07328211,0.10459683,-0.06923450,-0.04335456,-0.02729691,-0.02914980,0.99655476,0.06554240,0.02378441,0.04491222
1756814190742,0.14421058,0.00016053,0.07681292,-0.06050296,-0.00368680,-0.01470575,0.99658119,0.06520358,0.02376376,0.04482987
1756814190753,0.06584248,-0.00959539,0.01646636,-0.03618472,-0.01861855,-0.02468654,0.99660292,0.06500276,0.02366043,0.04469286
1756814190764,0.12540646,0.02123673,0.04672048,-0.04464445,-0.03608947,-0.00747400,0.99662544,0.06475721,0.02346194,0.04465175
1756814190775,0.02550635,-0.04128316,0.02771937,-0.03129182,-0.03301915,-0.02249899,0.99664678,0.06458198,0.02327703,0.04452576
1756814190786,0.01518299,0.02506493,0.13756015,-0.01370177,-0.02136080,-0.01929681,0.99665936,0.06450525,0.02315741,0.04441770
1756814190797,-0.00358601,0.21257675,0.20146978,0.00179970,-0.00520377,-0.02804814,0.99666637,0.06451533,0.02312827,0.04426063
1756814190809,0.01352734,-0.00926571,-0.16571365,0.03202169,0.00507710,-0.02493140,0.99666028,0.06469465,0.02315670,0.04412101
1756814190820,-0.07560686,0.06726751,-0.12369253,0.01075077,0.02514389,-0.01824041,0.99665758,0.06475539,0.02329876,0.04401795
1756814190831,-0.06431151,-0.05879594,-0.18860296,0.00176588,0.00047424,-0.00050950,0.99665701,0.06476501,0.02330135,0.04401518
1756814190842,0.06721747,0.00420183,0.18456765,0.01062331,0.01274500,0.01094608,0.99664877,0.06482450,0.02337272,0.04407647
