UnixTime(ms),Ax,Ay,Az,Gx,Gy,Gz,QuatW,QuatX,QuatY,QuatZ
1755651213333,0.00000000,0.00000000,0.00000000,0.00000000,0.00000000,0.00000000,0.99904183,0.02325154,-0.00810355,0.03618179
1755651213355,-0.00562115,-0.04956833,0.13337459,-0.01154206,-0.00454300,-0.00138919,0.99904487,0.02312689,-0.00815262,0.03616679
1755651213356,-7.80686303,-37.33748339,87.50831837,-0.54409720,-0.20571580,-0.08818257,0.99905396,0.02277322,-0.00828633,0.03610947
1755651213367,0.84439769,3.95781082,-9.22694116,-0.04727501,-0.02324059,0.00205426,0.99905858,0.02250139,-0.00841996,0.03612128
1755651213379,0.05378037,-0.04970635,0.13922735,-0.04424593,-0.02154477,-0.00694986,0.99906451,0.02225361,-0.00854062,0.03608236
1755651213390,0.03544283,-0.11632285,0.09135782,-0.04310087,-0.03122390,-0.02626350,0.99907373,0.02201009,-0.00871703,0.03593398
1755651213401,0.05601502,-0.01307017,0.13256887,-0.03809611,-0.03629920,-0.02933469,0.99908259,0.02179485,-0.00892212,0.03576823
1755651213412,0.02294575,-0.02273524,0.17746116,-0.02462776,-0.03142511,-0.01776794,0.99908725,0.02166556,-0.00908710,0.03567495
1755651213423,-0.14081997,0.26852532,0.04795952,-0.03207296,-0.03464215,-0.01105289,0.99909159,0.02148434,-0.00928283,0.03561250
1755651213434,-0.02950973,0.15180187,-0.09643191,-0.00524930,-0.01609846,0.00403768,0.99909054,0.02145390,-0.00937620,0.03563592
1755651213446,-0.06658858,0.07818915,0.06783384,0.00255909,-0.01158098,0.00578144,0.99908846,0.02146823,-0.00944106,0.03566830
1755651213457,-0.11784082,0.05606942,0.02090724,0.00083585,-0.01385043,0.00027472,0.99908757,0.02147291,-0.00951862,0.03566984
1755651213468,0.01696962,-0.05082696,-0.01133492,0.00265226,-0.01460123,-0.01180963,0.99908885,0.02148803,-0.00960184,0.03560252
1755651213479,0.01883986,-0.05612777,0.09136498,-0.00299437,-0.01274822,-0.00680969,0.99908988,0.02147126,-0.00967323,0.03556439
1755651213491,0.44127976,-0.20904249,-0.21002298,0.00170214,-0.00858677,-0.00693913,0.99909058,0.02148070,-0.00972089,0.03552588
1755651213502,-0.04938987,0.01624132,-0.01071927,-0.01456867,-0.01584841,-0.00093662,0.99909168,0.02139694,-0.00981202,0.03552049
1755651213513,0.03212611,0.04409844,0.13827078,-0.01279931,-0.00734395,-0.00486573,0.99909374,0.02132654,-0.00985241,0.03549373
1755651213524,-0.33091262,0.03235506,0.22819619,0.00206519,-0.00227906,0.00334913,0.99909271,0.02133800,-0.00986506,0.03551232
1755651213536,-0.05220817,0.07425838,-0.03256804,-0.00290670,-0.00624885,-0.01404563,0.99909551,0.02132172,-0.00990005,0.03543366
1755651213547,0.02850987,0.04276481,0.05511909,-0.01052644,-0.00813152,-0.01736224,0.99909975,0.02126278,-0.00994559,0.03533643
1755651213558,0.03538068,-0.06918069,-0.05959023,0.00317141,-0.01304669,-0.01832122,0.99910231,0.02128085,-0.01001996,0.03523200
1755651213569,0.06110712,-0.05234843,0.13713455,-0.00435600,-0.01265252,-0.01818494,0.99910567,0.02125668,-0.01009018,0.03513108
1755651213580,0.05357802,0.06670283,0.22504822,-0.03486964,-0.01913772,-0.01774090,0.99911221,0.02106141,-0.01019735,0.03503173
1755651213591,-0.12565787,-0.14809246,-0.00260887,0.00881487,-0.02283370,-0.01411108,0.99911262,0.02111033,-0.01032408,0.03495341
1755651213603,0.00381844,0.25522578,0.20673410,-0.03130177,-0.02211367,-0.01383451,0.99911777,0.02093347,-0.01044902,0.03487524
1755651213614,0.04448923,0.03817460,-0.07887505,-0.00246995,-0.02747057,-0.01584599,0.99911952,0.02091977,-0.01060148,0.03478730
1755651213625,0.12964893,-0.01112659,-0.17609034,0.00456199,-0.03098217,-0.00005691,0.99911716,0.02094508,-0.01077343,0.03478698
1755651213636,-0.05380062,-0.12851276,-0.00272256,-0.00144505,-0.03238832,-0.00795311,0.99911691,0.02093699,-0.01095481,0.03474245
1755651213647,0.00923581,0.19836568,-0.06613439,-0.00949779,-0.02922872,-0.01170392,0.99911850,0.02088333,-0.01111995,0.03467632
1755651213659,0.10091991,-0.19681065,0.08573146,0.00643531,-0.03415404,-0.00298987,0.99911618,0.02091937,-0.01131121,0.03465958
1755651213670,-0.07629660,-0.00091570,-0.01062555,0.00268595,-0.03917162,-0.00455954,0.99911427,0.02093427,-0.01152861,0.03463427
1755651213681,0.13643645,0.06125342,0.05804713,-0.01317926,-0.02842926,-0.00410655,0.99911476,0.02086047,-0.01168782,0.03461127
1755651213692,0.05701975,0.02470856,-0.49797248,-0.01274835,-0.04082693,0.00038206,0.99911347,0.02078908,-0.01191645,0.03461341
1755651213703,0.14924140,-0.23718723,0.16524019,-0.02184393,-0.03624522,0.00317573,0.99911295,0.02066785,-0.01211761,0.03463104
1755651213714,-0.02322070,-0.00483765,0.07546729,-0.04447841,-0.03367104,-0.00998813,0.99911767,0.02042099,-0.01230448,0.03457560
1755651213726,-0.07174296,-0.02025708,0.37525014,-0.06254846,-0.03864256,-0.00538394,0.99912317,0.02006759,-0.01252281,0.03454518
1755651213737,-0.07912121,0.21468608,-0.21231867,-0.04563056,-0.04464456,-0.02217626,0.99912939,0.01981206,-0.01277282,0.03442100
1755651213748,0.11223340,-0.01410260,-0.04780632,-0.00913759,-0.04743175,-0.01487479,0.99912983,0.01976135,-0.01303607,0.03433844
1755651213759,0.11874834,0.09095335,-0.05145476,-0.00604000,-0.04582903,-0.00858487,0.99912877,0.01972752,-0.01329271,0.03429037
1755651213770,-0.20907241,-0.14540036,-0.00190066,-0.00143492,-0.05051892,-0.01466503,0.99912794,0.01971949,-0.01357562,0.03420824
1755651213781,0.24400744,-0.09696458,0.07899186,-0.01541429,-0.04787536,0.00131362,0.99912573,0.01963394,-0.01384133,0.03421553
1755651213793,-0.16960379,-0.02506814,0.39877866,-0.03586393,-0.04911228,-0.01581724,0.99912884,0.01943310,-0.01411635,0.03412696
1755651213804,0.05309317,-0.07581283,0.01753647,-0.04329687,-0.04051342,-0.00896072,0.99913198,0.01919280,-0.01434120,0.03407723
1755651213815,0.09563222,-0.07454091,-0.28157140,-0.06299025,-0.04439496,-0.00311705,0.99913569,0.01884006,-0.01458982,0.03405977
1755651213826,-0.07327307,0.06456963,-0.28866929,-0.06057391,-0.04750543,-0.01803586,0.99914149,0.01850387,-0.01485347,0.03395967
1755651213837,0.10112872,0.01060773,-0.14725821,-0.05351293,-0.03750631,-0.01247726,0.99914623,0.01820420,-0.01506351,0.03388980
1755651213848,-0.02850756,0.04299458,-0.08555724,-0.05746879,-0.03910645,-0.01388829,0.99915130,0.01788525,-0.01528055,0.03381272
1755651213860,-0.02291065,-0.08605370,0.10871623,-0.06659616,-0.03992508,-0.01635335,0.99915761,0.01750898,-0.01550612,0.03372032
1755651213873,-0.01984690,0.01784284,-0.34502611,-0.07623256,-0.02783680,-0.01618893,0.99916704,0.01700584,-0.01568985,0.03361347
1755651213884,0.02563953,-0.12518510,-0.12221655,-0.09023372,-0.02369639,-0.00184412,0.99917370,0.01650505,-0.01582136,0.03360324
1755651213895,-0.07086345,-0.24476913,-0.18438343,-0.07916976,-0.02213952,-0.01473704,0.99918159,0.01606961,-0.01594313,0.03352219
1755651213906,-0.05971523,-0.17874828,-0.14282583,-0.10642251,-0.00160991,-0.01151702,0.99919301,0.01547365,-0.01595214,0.03345769
1755651213917,-0.01465116,-0.07245240,-0.02921593,-0.12713765,-0.00236115,-0.02076677,0.99920733,0.01476803,-0.01596525,0.03334244
1755651213928,0.03352693,0.03949431,-0.13260088,-0.08114280,-0.00195365,-0.02103084,0.99921770,0.01431363,-0.01597619,0.03322466
1755651213939,0.06098890,0.15704211,-0.11389202,-0.06514789,-0.00450129,-0.00663693,0.99922363,0.01395206,-0.01600117,0.03318783
1755651213951,0.00447447,0.10824944,-0.14232524,-0.05035188,-0.01381949,-0.00989285,0.99922817,0.01366758,-0.01607925,0.03313193
1755651213962,0.01864653,0.00873279,-0.04865856,-0.06759231,-0.01058161,-0.00621457,0.99923333,0.01329920,-0.01613692,0.03309806
1755651213973,0.01572838,-0.10847266,0.05293944,-0.09229203,-0.01336599,0.01955147,0.99923523,0.01278236,-0.01621177,0.03320755
1755651213984,0.15395332,-0.33404070,-0.03611251,-0.09581665,-0.01098260,0.01786672,0.99923762,0.01224579,-0.01627327,0.03330761
1755651213995,0.27666548,-0.13059188,-0.00869088,-0.12663192,-0.00884013,0.00420217,0.99924435,0.01154931,-0.01632189,0.03333072
1755651214006,0.04948623,-0.01096334,0.01993963,-0.09122885,-0.00863315,-0.00146659,0.99924961,0.01103843,-0.01637024,0.03332250
1755651214018,-0.17676122,0.33974267,0.09503292,-0.06852452,-0.00839219,0.00436852,0.99925219,0.01065469,-0.01641724,0.03334697
1755651214029,-0.18695777,0.34115775,0.09151791,-0.04292448,-0.01320326,-0.00876962,0.99925511,0.01041646,-0.01649051,0.03329830
1755651214040,0.00092464,0.20880273,-0.02987972,-0.02049285,-0.01703267,0.00164003,0.99925442,0.01030170,-0.01658590,0.03330748
1755651214051,0.00190066,0.07982765,-0.00950329,-0.00771772,-0.00299978,0.01255008,0.99925224,0.01025848,-0.01660270,0.03337776
1755651214062,0.03951359,0.01624702,0.14989126,-0.03258711,-0.00127540,0.01312385,0.99925153,0.01007926,-0.01660971,0.03344994
1755651214073,-0.01144064,-0.12644117,0.04353894,-0.03730869,0.00027573,0.00159009,0.99925336,0.00986846,-0.01660815,0.03345893
1755651214084,-0.07099782,0.02263419,0.09843113,-0.05793099,-0.00461057,-0.00612302,0.99925720,0.00954694,-0.01663374,0.03342494
1755651214096,-0.06143750,0.06447256,-0.01690045,-0.05049328,-0.00708611,-0.01562146,0.99926212,0.00926418,-0.01667342,0.03333746
1755651214107,0.06319359,0.05963103,0.09581077,-0.04085236,-0.01371927,-0.01346447,0.99926538,0.00903949,-0.01674888,0.03326341
1755651214118,0.10272814,-0.00741350,0.03778467,-0.01154330,-0.00558957,-0.01304316,0.99926789,0.00897427,-0.01678046,0.03318972
1755651214129,0.07668312,0.08416221,-0.03702298,-0.01160079,-0.01098082,-0.00513028,0.99926839,0.00890989,-0.01684140,0.03316124
1755651214140,-0.00774023,0.07933741,-0.00967529,-0.01351141,0.00109244,-0.00040345,0.99926923,0.00883490,-0.01683534,0.03315900
1755651214151,-0.01736277,0.01020106,-0.04222544,0.00345273,0.00456179,0.00625122,0.99926833,0.00885424,-0.01680980,0.03319401
1755651214163,0.02470856,-0.06794853,0.00570197,0.00351507,0.00782446,0.00106833,0.99926869,0.00887392,-0.01676598,0.03319999
1755651214174,0.01249094,0.07137428,0.07505119,-0.00813266,0.00119279,-0.02242900,0.99927329,0.00882919,-0.01675942,0.03307663
1755651214185,0.15308939,-0.08578017,0.11065287,-0.00476143,-0.00678128,-0.01196698,0.99927510,0.00880253,-0.01679739,0.03300962
1755651214196,0.18179185,-0.02314728,0.07529452,-0.01287339,-0.01284454,-0.00317087,0.99927511,0.00873108,-0.01686868,0.03299202
1755651214207,0.11029834,0.01886682,0.05611670,-0.01042443,-0.01414437,0.00885279,0.99927266,0.00867322,-0.01694718,0.03304115
1755651214218,-0.16213814,0.16912434,-0.09792671,-0.01093524,-0.01623891,0.00088935,0.99927148,0.00861199,-0.01703812,0.03304613
1755651214229,-0.09376396,-0.02164847,-0.07341129,0.00199279,-0.02349972,0.00588567,0.99926807,0.00862305,-0.01716854,0.03307880
1755651214240,0.03676611,-0.02031812,0.13351905,-0.00776925,-0.03219690,-0.00474423,0.99926623,0.00857993,-0.01734724,0.03305247
1755651214251,0.05418164,-0.09868799,0.08514258,-0.02302379,-0.03378204,0.00277961,0.99926353,0.00845215,-0.01753473,0.03306789
1755651214263,0.02128565,-0.13545411,0.12577881,-0.01782303,-0.04575590,0.00465147,0.99925902,0.00835323,-0.01778867,0.03309371
1755651214274,0.01970863,0.14962547,0.08871451,-0.04029717,-0.03739127,0.00491139,0.99925622,0.00812756,-0.01799806,0.03312121
1755651214285,-0.14574873,0.21104737,-0.13847603,-0.01047376,-0.03678958,0.00020662,0.99925287,0.00806786,-0.01820776,0.03312239
1755651214296,-0.01980317,0.19103020,-0.10155067,0.01103952,-0.04204417,0.00482312,0.99924731,0.00812803,-0.01843690,0.03314868
1755651214307,-0.09456934,0.17420410,-0.09139158,0.00080058,-0.02877597,-0.00534437,0.99924530,0.00813247,-0.01859661,0.03311902
1755651214318,0.06938259,-0.15760909,0.01864700,0.01035678,-0.03413796,0.00183529,0.99924090,0.00819047,-0.01878778,0.03312929
1755651214329,-0.00190066,-0.09740874,0.04561580,0.00860686,-0.03429581,-0.00618423,0.99923803,0.00823867,-0.01897984,0.03309466
1755651214341,0.05962400,0.06042307,0.04932672,0.01020719,-0.02084197,-0.01464786,0.99923804,0.00829532,-0.01909551,0.03301337
1755651214352,-0.10660810,0.10024688,-0.01847577,0.01606927,-0.02412550,-0.01562706,0.99923759,0.00838531,-0.01923062,0.03292586
1755651214363,-0.02723376,0.07380209,-0.08419948,0.02200602,-0.02076354,-0.01368177,0.99923684,0.00850634,-0.01934481,0.03285061
1755651214374,-0.04927889,0.06911485,-0.01993963,0.02218869,-0.01550104,-0.01845243,0.99923748,0.00863060,-0.01943162,0.03274727
1755651214385,0.08559179,-0.04326238,-0.16999145,0.02443597,-0.01001784,-0.02139564,0.99923910,0.00876622,-0.01948722,0.03262853
1755651214396,0.08127246,-0.06047058,-0.12771387,0.01781351,-0.00766148,-0.02588876,0.99924208,0.00886508,-0.01952974,0.03248484
1755651214407,-0.01548047,-0.03773364,-0.08127246,0.01349571,-0.00064690,-0.03383932,0.99924743,0.00893998,-0.01953333,0.03229704
1755651214419,-0.15573412,-0.13966842,-0.08056394,0.02736156,-0.00782075,-0.02347150,0.99924943,0.00909321,-0.01957713,0.03216560
1755651214430,-0.11974147,0.05701975,0.00380132,0.01459870,-0.00898605,-0.03134280,0.99925333,0.00917496,-0.01962745,0.03199008
1755651214441,0.02470856,-0.09408259,-0.05701975,0.01928943,-0.00790674,-0.02140277,0.99925529,0.00928298,-0.01967173,0.03187022
1755651214452,0.01888410,0.01045709,-0.02368719,0.01164556,-0.00869670,-0.02466882,0.99925810,0.00934761,-0.01971999,0.03173331
1755651214463,0.00000000,-0.06192188,-0.10449317,0.01928322,-0.01769642,-0.01141826,0.99925716,0.00945463,-0.01981821,0.03166994
1755651214474,-0.00541088,0.02772221,-0.08393718,0.01503399,-0.01288842,-0.01456616,0.99925750,0.00953883,-0.01989038,0.03158837
1755651214486,-0.21857571,-0.15727948,-0.07602633,0.02151023,-0.02439833,-0.01320815,0.99925595,0.00965928,-0.02002701,0.03151440
1755651214497,-0.00080927,-0.12440798,0.04102657,-0.01243424,-0.01693030,-0.01270955,0.99925694,0.00959089,-0.02012013,0.03144450
1755651214508,0.01050706,-0.07318447,0.02091227,-0.03806839,-0.01565568,0.00095194,0.99925703,0.00937581,-0.02020859,0.03144988
1755651214519,0.18025978,-0.03110436,-0.00057188,-0.01951439,-0.02243284,-0.00809195,0.99925693,0.00926653,-0.02033421,0.03140456
1755651214530,0.03620613,-0.00989599,-0.09971639,-0.00328147,-0.01487373,-0.02113662,0.99925907,0.00924848,-0.02041602,0.03128831
1755651214541,0.01195687,0.24825189,0.05992257,-0.01937075,-0.01545218,-0.01737551,0.99926134,0.00914000,-0.02050255,0.03119101
1755651214552,0.04046346,0.22806481,-0.08414050,0.02271667,-0.00361477,-0.02339935,0.99926381,0.00926608,-0.02052261,0.03106114
1755651214563,-0.01539362,0.20874708,-0.01544499,0.04330912,-0.01585338,-0.01907640,0.99926302,0.00950861,-0.02061139,0.03095431
1755651214575,-0.01736370,0.09607912,-0.02118198,0.03636101,-0.01244478,-0.03903624,0.99926634,0.00971042,-0.02068046,0.03073766
1755651214586,0.09893697,-0.23872097,-0.01511965,0.01660500,-0.01345034,-0.04575997,0.99927172,0.00980340,-0.02075578,0.03048141
1755651214597,0.17101251,-0.24362364,0.03009140,-0.00488019,-0.00614200,-0.02325983,0.99927527,0.00977583,-0.02079048,0.03034999
1755651214608,-0.00460342,-0.26655783,-0.00575427,0.00100384,-0.01111975,-0.00816943,0.99927531,0.00978135,-0.02085164,0.03030506
1755651214619,-0.21957886,0.13064654,0.09149119,-0.01653636,-0.00819658,-0.02551699,0.99927961,0.00968792,-0.02089795,0.03016089
1755651214630,-0.14289770,0.00765928,-0.05654878,0.02092909,-0.00376776,-0.03114696,0.99928321,0.00980303,-0.02091867,0.02998958
1755651214641,-0.03386353,0.11223780,0.02095141,0.00197979,-0.00561916,-0.01297017,0.99928461,0.00981402,-0.02094986,0.02991759
1755651214653,-0.00387012,-0.02370447,-0.14706446,0.02096793,0.00085430,-0.02151851,0.99928713,0.00993039,-0.02094512,0.02979816
1755651214664,-0.04837647,0.12384376,0.02322070,-0.00228711,-0.00777695,-0.02667804,0.99929075,0.00991770,-0.02098828,0.02965010
1755651214675,-0.00969165,-0.04749077,-0.04313296,-0.00206621,0.00240981,-0.01702759,0.99929397,0.00990613,-0.02097479,0.02955475
1755651214686,-0.08890904,-0.15526254,0.01643072,-0.00729900,-0.00530913,-0.00973309,0.99929535,0.00986562,-0.02100425,0.02950073
1755651214697,0.02687557,-0.18907866,0.11540162,-0.02264326,0.00889957,-0.00536387,0.99929847,0.00974108,-0.02095530,0.02947123
1755651214708,-0.07522986,-0.03361750,-0.03977066,-0.04078064,0.01014613,-0.00387472,0.99930254,0.00951067,-0.02089798,0.02944934
1755651214720,-0.02583550,0.07224184,-0.08949914,-0.03749075,0.00222392,-0.01473760,0.99930720,0.00930072,-0.02088552,0.02936680
1755651214731,-0.01834717,0.02617696,-0.15156122,-0.01384255,0.00866253,-0.02158760,0.99931234,0.00922528,-0.02083831,0.02924915
1755651214742,-0.02951495,0.02031187,-0.05264041,-0.00352407,0.00891080,-0.01654110,0.99931630,0.00920537,-0.02078797,0.02915570
1755651214753,0.00201840,0.07092147,-0.00085782,-0.01047353,0.01940072,-0.00835654,0.99932046,0.00914672,-0.02067932,0.02910890
1755651214764,-0.02533373,0.04787020,-0.05893612,-0.01081536,0.02163241,-0.00880250,0.99932486,0.00908723,-0.02056034,0.02906048
1755651214775,-0.02588573,0.02034364,-0.03700386,0.01377028,0.03035308,0.00202600,0.99932733,0.00916503,-0.02038885,0.02907193
1755651214786,-0.04902719,-0.06931534,-0.11185667,0.00309707,0.02758957,-0.01355003,0.99933247,0.00918222,-0.02023573,0.02899673
1755651214797,-0.08747873,-0.09035888,-0.11708800,-0.01360594,0.02355226,-0.03106093,0.99934071,0.00910739,-0.02010619,0.02882589
1755651214809,0.02394829,-0.07783196,-0.00964152,-0.01696435,0.02409261,-0.01513093,0.99934672,0.00901239,-0.01997127,0.02874116
1755651214820,-0.01215392,-0.02929553,0.02571651,-0.01084666,0.01897913,-0.00453237,0.99935018,0.00895056,-0.01986309,0.02871533
1755651214831,-0.05764924,0.02327093,0.00315090,-0.02426169,0.02167733,-0.01179247,0.99935554,0.00881834,-0.01974495,0.02865106
1755651214842,0.00390562,0.11726189,-0.00049708,-0.01403760,0.03369807,-0.00684323,0.99936099,0.00874043,-0.01955792,0.02861308
1755651214853,-0.01902371,0.06439122,-0.06296145,0.01120016,0.01862276,0.01004535,0.99936086,0.00880315,-0.01945364,0.02866933
1755651214864,-0.02724632,0.12031055,-0.02741909,0.00649054,0.02184667,0.00361030,0.99936232,0.00883917,-0.01933239,0.02868937
1755651214876,0.01384395,0.02806638,0.00671171,-0.00427987,0.01836947,0.00785980,0.99936326,0.00881499,-0.01922860,0.02873378
1755651214887,-0.03276220,-0.17770817,0.03901267,-0.00561083,0.01678608,0.00264717,0.99936494,0.00878301,-0.01913292,0.02874887
1755651214897,0.02879575,-0.14508848,0.03090137,-0.01887829,0.01425780,0.00991338,0.99936574,0.00868390,-0.01905807,0.02880091
1755651214909,0.02683386,-0.12001884,0.05329429,-0.02191188,0.01689356,0.00966635,0.99936705,0.00856010,-0.01896262,0.02885553
1755651214920,-0.00186717,0.00700188,-0.11576437,-0.02219895,0.01296866,0.00438689,0.99936879,0.00843467,-0.01888935,0.02888031
1755651214931,0.00172957,0.05647631,-0.03188566,-0.03171237,0.01453283,-0.00099804,0.99937194,0.00825867,-0.01880869,0.02887477
1755651214942,0.00958891,-0.01825745,-0.02397227,-0.00833064,0.01121037,-0.00416287,0.99937418,0.00821202,-0.01874591,0.02885146
1755651214953,-0.01161035,0.11033722,-0.00870776,-0.01867422,0.01188892,-0.00798703,0.99937754,0.00810837,-0.01867993,0.02880713
1755651214965,0.05332117,0.06123202,-0.01987986,-0.01071707,0.01339351,0.00300237,0.99937894,0.00804836,-0.01860492,0.02882395
1755651214976,-0.01710592,0.05606942,-0.00380132,-0.01761746,0.00824553,0.00761423,0.99937936,0.00794970,-0.01855875,0.02886658
1755651214987,0.01273910,0.07124757,-0.17850863,-0.01785875,0.01391502,-0.00740237,0.99938269,0.00785237,-0.01848291,0.02882624
1755651214998,-0.00343348,0.05493983,-0.06175208,-0.02832030,0.00740629,0.00363537,0.99938413,0.00769094,-0.01844069,0.02884696
1755651215009,0.02094848,-0.03557957,0.00974830,-0.01885675,0.01519344,-0.01012197,0.99938807,0.00758723,-0.01835713,0.02879129
1755651215020,-0.04926004,-0.05369344,0.17733613,-0.02607891,0.01543561,-0.00865086,0.99939207,0.00744380,-0.01827224,0.02874371
1755651215031,0.04171081,-0.05563745,0.14597056,-0.02376918,0.01301468,-0.00595047,0.99939534,0.00731069,-0.01819935,0.02871039
1755651215042,-0.08471065,0.05998682,-0.00815489,-0.01571087,0.00561187,-0.01924447,0.99939961,0.00722350,-0.01816821,0.02860358
1755651215054,0.02313324,0.06599223,-0.02042780,0.00053907,0.01598386,-0.00757205,0.99940242,0.00722651,-0.01807870,0.02856118
1755651215065,-0.01643003,0.16559036,-0.01212991,-0.00820636,0.01176257,-0.01554897,0.99940632,0.00718179,-0.01801459,0.02847644
1755651215076,-0.00240680,0.04498022,-0.02381553,0.01291937,0.00650497,-0.00924964,0.99940795,0.00725543,-0.01797751,0.02842372
1755651215087,-0.14121558,-0.14421662,-0.04758315,0.02943256,0.00599834,-0.01159323,0.99940919,0.00742025,-0.01794392,0.02835879
1755651215098,-0.13852047,-0.02779078,-0.00795213,0.02475318,0.00345773,-0.01505402,0.99941090,0.00756011,-0.01792439,0.02827374
1755651215110,-0.00191446,-0.06806319,-0.02603671,0.01440694,0.00529975,-0.00039540,0.99941089,0.00764295,-0.01789391,0.02827146
1755651215120,0.13168379,0.14694627,-0.01090656,0.01739523,0.00403741,0.00030017,0.99941052,0.00773340,-0.01787292,0.02827303
1755651215131,0.04985573,0.06506100,0.01447424,0.01391978,0.00727696,-0.00489578,0.99941142,0.00781135,-0.01783217,0.02824561
1755651215143,-0.06308145,-0.02228534,-0.03848628,0.00180083,0.00463173,0.00046119,0.99941174,0.00782171,-0.01780553,0.02824826
1755651215154,-0.06299244,0.01909414,-0.08684568,0.00468382,0.01192339,-0.00922756,0.99941409,0.00784700,-0.01774115,0.02819843
1755651215165,0.00299209,0.05970499,-0.01984997,0.01673161,0.02032529,0.00064682,0.99941524,0.00793903,-0.01762936,0.02820199
1755651215176,-0.02187485,0.05654458,-0.01119661,0.02773368,0.03084761,0.00099006,0.99941687,0.00809433,-0.01745661,0.02820753
1755651215187,-0.12924477,0.02043208,-0.04561580,0.02250764,0.01189749,-0.01886435,0.99941998,0.00822038,-0.01738999,0.02810189
1755651215198,-0.03861479,-0.05614262,-0.01319986,0.02323455,0.01777269,-0.00894108,0.99942202,0.00834933,-0.01729135,0.02805227
1755651215210,0.00025685,-0.06314980,0.05109517,0.00245703,0.01284627,-0.00194548,0.99942345,0.00836309,-0.01721941,0.02804138
1755651215221,0.07032436,-0.13874806,0.02850987,0.00721602,0.01723859,0.00273175,0.99942434,0.00840350,-0.01712287,0.02805667
1755651215232,-0.01695953,0.01833177,0.04922485,-0.01525275,0.01527245,0.00934453,0.99942503,0.00831961,-0.01703887,0.02810807
1755651215243,-0.05746900,-0.03606067,-0.04264386,-0.01227940,0.00913976,0.01674625,0.99942383,0.00825084,-0.01698769,0.02820185
1755651215254,0.04751646,0.00950329,0.04751646,-0.00858092,0.00580204,0.01674236,0.99942213,0.00820279,-0.01695520,0.02829560
1755651215265,0.02589671,-0.04684981,0.02853564,-0.00506435,-0.00111423,0.01729014,0.99941956,0.00817494,-0.01696133,0.02839070
1755651215276,-0.02347538,-0.02812208,0.03805626,-0.00582041,-0.01077488,0.01206481,0.99941685,0.00814205,-0.01702221,0.02845887
1755651215288,0.05717113,-0.18742930,0.15025293,-0.01139642,-0.00541093,0.02042415,0.99941359,0.00807823,-0.01705251,0.02857324
1755651215299,-0.04189748,-0.05320116,0.05371516,-0.01384881,-0.00897837,0.02307177,0.99940969,0.00800137,-0.01710234,0.02870129
1755651215310,-0.00560943,0.05765199,-0.01771586,0.00616474,-0.00004755,0.01737296,0.99940666,0.00803528,-0.01710260,0.02879684
1755651215321,0.05156776,0.41810541,-0.00145979,0.00297747,0.00588258,0.01525570,0.99940461,0.00805210,-0.01706936,0.02888304
1755651215332,-0.04903335,0.08230350,-0.01426361,0.01861172,0.00037118,0.00885941,0.99940240,0.00815446,-0.01706732,0.02893176
1755651215343,-0.00608664,0.01376530,0.05446311,0.02027761,0.00392173,0.00041732,0.99940178,0.00826700,-0.01704556,0.02893408
1755651215354,0.03130449,-0.07496845,0.02573663,0.01197738,0.00403140,0.00725864,0.99940042,0.00833468,-0.01702278,0.02897509
1755651215365,-0.08118752,-0.04672729,0.00333050,0.01044340,0.00603385,0.00901141,0.99939907,0.00839211,-0.01698959,0.02902465
1755651215377,-0.02107455,0.06989520,0.05370667,0.01435658,0.01291645,0.00497049,0.99939881,0.00847179,-0.01691791,0.02905224
1755651215388,0.03783147,0.05895363,0.10184251,0.04258090,0.01532335,0.00425209,0.99939749,0.00871450,-0.01683056,0.02907648
1755651215399,-0.01005942,0.12353899,-0.02772389,0.05064075,0.01183356,-0.01233343,0.99939809,0.00899303,-0.01676548,0.02900864
1755651215410,0.00594591,0.01391923,0.00802170,0.06179467,0.00580175,-0.02071065,0.99939881,0.00933599,-0.01673328,0.02889370
1755651215421,-0.03982821,0.09337626,-0.03780769,0.04686509,-0.00372252,-0.00079846,0.99939611,0.00959843,-0.01675412,0.02888923
1755651215433,0.02844096,-0.05659434,0.04534549,0.03690662,-0.00178029,0.00311814,0.99939341,0.00980696,-0.01676418,0.02890684
1755651215444,-0.08136189,0.01748949,0.03504873,0.01679734,0.00275873,0.00114538,0.99939257,0.00989934,-0.01674901,0.02891314
1755651215455,0.03600884,-0.08219483,0.06807813,0.01441009,0.00542357,0.01592837,0.99938969,0.00998004,-0.01671864,0.02900234
1755651215466,-0.03801317,-0.10596170,-0.04371514,0.00237694,-0.01409607,0.01708583,0.99938545,0.00999335,-0.01679758,0.02909802
1755651215477,0.00204077,-0.07147104,0.05401011,0.01576850,-0.00621077,0.00517990,0.99938318,0.01008008,-0.01683174,0.02912651
1755651215488,-0.05133183,-0.20107019,0.07845783,0.00606743,-0.01148683,-0.00059497,0.99938186,0.01011375,-0.01689549,0.02912321
1755651215499,-0.01195189,-0.13394504,0.04785892,0.02209511,-0.01279728,-0.00297149,0.99937987,0.01023748,-0.01696715,0.02910657
1755651215510,-0.03041053,0.09408259,0.01900658,0.02530445,-0.00451279,0.00055590,0.99937788,0.01037919,-0.01699242,0.02910968
1755651215522,-0.08496981,0.35224979,-0.00361096,0.02792559,0.00293726,0.00461905,0.99937579,0.01053417,-0.01697612,0.02913532
1755651215533,-0.00702045,0.12463438,-0.10475881,0.05364622,0.00664253,0.00896929,0.99937175,0.01083459,-0.01693892,0.02918555
1755651215544,-0.08409392,0.11432727,-0.01132981,0.04436415,0.01080138,0.01128742,0.99936826,0.01107860,-0.01687952,0.02924763
1755651215555,-0.05235450,-0.02580576,-0.00787909,0.04904456,0.01248778,0.00169455,0.99936608,0.01135325,-0.01680958,0.02925712
1755651215566,-0.03421185,-0.06794853,0.03611251,0.04061892,0.01162198,0.00805250,0.99936324,0.01158071,-0.01674450,0.02930221
1755651215577,-0.04670057,-0.10430312,0.05167643,0.02358024,0.01127992,0.00948336,0.99936122,0.01171158,-0.01668190,0.02935484
1755651215588,-0.08901270,-0.20269740,0.00193506,0.02132489,0.01090083,0.00201062,0.99936051,0.01182993,-0.01662140,0.02936600
1755651215599,-0.00614717,0.00585608,0.05900602,0.01141488,0.01171966,0.00858918,0.99935942,0.01189386,-0.01655577,0.02941410
1755651215611,-0.03636874,-0.00445755,-0.05373243,0.02561787,0.00959185,0.02106993,0.99935515,0.01203604,-0.01650253,0.02953104
1755651215622,-0.00577047,0.18973193,-0.04558155,0.02666008,0.01695699,0.02205790,0.99935125,0.01218533,-0.01640757,0.02965456
1755651215633,-0.04181448,-0.03136086,-0.09123160,0.04976595,0.01153501,0.01418487,0.99934651,0.01246402,-0.01634298,0.02973400
1755651215644,-0.05393974,0.01446134,-0.03413017,0.03867459,0.00854190,0.01348353,0.99934239,0.01267673,-0.01629600,0.02980816
1755651215655,0.08908904,-0.00707563,0.02021609,0.03837590,0.01907325,0.01582698,0.99933873,0.01289164,-0.01618919,0.02989679
1755651215666,-0.10647205,0.00424868,-0.02452446,0.02856605,0.01671557,0.00781665,0.99933689,0.01304875,-0.01609725,0.02993978
1755651215678,0.00471884,0.00528748,-0.00838528,0.02932484,0.01798762,0.01315373,0.99933411,0.01321444,-0.01599562,0.03001410
1755651215689,-0.02897451,0.06384837,-0.08272804,0.03954812,0.02452137,0.00926345,0.99933181,0.01343393,-0.01585953,0.03006551
1755651215700,0.03539334,-0.02574450,0.00619854,0.02978599,0.01890650,0.01388867,0.99932889,0.01360073,-0.01575365,0.03014329
1755651215711,-0.09763408,-0.10705885,-0.06043603,0.02276110,0.01296949,0.01365181,0.99932600,0.01372705,-0.01568167,0.03021906
1755651215722,0.09486169,-0.16759183,0.09410827,-0.00168329,0.01414271,0.01880558,0.99932418,0.01371763,-0.01560247,0.03032437
1755651215733,0.00490676,-0.19275430,-0.00013822,0.00811151,0.01361435,0.00770984,0.99932344,0.01376265,-0.01552691,0.03036716
1755651215744,-0.00774023,-0.07014588,0.03676611,-0.00797369,0.00957287,0.02002485,0.99932149,0.01371839,-0.01547378,0.03047830
1755651215755,-0.04231925,0.00426477,-0.01556795,-0.00177962,0.01033694,0.01432318,0.99932010,0.01370861,-0.01541693,0.03055707
1755651215767,0.01966317,-0.00545143,-0.00960696,0.00442331,0.00578068,0.01171539,0.99931825,0.01373338,-0.01538456,0.03062268
1755651215778,0.02660922,0.12116697,0.02850987,-0.00133638,0.01262766,0.01852782,0.99931625,0.01372589,-0.01531384,0.03072644
1755651215789,0.20312728,0.08759490,-0.04092102,0.01246813,0.01807162,0.02786165,0.99931210,0.01379447,-0.01521445,0.03087967
1755651215800,0.00957241,0.12209138,-0.07955119,0.03001310,0.02332309,0.01422439,0.99930928,0.01396254,-0.01508384,0.03095933
1755651215811,-0.04181448,0.15110234,-0.07982765,0.02705918,0.02802704,0.01493366,0.99930692,0.01411407,-0.01492689,0.03104296
1755651215822,-0.20040372,0.07904619,-0.06381711,0.03546437,0.02768854,0.00838703,0.99930492,0.01431445,-0.01477045,0.03109035
1755651215833,-0.01154341,-0.05739884,-0.01255477,0.02929610,0.02690380,0.01322459,0.99930251,0.01447557,-0.01462248,0.03116308
1755651215845,0.03806788,-0.17178483,0.00228689,0.01142445,0.02342799,0.00369421,0.99930284,0.01453898,-0.01449245,0.03118358
1755651215856,-0.00856152,-0.08025573,-0.03198585,-0.00948219,0.01261244,-0.00543260,0.99930558,0.01448588,-0.01442182,0.03115316
1755651215867,0.05108970,-0.08828102,-0.00717789,0.00098483,0.01629578,0.01468272,0.99930427,0.01449130,-0.01433220,0.03123392
1755651215878,0.06196146,-0.00025054,-0.01575819,0.00913240,0.01418276,0.00894425,0.99930310,0.01454244,-0.01425277,0.03128400
1755651215889,-0.02090724,0.63577021,-0.24328426,0.00842899,0.01062671,0.01893316,0.99929993,0.01458964,-0.01419326,0.03139003
1755651215900,-0.03116827,0.17981792,-0.11914433,0.01300881,0.00211520,0.01438199,0.99929653,0.01466184,-0.01418152,0.03146985
1755651215911,0.04644141,-0.08417505,-0.07159717,0.01540957,-0.00698085,0.02154246,0.99929095,0.01474736,-0.01422027,0.03158941
1755651215923,0.11410799,-0.66308575,0.20424372,-0.00508141,-0.01278618,0.01032398,0.99928852,0.01471891,-0.01429187,0.03164723
1755651215934,0.02999341,-0.26702514,0.01064282,-0.01143289,-0.01399809,0.00582629,0.99928732,0.01465545,-0.01436956,0.03167956
1755651215945,0.02919480,-0.09600893,-0.02005109,-0.02328620,-0.01558571,0.01441693,0.99928540,0.01452505,-0.01445684,0.03176030
1755651215956,-0.02255406,-0.06182135,-0.05534717,-0.03213029,-0.01109036,0.02350289,0.99928295,0.01434833,-0.01451784,0.03188956
1755651215967,-0.02452247,0.01929781,-0.00619219,-0.03144337,-0.00017780,0.02085543,0.99928173,0.01417382,-0.01451882,0.03200531
1755651215978,0.02934890,-0.04583840,-0.00602731,-0.02511223,-0.00041682,0.01395997,0.99928117,0.01403319,-0.01452116,0.03208349
1755651215989,0.15228221,-0.00599523,-0.00746380,-0.03861818,-0.00487055,0.00947459,0.99928207,0.01381886,-0.01454819,0.03213607
1755651216000,0.03154065,-0.05107805,-0.00970877,-0.03119732,-0.00578733,0.01137313,0.99928195,0.01364416,-0.01458060,0.03219976
1755651216011,0.02779674,0.03451721,0.08497356,-0.02060566,0.00710165,-0.00433735,0.99928483,0.01353083,-0.01454154,0.03217590
1755651216023,-0.18680159,0.13652811,0.00118820,-0.03389708,0.01530904,0.00614954,0.99928754,0.01333931,-0.01445504,0.03221065
1755651216034,-0.09381204,0.00605070,-0.04851024,-0.03124130,0.01228363,0.01229753,0.99928861,0.01316748,-0.01438748,0.03227828
1755651216045,0.00812099,-0.04739551,-0.00089849,-0.02084726,0.02522880,0.01977147,0.99928859,0.01305074,-0.01424620,0.03238900
1755651216056,-0.01710592,-0.07127469,0.03421185,-0.02153468,0.01741226,0.01060269,0.99928961,0.01293014,-0.01414869,0.03244838
1755651216067,0.02090724,0.04228965,0.08552962,-0.03810783,0.02551751,-0.00225033,0.99929477,0.01271674,-0.01400579,0.03243578
1755651216078,-0.01016868,0.07038028,0.04056916,-0.02794518,0.01876419,-0.00754044,0.99929950,0.01256304,-0.01390259,0.03239431
1755651216090,-0.12686030,0.22167724,-0.06075195,-0.00493131,0.01635782,0.00302316,0.99930057,0.01253543,-0.01381099,0.03241124
1755651216101,0.04407442,0.20119859,-0.02767825,0.01715498,0.03357660,0.01485085,0.99929925,0.01263064,-0.01362464,0.03249366
1755651216112,-0.00186641,0.19878574,0.01602717,0.02150118,0.02369007,0.01318247,0.99929712,0.01275104,-0.01349197,0.03256748
1755651216123,0.15281780,0.03114667,0.09993196,0.02747652,0.02145769,0.00985017,0.99929498,0.01290354,-0.01337288,0.03262215
1755651216134,0.06385694,-0.04692517,0.10449317,0.01633393,0.01061754,0.01858384,0.99929122,0.01299419,-0.01331396,0.03272529
1755651216145,0.04331333,-0.01818184,0.14304050,-0.00979207,0.00579855,0.01587997,0.99928948,0.01294033,-0.01328206,0.03281263
1755651216156,-0.00661996,-0.13362552,0.06392502,0.01032669,-0.00196028,0.01354106,0.99928606,0.01299868,-0.01329314,0.03288914
1755651216167,0.02119318,-0.03743288,0.01056295,0.00475322,-0.00912794,0.02021031,0.99928130,0.01302530,-0.01334426,0.03300231
1755651216179,-0.00338635,0.08200675,0.08244732,0.01179956,-0.01103001,0.01616875,0.99927666,0.01309079,-0.01340547,0.03309205
1755651216190,-0.05176297,0.04654472,0.12926189,0.03156324,-0.01516198,0.02055774,0.99926937,0.01326754,-0.01349038,0.03320717
1755651216201,0.01159307,0.04253242,-0.01432289,0.04914732,-0.00818272,0.02424016,0.99926061,0.01354031,-0.01353579,0.03334171
1755651216212,-0.04570141,0.16121778,-0.05232803,0.03993932,-0.00351829,0.01775486,0.99925397,0.01376397,-0.01355550,0.03344113
1755651216223,0.03801317,0.08505446,-0.24518492,0.05826165,0.01455081,0.02021381,0.99924673,0.01409023,-0.01347401,0.03355433
1755651216234,-0.09626888,0.00000896,-0.12361046,0.05578499,0.01119914,0.01556343,0.99924036,0.01439426,-0.01341298,0.03363915
1755651216245,-0.00220135,-0.08547101,-0.02735711,0.03894615,0.02327325,0.02130081,0.99923497,0.01461041,-0.01328381,0.03375737
1755651216257,-0.04097545,-0.11486997,-0.02174627,0.03054666,0.02254057,0.01620793,0.99923105,0.01478147,-0.01315758,0.03384813
1755651216268,0.01425382,-0.13284394,-0.02117234,0.02245387,0.03943869,0.01142164,0.99922989,0.01490834,-0.01293475,0.03391267
1755651216279,-0.07625279,-0.10925266,-0.07740365,0.01394087,0.03399280,0.01340937,0.99922864,0.01498501,-0.01274779,0.03398642
1755651216290,-0.25309857,0.20616959,-0.10598762,0.00259068,0.03559069,0.01445428,0.99922818,0.01499952,-0.01254849,0.03406736
1755651216301,0.00950329,-0.04799162,-0.07982765,0.02086360,0.03042899,0.01340767,0.99922599,0.01511636,-0.01237808,0.03414245
1755651216312,0.05019058,0.09628213,0.01356269,0.00940092,0.03559222,0.01415029,0.99922494,0.01516853,-0.01218055,0.03422098
1755651216323,0.30180870,-0.17348409,0.10457329,0.01900051,0.02282302,0.02239210,0.99922064,0.01527303,-0.01205502,0.03434414
1755651216335,0.09859891,0.06032346,0.07114732,0.00766977,0.01466130,0.01794125,0.99921746,0.01531675,-0.01197145,0.03444640
1755651216346,0.05825545,-0.05935029,-0.04705248,0.01661190,0.01746144,0.02468990,0.99921246,0.01540895,-0.01187454,0.03458343
1755651216357,-0.01741553,-0.04595764,-0.06579199,0.01380605,0.00747953,0.01838083,0.99920823,0.01548557,-0.01183303,0.03468544
1755651216368,0.07933741,-0.05369788,0.02902588,0.01044845,-0.00020125,0.02246349,0.99920299,0.01554356,-0.01183415,0.03481012
1755651216379,0.02737975,-0.00988856,-0.04277337,0.00196625,-0.00242476,0.02451373,0.99919786,0.01555457,-0.01184772,0.03494739
1755651216390,0.46774860,-0.36639127,0.07798978,0.00022037,0.00373533,0.01932864,0.99919433,0.01555579,-0.01182699,0.03505467
1755651216402,0.02679757,0.01862560,-0.01647237,0.00087039,-0.00174098,0.01466590,0.99919125,0.01556067,-0.01183674,0.03513680
1755651216413,0.05616853,-0.06765363,-0.07626204,0.01633314,-0.00473664,0.01116056,0.99918735,0.01565132,-0.01186303,0.03519874
1755651216424,-0.33476515,0.44216091,0.00774023,0.00931531,-0.00842995,0.00776152,0.99918446,0.01570302,-0.01190982,0.03524181
1755651216435,-0.02609553,0.02749961,0.02039355,0.01229868,-0.00678827,0.00712174,0.99918151,0.01577189,-0.01194783,0.03528170
1755651216446,0.02406705,-0.00133706,0.02114663,0.00769778,0.00343643,0.00472835,0.99918015,0.01581423,-0.01192893,0.03530770
1755651216457,-0.05404781,0.08589248,0.02864810,-0.00258768,0.00839882,-0.00100834,0.99918114,0.01579974,-0.01188190,0.03530205
1755651216468,-0.05501475,-0.07992976,-0.05713198,0.02162882,0.00796253,-0.00367904,0.99918047,0.01592194,-0.01183691,0.03528127
1755651216480,-0.02441205,0.08332357,0.02558034,0.01688697,0.01298915,-0.00164885,0.99918015,0.01601482,-0.01176547,0.03527220
1755651216491,-0.39378185,-0.04585770,0.00400866,0.01694523,0.01024178,0.00046731,0.99917921,0.01610971,-0.01170811,0.03527482
1755651216502,0.02660922,-0.09930940,0.01520527,0.02461979,0.01261780,0.01417994,0.99917499,0.01624758,-0.01163746,0.03535422
1755651216513,-0.03799280,0.03363460,0.06489357,0.00127314,0.00620928,0.00933701,0.99917344,0.01625465,-0.01160299,0.03540604
1755651216524,0.41023244,0.02950964,0.06579199,0.00299342,0.00959708,0.00860531,0.99917210,0.01627126,-0.01154973,0.03545380
1755651216535,0.03064200,-0.00326005,0.03039409,0.00525829,0.00753190,0.03747855,0.99916450,0.01630123,-0.01150680,0.03566743
1755651216546,-0.07490982,0.05791079,-0.00362969,0.02334932,0.00789747,0.02796047,0.99915739,0.01642965,-0.01146336,0.03582121
1755651216557,-0.00606777,-0.01406620,-0.08784993,0.04207134,0.02226111,0.02213500,0.99915102,0.01664632,-0.01134872,0.03593521
1755651216605,0.11546804,-0.02964761,0.11795966,0.00446195,0.00409860,0.00504099,0.99914593,0.01675452,-0.01124933,0.03605745
1755651216615,-3.58332192,0.89804866,-2.11632204,0.10039045,0.11940954,0.04270215,0.99913631,0.01725146,-0.01065825,0.03626883
1755651216630,2.03289081,-0.42150772,1.06419674,0.01843705,0.02434682,0.01339097,0.99913216,0.01739066,-0.01047443,0.03636993
1755651216675,0.10324052,-0.04702772,0.08591275,0.00841630,0.00678241,0.00396621,0.99912721,0.01757918,-0.01032250,0.03645877
1755651216681,-2.23840103,0.01626938,-3.39747851,0.04803229,0.04520697,0.02774796,0.99912322,0.01771607,-0.01019366,0.03653786
1755651216696,0.54702153,-0.30238996,1.15307640,0.00001717,-0.00162811,-0.00692676,0.99912501,0.01771620,-0.01020596,0.03648556
1755651216717,0.04201561,0.04991530,0.08190421,0.00116328,0.00125067,0.00397067,0.99912352,0.01772749,-0.01019383,0.03652407
1755651216760,0.11477551,0.06671378,0.06160852,-0.00070159,0.00795093,0.00279026,0.99912332,0.01771177,-0.01001572,0.03658658
1755651216763,-8.75457065,4.16420392,-6.94115670,0.05501769,0.18109720,-0.01569678,0.99912547,0.01779705,-0.00973502,0.03656225
1755651216787,1.06702980,-0.46482327,0.96447221,0.01351181,0.02083966,-0.01072683,0.99912960,0.01795649,-0.00948912,0.03643567
1755651216803,0.01856727,-0.00786303,0.11581940,0.05515672,0.02524915,0.01122164,0.99912014,0.01840050,-0.00928586,0.03652600
1755651216817,-0.00900539,0.07873939,-0.08831832,0.04270975,0.03206447,0.01125504,0.99911372,0.01870160,-0.00905981,0.03660535
1755651216831,-0.03622622,0.04018180,-0.19538183,0.02046548,0.01789307,-0.00913208,0.99911448,0.01884282,-0.00893634,0.03654234
1755651216841,-0.00571131,-0.02355915,-0.05092584,0.02417865,0.03704782,0.02113257,0.99911001,0.01896250,-0.00875296,0.03664695
1755651216853,-0.07545064,-0.02049109,-0.05808070,0.04453981,0.02246868,-0.01235912,0.99910878,0.01923197,-0.00861702,0.03657217
1755651216865,-0.31556527,0.08026649,0.05299559,0.06453441,0.03016183,-0.01048366,0.99910510,0.01961917,-0.00843605,0.03650927
1755651216877,0.04100932,0.07957599,0.06306099,0.06849824,0.03825380,-0.00286200,0.99909943,0.02003359,-0.00820461,0.03649196
1755651216889,0.09430304,0.03058410,-0.04831191,0.04522937,0.03708498,0.01023369,0.99909361,0.02030044,-0.00798581,0.03655234
1755651216901,0.14578597,-0.05180964,0.01617391,0.04766818,0.03661769,-0.00051263,0.99908957,0.02058883,-0.00776428,0.03654923
1755651216912,-0.05940315,-0.03305987,0.01479772,0.03226073,0.05145866,0.00739119,0.99908646,0.02077272,-0.00747096,0.03659136
1755651216924,0.02322041,-0.19939399,0.04603671,0.01135713,0.04422793,0.01282495,0.99908424,0.02083859,-0.00721444,0.03666575
1755651216936,-0.01026192,-0.17666370,0.01357494,0.01572845,0.04052581,0.00280101,0.99908337,0.02093375,-0.00696926,0.03668269
1755651216948,0.02116960,-0.10340537,0.06513724,0.00009738,0.05603460,0.00468056,0.99908463,0.02093434,-0.00663025,0.03671101
1755651216958,-0.18629900,0.00868585,-0.07111317,-0.02012203,0.06549515,0.00316013,0.99908845,0.02082870,-0.00628640,0.03672760
1755651216970,0.03344808,0.01254303,0.00763245,-0.00555391,0.04695873,0.00678486,0.99908937,0.02079565,-0.00600700,0.03676797
1755651216983,0.01757332,0.02614809,-0.07947061,0.01587007,0.03330023,0.00837144,0.99908665,0.02089325,-0.00580220,0.03681946
1755651216992,-0.41715274,-0.00403783,-0.04149072,0.02159978,0.04023648,0.01079098,0.99908364,0.02099801,-0.00560705,0.03687179
1755651217004,0.14621652,0.04009597,0.04023072,-0.00386320,0.04460593,0.02095507,0.99908110,0.02097618,-0.00535503,0.03699019
1755651217015,0.02506353,-0.10108370,0.00912561,-0.01500370,0.04608512,0.01140102,0.99908187,0.02088991,-0.00509004,0.03705575
1755651217026,0.09399157,-0.07357451,-0.10077832,-0.01408868,0.02569424,0.01019111,0.99908212,0.02081031,-0.00494487,0.03711332
1755651217038,0.09985554,0.02366391,0.10234373,-0.02218727,0.03933285,-0.00323165,0.99908670,0.02067830,-0.00471084,0.03709410
1755651217049,0.01087860,-0.02836385,0.03924245,-0.01706947,0.02833656,-0.00486631,0.99909036,0.02058441,-0.00455499,0.03706733
1755651217060,0.11675440,0.14380125,0.20757902,0.00241461,0.03691094,0.00640661,0.99908968,0.02059782,-0.00435013,0.03710289
1755651217072,-0.03783147,0.15030943,-0.03133616,0.01289396,0.02688126,-0.00028712,0.99908887,0.02067131,-0.00419691,0.03710125
1755651217083,0.00020741,-0.04374637,-0.06073676,0.02446903,0.02964506,0.00678727,0.99908537,0.02080589,-0.00403386,0.03713858
1755651217094,-0.00591120,-0.00541860,-0.18127694,-0.00408159,0.01554368,0.00143798,0.99908588,0.02078344,-0.00394837,0.03714649
1755651217105,0.04667918,-0.03368964,-0.00986204,-0.01218379,0.01517415,0.01079918,0.99908538,0.02071460,-0.00386263,0.03720751
1755651217116,0.07618304,-0.08164524,0.01998301,-0.00672088,0.01003826,0.00709267,0.99908490,0.02067764,-0.00380742,0.03724652
1755651217127,-0.11241530,-0.08148641,0.07232869,-0.01435556,0.00159992,0.00126820,0.99908633,0.02059725,-0.00379846,0.03725362
1755651217139,0.07833767,-0.11002950,0.04516211,-0.03415937,-0.01332240,0.01966532,0.99908585,0.02040425,-0.00387374,0.03736473
1755651217150,0.07468669,-0.00046679,0.03360901,-0.05719086,-0.01635731,0.02574724,0.99908658,0.02008112,-0.00396615,0.03751020
1755651217161,0.10898238,-0.00992176,-0.02254628,-0.02871372,-0.00781704,0.01148771,0.99908720,0.01992319,-0.00400915,0.03757338
1755651217172,-0.05567553,0.11468650,-0.11062117,-0.00170231,-0.00779709,-0.00511828,0.99908830,0.01991357,-0.00405320,0.03754446
1755651217183,0.07604315,0.12288261,0.05998007,-0.00774846,-0.00709331,0.00393382,0.99908818,0.01987018,-0.00409292,0.03756649
1755651217195,0.11572590,-0.14145547,-0.01836696,0.02764656,-0.01250305,-0.01313096,0.99908757,0.02002224,-0.00416169,0.03749427
1755651217206,-0.02302720,0.09224952,0.09722790,-0.01654984,-0.02294708,-0.01488669,0.99909196,0.01993039,-0.00428905,0.03741165
1755651217217,0.01571112,-0.19467741,-0.07359330,-0.00253770,-0.01477921,-0.01430490,0.99909491,0.01991605,-0.00437255,0.03733083
1755651217228,-0.06974872,0.02020097,-0.08753465,-0.02180162,-0.01779947,-0.00541293,0.99909797,0.01979614,-0.00447045,0.03730106
1755651217239,-0.00207345,-0.09047998,-0.01693314,-0.02216956,-0.02304290,0.00110411,0.99909961,0.01967199,-0.00459949,0.03730724
1755651217250,0.03421185,-0.02946020,0.03421185,-0.02218675,-0.01324973,-0.00821824,0.99910342,0.01954775,-0.00467369,0.03726122
1755651217261,-0.08395318,0.03296024,0.17156567,-0.06259691,-0.01544399,0.01783025,0.99910603,0.01920346,-0.00475863,0.03735928
1755651217272,0.03229789,-0.06630654,-0.09932128,-0.03874862,-0.01249720,0.02491334,0.99910463,0.01898841,-0.00482799,0.03749755
1755651217284,0.00672936,-0.08307247,-0.12708726,0.00376592,-0.01105348,-0.01349277,0.99910676,0.01900950,-0.00488989,0.03742199
1755651217295,-0.00570197,0.05369360,-0.18816517,-0.03364929,-0.00886687,-0.01307033,0.99911282,0.01882106,-0.00493954,0.03734880
1755651217306,0.06082107,0.04609096,-0.07412567,-0.04162396,-0.00635732,-0.00537072,0.99911814,0.01858797,-0.00497514,0.03731872
1755651217317,-0.00570197,-0.14540036,-0.09883423,-0.00859958,-0.02634774,-0.01062469,0.99912051,0.01853981,-0.00512269,0.03725923
1755651217328,0.13880775,-0.08924863,0.05348233,-0.04005132,-0.00654735,-0.01809214,0.99912809,0.01831953,-0.00515870,0.03715972
1755651217339,-0.03553471,-0.10389506,-0.04802464,-0.05891473,-0.01445779,-0.01729965,0.99913718,0.01799255,-0.00523894,0.03706371
1755651217350,0.02243119,0.10414238,0.09770411,-0.06720077,0.00000196,-0.00165414,0.99914423,0.01761623,-0.00523893,0.03705444
1755651217362,-0.03811374,0.08358762,0.00784390,-0.04527352,-0.00225570,0.00682939,0.99914716,0.01736496,-0.00525145,0.03709235
1755651217373,-0.05345816,0.02787204,-0.00777386,-0.03538195,-0.00745291,-0.00926601,0.99915228,0.01716682,-0.00529319,0.03704046
1755651217384,0.09999788,0.10429933,0.12237601,-0.04862881,0.00599000,0.00093829,0.99915683,0.01689936,-0.00526024,0.03704562
1755651217395,-0.04499377,-0.10148651,-0.01185320,-0.02589710,-0.00855652,0.01166479,0.99915659,0.01675434,-0.00530816,0.03711094
1755651217407,-0.01155792,0.05466317,0.07641072,-0.05363459,-0.01960359,-0.00476052,0.99916227,0.01643789,-0.00542382,0.03708285
1755651217417,0.10331643,-0.15442116,0.11927998,-0.04358467,-0.00309264,-0.01787972,0.99916920,0.01621561,-0.00543959,0.03699167
1755651217428,0.00361498,0.15241603,0.15678568,-0.05391116,-0.01585248,-0.00952519,0.99917554,0.01591371,-0.00552836,0.03693833
1755651217439,-0.01330461,0.13304608,-0.04371514,-0.02916996,-0.01410512,-0.00390486,0.99917849,0.01575036,-0.00560735,0.03691646
1755651217450,0.14635069,0.15062717,0.12544345,0.01584763,-0.00825225,-0.00254275,0.99917735,0.01583910,-0.00565357,0.03690222
1755651217462,0.15509841,0.14683122,0.13655985,0.00538046,-0.01148842,0.00219889,0.99917607,0.01586896,-0.00571733,0.03691442
1755651217473,-0.00580518,0.11174964,0.00967529,0.04852105,-0.01584645,-0.00871263,0.99917303,0.01613826,-0.00580527,0.03686607
1755651217484,-0.03962273,0.13811450,-0.05369788,0.05597826,-0.02218381,-0.01481773,0.99917025,0.01645173,-0.00592950,0.03678309
1755651217489,-0.16818784,-0.08880881,-0.36255387,0.04579972,-0.04000678,-0.01824251,0.99916935,0.01657768,-0.00603952,0.03673292
1755651217497,0.18563736,-0.19989465,0.30454562,0.00417267,-0.00795828,-0.01164491,0.99917047,0.01659271,-0.00606817,0.03669100
1755651217509,-0.09397489,-0.08318469,-0.05953523,-0.01118149,-0.02505772,-0.00734093,0.99917230,0.01652450,-0.00622102,0.03664622
1755651217519,0.02802395,-0.08355399,0.04561221,-0.01461613,-0.01118259,-0.01639937,0.99917616,0.01645142,-0.00627694,0.03656422
1755651217530,-0.16570233,-0.02278584,-0.02041158,0.01897868,-0.01258535,-0.00129821,0.99917416,0.01656149,-0.00634993,0.03655669
1755651217541,0.04621458,0.09520355,-0.06293696,0.01790001,-0.02463419,-0.01059345,0.99917381,0.01665457,-0.00647803,0.03650161
1755651217552,0.03773832,0.15531599,-0.00254940,0.00822218,-0.00975538,-0.04261762,0.99918144,0.01670103,-0.00653315,0.03626082
1755651217563,0.19139050,-0.03238520,-0.05565948,-0.01653259,-0.02714243,-0.01244605,0.99918445,0.01661010,-0.00668243,0.03619236
1755651217575,0.03355565,-0.24473778,-0.01891258,-0.02032370,-0.01772063,0.00433581,0.99918479,0.01649426,-0.00678344,0.03621708
1755651217586,0.03689776,-0.06110511,0.00624806,-0.05562769,-0.01781680,-0.02159665,0.99919389,0.01617161,-0.00688678,0.03609182
1755651217597,0.12905741,-0.26609720,-0.20003545,-0.01399775,-0.02551391,-0.01882845,0.99919782,0.01609603,-0.00702455,0.03599014
1755651217608,0.07257690,0.24076287,0.16942965,-0.02406770,-0.02082462,-0.02755375,0.99920440,0.01596726,-0.00713596,0.03584273
1755651217619,-0.06630988,0.08556515,-0.08288291,0.01598844,-0.04686961,-0.01912605,0.99920489,0.01605680,-0.00739843,0.03573563
1755651217630,-0.08919585,0.25210583,0.06987888,0.01261425,-0.02675119,-0.02541248,0.99920766,0.01612618,-0.00754556,0.03559586
1755651217641,-0.06204127,0.10402753,0.03262170,-0.00132469,-0.02680611,-0.00237292,0.99920710,0.01611863,-0.00769836,0.03558233
1755651217652,-0.08742360,-0.05855031,-0.06336396,-0.00587531,-0.02519658,0.00562958,0.99920544,0.01608631,-0.00783694,0.03561329
1755651217663,-0.19309935,0.15615432,-0.04137843,-0.01760650,-0.01382349,0.00166059,0.99920607,0.01598948,-0.00791297,0.03562243
1755651217674,-0.09260887,-0.08916067,0.01379281,-0.03040844,-0.01440862,-0.02264219,0.99921253,0.01582223,-0.00799222,0.03549790
1755651217686,0.04654468,-0.13879411,0.06858785,-0.03031419,-0.01071099,-0.01447692,0.99921773,0.01564792,-0.00805381,0.03541465
1755651217697,0.10960845,-0.29507121,0.04157852,-0.01398220,-0.01807944,-0.02336045,0.99922272,0.01557032,-0.00815415,0.03528500
1755651217708,0.03941811,0.11096570,-0.03475735,-0.00317427,-0.01233598,-0.01556240,0.99922555,0.01555223,-0.00822446,0.03519630
1755651217719,0.02862503,0.11962188,-0.05332336,0.04735742,-0.01557780,-0.01618809,0.99922397,0.01580086,-0.00830624,0.03511131
1755651217730,-0.09240908,0.25902586,0.06012094,0.02439478,-0.01869410,-0.01338422,0.99922354,0.01593991,-0.00841280,0.03503502
1755651217741,0.05551693,0.03635736,0.03508697,0.04065426,0.00843720,-0.01229248,0.99922271,0.01616351,-0.00836640,0.03496741
1755651217752,-0.12610569,-0.16551372,-0.04728964,0.01285346,-0.02046346,0.01020365,0.99921865,0.01623420,-0.00847895,0.03502353
1755651217764,-0.09445510,-0.24181568,-0.09191009,-0.01473519,0.00058452,-0.00928381,0.99922195,0.01614874,-0.00847556,0.03496968
1755651217775,0.01078450,-0.10860555,0.05619207,-0.02985010,-0.00150266,0.00586163,0.99922343,0.01598008,-0.00848405,0.03500280
1755651217786,-0.11691151,-0.03471502,0.07452556,-0.04363968,0.00038341,-0.00619549,0.99922831,0.01574661,-0.00848199,0.03496966
1755651217797,-0.36915815,0.18037795,-0.13031780,-0.01777972,0.00294357,-0.01066062,0.99923214,0.01564615,-0.00846536,0.03490942
1755651217808,-0.17134948,0.29704019,-0.14265666,0.00786391,-0.00269523,-0.00703230,0.99923267,0.01568783,-0.00847965,0.03487215
1755651217819,0.31048867,-0.03648905,-0.04425306,0.02889524,0.02081940,0.00256704,0.99923059,0.01584965,-0.00836306,0.03488653
1755651217830,0.11752026,0.03262820,-0.01385640,0.02421972,0.00647397,0.00520057,0.99922774,0.01598407,-0.00832713,0.03491539
1755651217842,-0.00814353,-0.06632506,0.04415394,0.01525265,0.00855768,0.00285408,0.99922614,0.01607329,-0.00827707,0.03493209
1755651217852,0.04663242,-0.22983821,-0.00850775,-0.00190332,0.01369407,0.00899027,0.99922523,0.01606311,-0.00820380,0.03498019
1755651217863,-0.07805584,-0.21785587,0.07443624,-0.02654803,0.00020576,0.01117169,0.99922542,0.01591842,-0.00820268,0.03504107
1755651217874,0.05769670,-0.10898463,0.11496734,-0.02508042,0.00530224,0.00341760,0.99922721,0.01577923,-0.00817325,0.03506004
1755651217886,-0.05580401,0.10044380,0.08395430,-0.01976166,0.00067238,0.00327554,0.99922833,0.01566856,-0.00816949,0.03507838
1755651217897,-0.00769857,0.18253808,0.00101556,0.01332841,0.00547452,0.00759446,0.99922587,0.01574453,-0.00813828,0.03512167
1755651217908,-0.09385562,0.34974463,0.06809474,0.01743983,0.00526013,0.01687256,0.99922112,0.01584481,-0.00810804,0.03521869
1755651217919,-0.09496313,0.10347221,-0.09392888,0.04064802,0.01603997,0.01672507,0.99921529,0.01605822,-0.00802383,0.03530650
1755651217930,-0.21700301,0.18993983,0.01188679,0.01681176,0.01149707,0.02006682,0.99921036,0.01615152,-0.00796002,0.03541787
1755651217941,-0.00949698,-0.21324714,0.01024254,0.01947953,0.01710705,0.04879389,0.99919982,0.01625866,-0.00786593,0.03568623
1755651217952,0.12492509,-0.10374139,0.17772883,0.01846628,0.02116839,-0.00533024,0.99920012,0.01636207,-0.00774739,0.03565638
1755651217963,0.02075005,-0.12615891,0.06401243,0.03063472,0.00646049,-0.02226902,0.99920200,0.01653209,-0.00771153,0.03553279
1755651217975,0.12958723,0.15639336,0.07150585,0.00822672,0.01985522,0.02581120,0.99919694,0.01657816,-0.00760034,0.03567733
1755651217986,0.04612592,0.17675596,0.00655198,0.07067811,0.02850688,0.00764903,0.99918984,0.01698103,-0.00743785,0.03572093
1755651217997,0.19896437,-0.01286455,-0.37438256,0.10281605,0.00446661,0.01197061,0.99917823,0.01753109,-0.00741396,0.03578497
1755651218008,-0.01193588,-0.02313028,0.00723386,0.04590451,0.01172197,0.01731864,0.99917076,0.01778586,-0.00734890,0.03588109
1755651218019,0.07890300,0.03396357,0.03212284,0.02982918,0.03609697,0.01621282,0.99916597,0.01795291,-0.00714676,0.03597189
1755651218030,-0.24708558,0.05416876,0.17676122,0.05263490,0.01079840,0.02212464,0.99915660,0.01824766,-0.00708629,0.03609578
1755651218041,-0.01140395,-0.07887732,0.07412567,0.05957802,0.01772973,-0.00191323,0.99915153,0.01858130,-0.00698700,0.03608507
1755651218052,-0.05833826,-0.00547369,0.15107746,0.00203951,0.02215174,-0.03174461,0.99915840,0.01859241,-0.00686627,0.03591206
1755651218063,-0.10858165,0.06709847,-0.07100441,0.00522017,0.00796543,0.00400822,0.99915735,0.01862165,-0.00682167,0.03593451
1755651218075,0.00380132,0.04466547,0.13304608,0.01906192,0.01481344,0.00936995,0.99915403,0.01872839,-0.00673871,0.03598698
1755651218086,0.00768539,0.01601263,-0.03811022,0.04972491,0.01894913,0.00731447,0.99914795,0.01900934,-0.00663165,0.03602831
1755651218097,0.05314830,0.00104122,0.08200760,0.05660913,0.01023526,0.01825821,0.99913898,0.01931220,-0.00657689,0.03612599
1755651218108,0.10838295,-0.11534992,-0.06271588,0.07871367,0.02555112,0.02829292,0.99912543,0.01975693,-0.00643253,0.03628584
1755651218119,-0.08447473,-0.07514621,0.03793057,0.04572317,0.00698606,0.00942550,0.99911873,0.02001069,-0.00639375,0.03633815
1755651218130,0.38910414,-0.09096191,-0.10164241,0.03381826,0.02776408,0.00065979,0.99911576,0.02020008,-0.00623827,0.03634185
1755651218142,-0.06276794,-0.09514290,0.05687116,0.01448879,-0.00021666,0.01088376,0.99911183,0.02028266,-0.00623951,0.03640389
1755651218152,0.09165973,-0.08614616,0.14233078,0.02295124,0.02377712,0.00860480,0.99910840,0.02040660,-0.00611111,0.03645035
1755651218164,-0.32444484,0.05852209,0.06627576,0.02428049,0.01798668,0.02154013,0.99910188,0.02054136,-0.00601129,0.03656990
1755651218174,-0.00918391,0.28538834,0.13334755,0.02144573,0.02062512,0.00862219,0.99909842,0.02065824,-0.00589888,0.03661689
1755651218186,0.03762315,-0.07185707,-0.15840994,0.04454152,0.01630897,0.01573657,0.99909010,0.02092103,-0.00580266,0.03670974
1755651218197,-0.01918784,0.02647721,-0.23861101,0.03613602,0.01579372,-0.00725839,0.99908799,0.02111074,-0.00571974,0.03667163
1755651218208,-0.01390721,-0.17124330,0.00901393,0.02509082,0.00529611,-0.00199831,0.99908553,0.02125502,-0.00568929,0.03666014
1755651218219,0.10940012,-0.07834488,0.14032685,-0.00539416,0.02365896,0.01744870,0.99908336,0.02122535,-0.00555916,0.03675611
1755651218230,-0.12216489,0.12364269,0.30147143,0.03784007,0.01089209,-0.00687567,0.99908064,0.02143347,-0.00549926,0.03671829
1755651218241,0.08959099,0.00864258,-0.02993664,0.06789292,0.02800803,0.03491180,0.99906645,0.02180349,-0.00534661,0.03690856
1755651218252,-0.03215296,0.01841900,-0.01079188,0.05561839,0.01977244,-0.02311229,0.99906495,0.02211773,-0.00523490,0.03677798
1755651218264,0.11576437,-0.04807956,-0.15310771,0.02710187,0.01795321,-0.02075511,0.99906639,0.02227086,-0.00513346,0.03666071
1755651218275,0.09994538,0.00064819,0.13579999,-0.00151850,0.00969301,0.01701613,0.99906344,0.02226258,-0.00508064,0.03675345
1755651218286,0.03202895,-0.00604225,0.00377009,0.00055292,0.01314007,0.01664084,0.99906025,0.02226573,-0.00500574,0.03684830
1755651218297,-0.19485430,0.14422725,0.22833774,0.01895659,0.02775514,0.00562568,0.99905761,0.02236715,-0.00485725,0.03687840
1755651218308,0.01016358,0.01488368,-0.14189225,0.04145339,0.01985211,0.03045269,0.99904671,0.02259722,-0.00474707,0.03704741
1755651218319,0.11359430,0.03916041,0.12321745,0.01860342,0.00544227,0.03276712,0.99903767,0.02270139,-0.00471659,0.03723091
1755651218331,-0.18433817,0.07636956,0.05268582,0.02011574,-0.01147908,-0.02312474,0.99903970,0.02281907,-0.00478374,0.03709563
1755651218341,0.05622173,0.02388517,0.22512268,0.02007944,-0.00891394,-0.00775390,0.99903856,0.02292549,-0.00483099,0.03705453
1755651218352,0.00251030,0.04016485,-0.03241878,0.01614380,-0.00670013,-0.00785360,0.99903793,0.02301590,-0.00486851,0.03701055
1755651218363,0.09913667,-0.22740112,-0.13198755,0.05553610,-0.01133419,0.00152454,0.99903037,0.02331579,-0.00492971,0.03701878
1755651218375,0.10742330,0.09389347,0.01732634,0.05200283,0.00803321,-0.00585906,0.99902487,0.02361221,-0.00488392,0.03698539
1755651218386,-0.11560058,0.06753331,-0.01243140,0.05733710,0.00760092,-0.00572848,0.99901857,0.02393616,-0.00484098,0.03695302
1755651218397,-0.02309963,0.20071535,-0.06455958,0.06135598,0.00441169,0.00871044,0.99900895,0.02426749,-0.00481716,0.03700006
1755651218408,0.03617485,-0.06761955,-0.05799801,0.05815221,0.01872343,0.00847433,0.99899981,0.02459023,-0.00471324,0.03704709
1755651218419,-0.11251989,-0.05513524,-0.03945018,0.03952386,0.01484224,-0.00735042,0.99899615,0.02481749,-0.00462790,0.03700482
1755651218430,-0.07033477,-0.26780326,0.06433789,0.03935678,0.00236723,-0.00298888,0.99899142,0.02503395,-0.00461488,0.03698839
1755651218441,0.06970621,-0.03696016,0.14413733,-0.00612398,0.01736432,-0.00125861,0.99899295,0.02500058,-0.00452024,0.03698153
1755651218453,-0.07253889,-0.19099436,-0.11111004,0.02961956,-0.00559795,-0.00074480,0.99898879,0.02516645,-0.00455159,0.03697735
1755651218463,0.02637405,0.40194004,0.26266551,0.00315818,-0.00337393,-0.00593739,0.99898947,0.02518366,-0.00456998,0.03694500
1755651218476,0.09769809,0.02370360,-0.13989864,0.01700945,0.00314985,0.01450287,0.99898338,0.02529252,-0.00454982,0.03703781
1755651218497,-0.01230049,-0.00151684,0.06695642,0.02191219,-0.01340664,0.01684453,0.99897018,0.02552479,-0.00469193,0.03721637
1755651218509,0.03041053,-0.26619078,-0.19207407,0.01280387,-0.02271593,0.00128767,0.99896747,0.02559649,-0.00481914,0.03722358
1755651218520,-0.06381626,-0.04803418,-0.07927892,0.02146678,-0.01639813,-0.01334902,0.99896670,0.02571885,-0.00491261,0.03714749
1755651218531,0.20548132,-0.01344773,-0.09736157,0.03117925,0.00419917,0.00295445,0.99896187,0.02588722,-0.00488993,0.03716344
1755651218542,-0.10266561,0.09960177,-0.04423759,0.03939038,0.00550041,-0.00094561,0.99895653,0.02610584,-0.00485941,0.03715819
1755651218554,-0.06284028,-0.03260702,-0.17618941,0.05057266,0.01526120,0.00482633,0.99894799,0.02640674,-0.00476860,0.03718691
1755651218564,-0.23497244,0.15023139,0.21828264,0.04465608,0.02692049,-0.00628702,0.99894370,0.02663896,-0.00462862,0.03715422
1755651218576,0.01901279,-0.03116284,-0.01378831,0.04462759,0.03183938,0.00087946,0.99893757,0.02689110,-0.00444872,0.03715919
1755651218587,-0.06786864,0.01660133,-0.00173246,0.02339497,0.00632598,-0.00805973,0.99893587,0.02702211,-0.00441330,0.03711405
1755651218598,-0.13803366,-0.14556341,0.14809678,0.02175092,0.01983147,0.01959926,0.99892909,0.02714174,-0.00430422,0.03722185
1755651218609,-0.01164108,-0.12119728,0.01090725,0.01761891,0.01795553,0.00064932,0.99892666,0.02724217,-0.00420188,0.03722555
1755651218620,-0.03325485,-0.06848009,0.04386736,0.00649493,0.01090837,-0.00381237,0.99892671,0.02727789,-0.00414188,0.03720458
1755651218631,0.13714289,-0.05659167,-0.00390530,-0.01374657,-0.00339506,0.00343007,0.99892801,0.02720160,-0.00416072,0.03722362
1755651218643,0.06995990,-0.01300289,-0.06535085,0.00751058,0.01035890,0.01690931,0.99892353,0.02724404,-0.00410220,0.03731916
1755651218653,0.04195386,0.06750805,-0.05306134,0.02096254,0.00798364,0.04513561,0.99891125,0.02735933,-0.00405829,0.03756740
1755651218665,0.12625154,0.14371220,-0.18546316,0.05850663,0.00432107,0.01054211,0.99889970,0.02769867,-0.00403322,0.03762855
1755651218675,0.05883103,0.30944569,-0.01007516,0.03794294,0.00723179,0.01875883,0.99889085,0.02789218,-0.00399634,0.03772422
1755651218687,0.04073372,0.09398942,-0.17295991,0.03967651,0.00539837,0.00956779,0.99888272,0.02811437,-0.00396611,0.03777780
1755651218698,-0.13153094,0.08321011,-0.03921358,0.04241724,0.01104088,-0.00628367,0.99887749,0.02835614,-0.00390318,0.03774198
1755651218709,-0.03373880,-0.22388255,-0.03349683,0.04315399,-0.00038132,-0.00201452,0.99887113,0.02859349,-0.00390528,0.03773090
1755651218720,0.02521677,-0.06924606,0.15156748,-0.03222386,0.01292346,-0.02621856,0.99888229,0.02840981,-0.00383161,0.03758145
1755651218731,0.00686510,-0.10003243,0.01876461,0.00189734,0.01123912,-0.00074322,0.99888238,0.02842015,-0.00377036,0.03757740
1755651218742,-0.00732122,0.13985331,0.08244955,-0.04361161,0.00850958,0.00433221,0.99888846,0.02818029,-0.00372356,0.03760123
1755651218754,0.06153165,0.03453411,-0.10009714,-0.00873152,0.00792170,0.01639304,0.99888652,0.02813096,-0.00367880,0.03769385
1755651218765,0.03859843,0.11013138,-0.05394190,0.02377766,0.00609841,0.00547772,0.99888178,0.02826292,-0.00364495,0.03772425
1755651218776,0.04837647,0.09143152,-0.15093458,0.08993570,-0.00891689,0.00295223,0.99886673,0.02876207,-0.00369444,0.03774064
1755651218788,0.12217386,-0.10041164,-0.08862232,0.05631770,-0.01848500,0.00724579,0.99885508,0.02909434,-0.00380350,0.03778339
1755651218798,0.21990832,0.06905293,0.11103764,0.02010386,-0.03330412,-0.00239898,0.99885183,0.02919888,-0.00397668,0.03777091
1755651218809,0.00843816,-0.33407481,-0.08660783,0.01994327,-0.03366345,0.01114701,0.99884537,0.02931156,-0.00416688,0.03783389
1755651218821,0.03721861,-0.08661745,0.01774514,-0.01334317,-0.03238846,0.00584873,0.99884555,0.02923217,-0.00435959,0.03786869
1755651218831,-0.06220071,-0.19421352,0.01178540,0.01580832,-0.04725196,0.01261722,0.99883967,0.02931279,-0.00460058,0.03793304
1755651218843,0.10284064,0.03266170,-0.13575404,0.02348504,-0.02587762,0.01630255,0.99883158,0.02944548,-0.00474679,0.03802515
1755651218854,-0.01826650,0.14802848,-0.01665179,0.00285546,-0.04924800,0.00484549,0.99882872,0.02946147,-0.00502258,0.03805228
1755651218865,0.14229805,-0.10688927,0.06518261,0.01864706,-0.04682043,-0.01038215,0.99882656,0.02956310,-0.00527775,0.03799570
1755651218876,0.03307353,-0.17063134,-0.09272304,-0.00333098,-0.03903460,0.00547671,0.99882478,0.02954461,-0.00549439,0.03802610
1755651218887,-0.05532457,-0.07563678,-0.06657441,-0.05127808,-0.04293168,-0.00257018,0.99883243,0.02925745,-0.00573481,0.03801170
1755651218898,-0.00380132,-0.11974147,-0.10833752,-0.03341973,-0.03009804,-0.00011626,0.99883694,0.02907030,-0.00590336,0.03801105
1755651218910,0.01018572,-0.03245823,-0.03488025,-0.03449852,-0.02579809,-0.00704953,0.99884346,0.02886849,-0.00605427,0.03796981
1755651218920,0.01419505,-0.00515679,0.03116257,-0.04071410,-0.04017809,-0.02491007,0.99885327,0.02865474,-0.00626521,0.03783904
1755651218931,0.04391180,-0.06054293,-0.01548173,-0.02731504,-0.03568256,-0.03884579,0.99886439,0.02850451,-0.00646146,0.03762538
1755651218943,0.04213008,0.17038325,0.03118169,-0.03218352,-0.03273278,-0.02567480,0.99887380,0.02832267,-0.00664640,0.03748032
1755651218954,0.00907594,0.08358854,0.01063426,-0.02456460,-0.03719186,-0.01809663,0.99888003,0.02818634,-0.00685282,0.03737989
1755651218965,0.00686634,0.12998106,0.00513691,-0.02520431,-0.02190469,-0.00876183,0.99888499,0.02804519,-0.00697549,0.03733082
1755651218976,0.02016262,-0.03052901,0.01997257,-0.00365619,-0.02149584,-0.00510984,0.99888578,0.02802490,-0.00709479,0.03730246
1755651218988,-0.04724981,0.08507049,-0.01010402,-0.02504396,-0.03329347,-0.00917819,0.99889052,0.02787714,-0.00729122,0.03724831
1755651218999,0.19172778,-0.38401301,0.26815275,-0.01389668,-0.05058550,-0.01295596,0.99889314,0.02780349,-0.00755932,0.03717964
1755651219010,0.11760145,-0.03287900,0.06287096,-0.02036740,-0.03539949,-0.02354585,0.99889951,0.02769249,-0.00775225,0.03705132
1755651219021,-0.03042797,-0.01317819,0.00278996,-0.00942367,-0.06816250,0.00216064,0.99889749,0.02763971,-0.00813396,0.03706342
1755651219033,-0.10054107,0.26951623,-0.16074940,-0.01406952,-0.04993554,-0.00194075,0.99889777,0.02755459,-0.00843607,0.03705167
1755651219043,0.11518583,0.10316683,0.00791735,-0.00893258,-0.05542982,-0.00594421,0.99889772,0.02750770,-0.00872708,0.03702047
1755651219054,0.17840710,-0.11963882,-0.07285355,0.00552416,-0.05227954,-0.00085834,0.99889453,0.02753780,-0.00901200,0.03701579
1755651219065,0.30753248,-0.16041954,-0.13851093,0.01467962,-0.03817932,0.01021063,0.99888847,0.02761634,-0.00921626,0.03707042
1755651219076,-0.22099802,0.11248322,-0.04997822,0.00769766,-0.03751001,-0.01090062,0.99888760,0.02765868,-0.00942256,0.03701046
1755651219088,-0.28023632,0.04859683,-0.02827855,0.02014681,-0.03377628,0.00013499,0.99888242,0.02777654,-0.00962015,0.03701125
1755651219098,-0.14078604,0.11622195,0.07790641,0.00351137,-0.03209001,-0.00736471,0.99888170,0.02779497,-0.00978863,0.03697259
1755651219110,-0.14839569,-0.00926418,0.01763401,-0.00244670,-0.02229483,-0.01793498,0.99888466,0.02778078,-0.00991794,0.03686857
1755651219121,-0.00024219,0.10692712,0.00454972,0.00005496,-0.01039388,-0.01833808,0.99888778,0.02778108,-0.00997458,0.03676862
1755651219132,-0.09281180,-0.00329315,-0.12655994,0.01159699,-0.01739015,-0.01298112,0.99888766,0.02784544,-0.01007110,0.03669658
1755651219143,-0.00664040,0.10023657,0.01937849,0.00145191,-0.00740711,-0.01745146,0.99889071,0.02785386,-0.01011406,0.03659536
1755651219154,0.04740015,0.06072927,0.07615162,-0.01606378,-0.00935110,-0.01591247,0.99889580,0.02776632,-0.01016502,0.03650864
1755651219166,-0.03241606,-0.19630565,0.00866784,-0.00053445,-0.01758842,-0.00443244,0.99889578,0.02776327,-0.01026528,0.03648337
1755651219176,0.02680316,-0.06090274,0.00588180,-0.02070279,-0.01279834,-0.00519481,0.99889913,0.02765354,-0.01033311,0.03645584
1755651219187,-0.01746454,-0.16221939,0.09743563,-0.02505807,-0.00307862,-0.00542186,0.99890394,0.02751322,-0.01035035,0.03642548
1755651219199,-0.03289215,-0.09873480,0.08107173,-0.02698726,-0.01092347,-0.00357518,0.99890822,0.02736074,-0.01041207,0.03640528
1755651219210,0.03424662,0.01918090,-0.01006125,0.00272244,-0.00229746,-0.00961879,0.99890961,0.02737571,-0.01042470,0.03635237
1755651219221,-0.05086787,0.20154662,-0.05937270,0.00313863,-0.00820145,-0.00804589,0.99891031,0.02739392,-0.01047227,0.03630571
1755651219232,-0.06852241,0.05888273,-0.11078412,0.02664879,-0.01882257,-0.00077609,0.99890534,0.02754049,-0.01057580,0.03630144
1755651219243,0.07684566,0.06206765,0.07881606,0.01547562,-0.01061203,-0.00314675,0.99890300,0.02762560,-0.01063416,0.03628413
1755651219254,-0.07758142,-0.15837667,0.03808228,0.00914036,-0.01806836,-0.00927186,0.99890239,0.02767679,-0.01073534,0.03623221
1755651219266,0.03801317,-0.18721484,0.06652304,-0.01218288,-0.01284254,0.01291455,0.99890087,0.02760856,-0.01080726,0.03630453
1755651219277,-0.02466819,0.01957403,0.00560194,-0.02084778,-0.00217999,0.02129509,0.99889960,0.02748973,-0.01081969,0.03642591
1755651219288,-0.05885634,0.06364230,-0.17700742,-0.00591610,0.00818040,0.01400055,0.99889820,0.02745808,-0.01077592,0.03650082
1755651219299,-0.11771878,0.01397322,-0.08632594,0.00146280,0.01208621,0.00361150,0.99889797,0.02746635,-0.01070764,0.03652122
1755651219310,-0.02987229,0.19455256,0.02432170,-0.01172460,0.01421315,-0.01108551,0.99890289,0.02740069,-0.01062804,0.03645914
1755651219321,-0.00059498,0.18142795,-0.11546387,0.01313318,0.01670394,-0.01668447,0.99890516,0.02747095,-0.01053868,0.03636988
1755651219332,-0.06785528,0.11794739,-0.11776976,0.04277874,0.01714108,-0.02104686,0.99890383,0.02771051,-0.01044269,0.03625202
1755651219343,0.00352457,0.08154890,0.00355913,0.04860726,0.03183884,-0.03490638,0.99890516,0.02798028,-0.01026598,0.03605829
1755651219354,-0.07546729,-0.07014588,0.01548047,0.00499866,0.01784345,-0.03455921,0.99891230,0.02800802,-0.01016695,0.03586648
1755651219366,0.06153192,-0.14738407,0.07010970,-0.00807126,0.02042694,0.01340673,0.99891202,0.02796202,-0.01005052,0.03594290
1755651219377,0.02007362,-0.13165393,-0.00850295,-0.01107361,0.01902033,0.01251674,0.99891229,0.02790001,-0.00994400,0.03601300
1755651219388,-0.09300450,-0.13799197,0.03861804,-0.00624316,0.01606514,0.00484766,0.99891315,0.02786629,-0.00985725,0.03603917
1755651219399,-0.19247415,-0.10937821,0.16976837,-0.03057177,0.00826158,0.01353526,0.99891572,0.02768898,-0.00980933,0.03611768
1755651219410,0.04301316,-0.17661247,-0.10408611,-0.00719287,0.00016547,0.01911699,0.99891309,0.02765049,-0.00980845,0.03621995
1755651219421,0.02338701,0.21966294,-0.04191247,-0.01651487,-0.01192038,0.00342706,0.99891427,0.02755966,-0.00987401,0.03623880
1755651219433,0.16277493,0.11650249,-0.13255483,0.00083932,-0.00518189,-0.00054181,0.99891396,0.02756445,-0.00990355,0.03623571
1755651219443,-0.08396676,0.04674518,-0.05966514,0.00571427,0.00704338,0.00926830,0.99891162,0.02759588,-0.00986481,0.03628669
1755651219454,-0.06178878,0.08169181,-0.01273356,0.01091599,0.02708027,0.02119045,0.99890722,0.02765537,-0.00971722,0.03640218
1755651219465,-0.08485854,-0.02934543,-0.10293092,0.03899227,0.04408209,0.02441651,0.99889861,0.02787177,-0.00947257,0.03653769
1755651219477,-0.08320752,-0.04112000,-0.08127246,0.01724950,0.04427992,0.00496513,0.99889723,0.02796751,-0.00922681,0.03656525
1755651219488,-0.06683725,-0.07432421,0.01244521,-0.01037368,0.03303975,0.00526828,0.99889950,0.02790838,-0.00903849,0.03659527
1755651219499,0.00091661,-0.29277947,-0.00504134,-0.03498093,0.03339978,-0.00142785,0.99890686,0.02771424,-0.00885312,0.03658735
1755651219510,-0.01215968,-0.26691840,-0.00438459,-0.07909011,0.03061201,0.01692931,0.99891689,0.02727924,-0.00868475,0.03668046
1755651219521,-0.02084586,0.02166386,0.19398084,-0.11750818,0.03253883,0.01376376,0.99893324,0.02662707,-0.00850416,0.03675685
1755651219533,0.09855253,0.12752448,-0.02708838,-0.04860483,0.05110105,0.02056801,0.99893879,0.02634516,-0.00820777,0.03687614
1755651219544,-0.12214991,0.07043179,-0.06703091,-0.03136727,0.04456240,0.02401297,0.99894040,0.02617578,-0.00796714,0.03700581
1755651219554,-0.02528841,0.28125223,-0.04660053,-0.03006288,0.03150496,0.00244875,0.99894554,0.02601194,-0.00779544,0.03701916
1755651219565,0.04830195,-0.06577345,-0.00789968,-0.00914564,0.02822810,0.00189276,0.99894766,0.02596163,-0.00764018,0.03702957
1755651219577,0.09498789,-0.04011015,-0.07453392,0.02466380,0.02591020,0.00367923,0.99894437,0.02610099,-0.00749379,0.03705036
1755651219588,0.00255154,0.06438779,0.11463082,-0.02307634,0.01570922,0.01882023,0.99894448,0.02597291,-0.00740660,0.03715481
1755651219599,-0.03643785,0.03100556,0.07763590,-0.06077043,0.02767301,0.02069887,0.99895009,0.02563260,-0.00725163,0.03727072
1755651219610,-0.01354541,-0.18560582,0.01261244,-0.03377796,0.02857523,0.02265298,0.99895132,0.02544513,-0.00709304,0.03739645
1755651219621,-0.07740235,0.01354541,-0.00967529,-0.03313331,0.02064852,0.01738933,0.99895318,0.02526124,-0.00697844,0.03749296
1755651219632,0.02709082,-0.01983435,0.03483106,-0.01596264,0.01582441,0.01028256,0.99895388,0.02517265,-0.00689062,0.03755003
1755651219644,-0.02037842,0.07096499,0.07690250,-0.01792110,0.02533594,-0.00667766,0.99895886,0.02507050,-0.00674620,0.03751196
1755651219655,0.02614019,0.05848097,0.16516726,-0.01861321,0.03455500,0.00213935,0.99896222,0.02496905,-0.00655788,0.03752362
1755651219666,-0.06552883,0.05674231,0.08130735,-0.01937226,0.01072392,0.00061582,0.99896527,0.02485766,-0.00649621,0.03752716
1755651219677,0.01841455,0.04748020,0.07188685,-0.00383440,0.02107218,0.00298350,0.99896590,0.02483734,-0.00638453,0.03754298
1755651219690,0.13570271,0.10680168,-0.01454344,-0.00927191,0.00694232,0.01591367,0.99896381,0.02477754,-0.00633975,0.03764562
1755651219699,-0.08519826,-0.06986065,-0.00224375,0.00604295,0.01442329,0.01539221,0.99896083,0.02480564,-0.00627268,0.03771719
1755651219712,0.15711094,0.02880193,0.08509118,-0.01432555,0.00941964,0.02270627,0.99895792,0.02471181,-0.00621099,0.03786592
1755651219721,-0.33854045,-0.34065815,-0.04637602,0.00359675,0.00521526,0.01450968,0.99895519,0.02472799,-0.00618752,0.03793121
1755651219732,0.08777760,0.06667343,0.07866998,-0.01468648,0.00305250,0.01392625,0.99895435,0.02464501,-0.00617027,0.03800990
1755651219743,0.02301708,0.08487112,0.12279263,-0.01291658,0.01192092,0.01058527,0.99895429,0.02457397,-0.00610471,0.03806812
1755651219755,0.01710592,0.19656263,-0.02156383,0.00261450,-0.00221692,0.00508723,0.99895277,0.02458861,-0.00611712,0.03809660
1755651219766,0.06462238,0.10358588,-0.00950329,0.02430930,0.00793492,0.00651427,0.99894829,0.02472474,-0.00607269,0.03813308
1755651219777,-0.02247778,0.08238685,0.04552571,0.02434670,0.00076853,0.01671426,0.99894141,0.02485987,-0.00606842,0.03822585
1755651219788,-0.02725294,0.15938830,0.02532022,0.04318222,0.02324517,0.00084217,0.99893582,0.02510817,-0.00593476,0.03823069
1755651219800,-0.02329582,0.10457699,0.01619306,0.00631809,0.01238205,0.01083832,0.99893291,0.02514481,-0.00586294,0.03829355
1755651219811,-0.10205321,-0.05187591,0.00322738,0.01609170,0.01285907,0.01009726,0.99892897,0.02523332,-0.00579222,0.03834909
1755651219821,0.01419323,-0.10872797,-0.03133983,0.03479696,0.02357035,0.00531599,0.99892416,0.02540904,-0.00567319,0.03837593
1755651219833,0.04862212,-0.04902476,-0.05131769,0.02937705,0.01746499,0.00956701,0.99891815,0.02558236,-0.00557015,0.03843238
1755651219844,-0.01768309,0.07390457,0.05049035,0.03493959,0.03446029,0.00290323,0.99891376,0.02576929,-0.00538578,0.03844791
1755651219855,0.07132590,-0.10740480,-0.10096666,0.04535115,0.01583183,0.01482119,0.99890453,0.02602099,-0.00529792,0.03853017
1755651219866,0.06491350,0.10642432,0.09774873,0.01055710,0.01686574,0.01398488,0.99890043,0.02608064,-0.00520262,0.03860918
1755651219877,0.00638541,-0.05385542,-0.15343075,0.04268663,0.00972260,0.01946649,0.99889059,0.02631115,-0.00515012,0.03871430
1755651219888,0.05166975,0.01939375,0.02210395,0.03815108,0.01095606,0.01883634,0.99888116,0.02652479,-0.00508877,0.03881979
1755651219899,0.00524740,-0.05170940,-0.01007629,0.04290195,0.01299902,0.00413847,0.99887403,0.02677148,-0.00501402,0.03884358
1755651219910,0.02259125,-0.09995873,-0.06125055,0.01533408,0.01293014,0.01440706,0.99886912,0.02685428,-0.00494420,0.03892138
1755651219922,0.09235945,-0.03322219,-0.09030627,0.00892463,0.00220994,0.03480818,0.99885999,0.02690560,-0.00493149,0.03912153
1755651219933,0.12399519,-0.05715995,-0.03920597,0.02327318,0.00787012,0.01439551,0.99885358,0.02703476,-0.00488782,0.03920142
1755651219944,-0.06430487,-0.00450245,-0.10269995,0.03131676,0.02298708,-0.00488677,0.99885063,0.02720388,-0.00476369,0.03917503
1755651219955,0.00718026,0.10203719,0.07194344,-0.00620270,0.04067326,0.02604981,0.99884690,0.02716914,-0.00453592,0.03932091
1755651219966,-0.14487217,-0.08039655,-0.10292759,0.03256125,0.04117859,0.00987071,0.99884071,0.02735311,-0.00430326,0.03937668
1755651219977,-0.01884187,0.06714082,-0.05107373,0.03327838,0.02811013,0.00063519,0.99883624,0.02753448,-0.00415006,0.03938014
1755651219988,0.08912726,-0.16512439,-0.07956873,0.02965149,0.02443332,-0.02166561,0.99883699,0.02770201,-0.00401201,0.03925773
1755651219994,-0.41815637,0.48963076,0.12890359,-0.03121271,0.02692236,-0.02117654,0.99884168,0.02762086,-0.00394201,0.03920267
1755651220005,-0.01669678,-0.00825862,0.01350106,-0.02812979,0.02694773,-0.01354322,0.99884965,0.02746192,-0.00378975,0.03912616
1755651220016,0.01120300,-0.10782891,-0.00933584,-0.02589999,0.02111745,-0.00435363,0.99885507,0.02731559,-0.00367044,0.03910156
1755651220027,0.12221401,-0.20152865,-0.00317898,-0.01873874,0.01635771,-0.00817463,0.99886006,0.02721065,-0.00357884,0.03905578
1755651220038,0.23390022,-0.17798220,0.02769553,-0.00602686,0.02291955,0.00662688,0.99885998,0.02717720,-0.00345163,0.03909256
1755651220050,-0.04174599,0.07803401,0.01816755,-0.01697911,0.00487819,0.00581282,0.99886138,0.02708212,-0.00342432,0.03912511
1755651220061,-0.02366991,0.01511333,0.12679818,-0.02180521,0.00666657,-0.00230610,0.99886528,0.02696110,-0.00338732,0.03911231
1755651220072,0.01395528,0.02018379,-0.04013642,-0.01482954,0.00887121,-0.01672223,0.99887135,0.02687805,-0.00333764,0.03901867
1755651220083,0.02303020,-0.01871408,-0.01991801,-0.01013591,0.00647316,-0.00116639,0.99887329,0.02682028,-0.00330074,0.03901202
1755651220094,0.03386353,0.01336718,-0.07256470,-0.01898242,0.00314635,-0.00035089,0.99887624,0.02671493,-0.00328328,0.03901007
1755651220106,0.00387012,-0.01935059,-0.05611670,-0.00631895,0.00161430,-0.00053974,0.99887733,0.02667986,-0.00327432,0.03900708
1755651220117,0.03917687,0.08455240,-0.01021054,-0.00663584,0.00321235,-0.00215042,0.99887886,0.02664236,-0.00325617,0.03899493
1755651220128,-0.09986958,0.02615754,-0.09022853,-0.00409426,-0.00494023,0.00807108,0.99887763,0.02661964,-0.00328359,0.03903972
1755651220139,0.00431501,0.00212754,0.06316692,-0.00275440,0.00564149,-0.00147617,0.99887846,0.02660422,-0.00325200,0.03903145
1755651220150,-0.01015906,-0.09938340,0.01366635,0.00016623,-0.00041479,0.00402230,0.99887756,0.02660514,-0.00325430,0.03905378
1755651220161,0.06518744,0.05097959,0.14421031,-0.01839746,0.00813808,0.00217154,0.99887997,0.02650211,-0.00320872,0.03906594
1755651220173,-0.02126837,-0.04466616,-0.06036692,-0.00513526,0.00619771,0.00425126,0.99887991,0.02647361,-0.00317433,0.03908953
1755651220184,-0.09676234,0.09035832,0.00660950,-0.01076959,0.00195414,0.00591364,0.99888025,0.02641330,-0.00316338,0.03912265
1755651220195,0.06086796,-0.18018506,-0.02601963,-0.00263796,0.01914833,0.00709141,0.99887942,0.02639866,-0.00305711,0.03916201
1755651220206,-0.05503938,0.07265131,-0.00348201,-0.02227839,0.00773869,-0.00901561,0.99888487,0.02627279,-0.00301339,0.03911107
1755651220217,0.06587767,-0.05336213,0.03201466,-0.01508726,0.01124701,-0.00940425,0.99888926,0.02618981,-0.00295153,0.03905935
1755651220228,-0.04668708,0.11111940,0.00926139,-0.01364521,0.00512926,-0.00900124,0.99889331,0.02611340,-0.00292281,0.03900894
1755651220239,0.01463388,0.07965704,-0.00463032,-0.00995611,0.01026504,0.00255641,0.99889437,0.02605814,-0.00286583,0.03902313
1755651220251,-0.05441705,0.05267478,0.04450280,0.00305619,0.00939833,0.00344590,0.99889332,0.02607525,-0.00281320,0.03904242
1755651220262,-0.09409223,0.07988596,-0.02168302,-0.00396479,0.00257383,0.00482243,0.99889288,0.02605325,-0.00279892,0.03906919
1755651220273,0.06094093,-0.08059819,0.02909206,-0.00810465,-0.00165811,0.00437683,0.99889308,0.02600786,-0.00280820,0.03909370
1755651220284,0.08552962,-0.17818672,-0.00570197,-0.01582680,-0.00590418,0.01216611,0.99889262,0.02591923,-0.00284127,0.03916183
1755651220295,0.09215717,-0.06977873,0.05186648,-0.02339609,-0.00585241,0.00550482,0.99889469,0.02578939,-0.00287375,0.03919238
1755651220306,-0.00960603,0.00785948,0.02462294,-0.02402131,-0.00800307,0.00583698,0.99889674,0.02565487,-0.00291857,0.03922507
1755651220318,0.00185050,0.05806557,-0.09739277,-0.00921510,-0.00602144,0.00545193,0.99889677,0.02560280,-0.00295259,0.03925587
1755651220329,-0.00777698,0.12222592,-0.04709783,-0.00108127,-0.00040881,-0.00469864,0.99889793,0.02559685,-0.00295484,0.03923003
1755651220340,-0.01157517,0.03871876,-0.10542551,0.01686232,-0.00336214,0.00524470,0.99889433,0.02569044,-0.00297350,0.03925914
1755651220351,0.01914357,0.09423241,0.02282502,0.01762262,-0.00218362,-0.00413640,0.99889266,0.02578913,-0.00298572,0.03923597
1755651220362,0.05808631,0.01424946,0.08146251,0.00981584,0.00022555,-0.00766960,0.99889293,0.02584360,-0.00298447,0.03919341
1755651220373,-0.01005123,-0.14194151,0.00099314,-0.00389203,0.00017925,-0.00179776,0.99889389,0.02582181,-0.00298347,0.03918334
1755651220385,-0.06019947,-0.08404753,-0.05878242,-0.02227979,-0.00521476,-0.00422296,0.99889798,0.02569593,-0.00301293,0.03915948
1755651220396,0.10022892,-0.11705144,0.03075919,-0.02747617,0.00324136,-0.00234914,0.99890242,0.02554481,-0.00299510,0.03914656
1755651220407,-0.03792523,-0.06475974,-0.06674439,-0.02586160,-0.00201816,-0.00518899,0.99890730,0.02539740,-0.00300661,0.03911698
1755651220418,0.00580750,0.05677003,0.02779303,-0.02019865,-0.01069906,-0.00413407,0.99891083,0.02528631,-0.00306545,0.03909424
1755651220429,0.06915196,0.04251852,0.02679177,-0.00296280,-0.00834998,-0.00816329,0.99891287,0.02526986,-0.00311179,0.03904894
1755651220440,0.03309885,0.19391424,0.05458828,-0.01033302,-0.01467203,-0.00178962,0.99891447,0.02521200,-0.00319396,0.03903892
1755651220452,-0.04694245,0.01429265,-0.02992430,0.00509656,-0.01729713,-0.00195549,0.99891387,0.02524028,-0.00328996,0.03902806
1755651220463,-0.11771564,-0.01476071,0.04333174,0.00539287,-0.00833473,-0.00092344,0.99891314,0.02527075,-0.00333705,0.03902285
1755651220474,-0.04041857,0.02063105,0.02489755,-0.00668546,-0.01841488,0.00710182,0.99891221,0.02523432,-0.00343741,0.03906155
1755651220485,0.00351164,-0.04977542,-0.00534455,-0.01171169,-0.00976557,0.00017904,0.99891365,0.02516815,-0.00349258,0.03906256
1755651220496,0.15248815,-0.04832715,-0.00577171,-0.01161097,-0.00935146,-0.00166933,0.99891544,0.02510429,-0.00354402,0.03905338
1755651220507,-0.03611251,-0.01812537,-0.01772796,-0.01153743,-0.01486291,-0.00622325,0.99891812,0.02503968,-0.00362725,0.03901853
1755651220518,0.02850987,0.01710592,0.02280790,-0.01641248,-0.01232740,-0.00554989,0.99892138,0.02494777,-0.00369628,0.03898745
1755651220529,-0.01264699,-0.06528231,-0.15347434,-0.00620013,-0.01059631,-0.00527132,0.99892316,0.02491336,-0.00375509,0.03895819
1755651220541,-0.03688305,0.04664318,-0.00565061,-0.00075513,-0.00901951,-0.00049242,0.99892318,0.02490913,-0.00380560,0.03895544
1755651220552,-0.01696632,0.09177707,0.10438950,0.00940429,-0.01052240,-0.00343299,0.99892240,0.02496132,-0.00386400,0.03893638
1755651220563,0.02515576,0.01306165,0.10255811,0.01586613,-0.00315241,-0.00903990,0.99892208,0.02504938,-0.00388150,0.03888621
1755651220574,-0.03835262,0.01851607,0.00407076,-0.00819767,-0.01149433,0.01380525,0.99891995,0.02500306,-0.00394644,0.03896421
1755651220585,-0.09405616,0.05618260,-0.02800411,-0.00878110,-0.00254168,0.00739856,0.99891951,0.02495477,-0.00396042,0.03900490
1755651220596,-0.24577240,-0.06324873,-0.05625949,0.01164089,0.00943396,-0.00048958,0.99891820,0.02501995,-0.00390759,0.03900216
1755651220608,-0.07562027,0.02993719,-0.07381979,0.00587384,0.00787222,0.00114540,0.99891729,0.02505314,-0.00386311,0.03900863
1755651220619,0.04418582,0.03315244,-0.05210230,0.00545490,0.01795386,-0.00446958,0.99891787,0.02508314,-0.00376437,0.03898405
1755651220630,0.24121386,-0.04356081,-0.10825774,0.01292173,0.01602959,0.00022517,0.99891635,0.02515486,-0.00367540,0.03898530
1755651220641,-0.01419501,-0.04572710,0.05237940,0.00567156,0.01323436,-0.00576349,0.99891708,0.02518662,-0.00360129,0.03895303
1755651220652,-0.00190066,0.02423339,0.04941712,-0.01943545,0.01627920,-0.02019851,0.99892454,0.02507778,-0.00351013,0.03883991
1755651220663,0.01817573,-0.04410465,-0.04079173,-0.02428432,0.00835066,-0.01046874,0.99893034,0.02494300,-0.00346378,0.03878181
1755651220674,0.04850959,-0.05084689,0.01381830,-0.02311391,0.00060932,0.00465890,0.99893256,0.02481357,-0.00346037,0.03880790
1755651220686,0.00760263,-0.05892041,0.00950329,-0.01911128,-0.00480360,0.01099128,0.99893273,0.02470654,-0.00348727,0.03886945
1755651220697,0.03626507,-0.10258403,-0.02933687,-0.01254686,-0.00837284,0.01572943,0.99893088,0.02463691,-0.00353374,0.03895675
1755651220708,0.03021110,0.00183352,0.00297737,-0.02170571,-0.01217904,0.01405106,0.99893055,0.02451427,-0.00360255,0.03903614
1755651220719,0.01607708,-0.01615119,0.01803005,-0.03611947,-0.02379308,0.00225199,0.99893444,0.02431561,-0.00373341,0.03904853
1755651220730,-0.28857002,-0.04391264,-0.11958663,-0.02508009,-0.02850689,-0.00983381,0.99893935,0.02417642,-0.00389162,0.03899395
1755651220741,-0.05850945,0.10835893,0.04705414,-0.03165824,-0.01483066,-0.00667280,0.99894476,0.02399913,-0.00397467,0.03895658
1755651220753,0.19196649,-0.00047516,0.01330461,-0.00381970,-0.00872384,0.00233305,0.99894457,0.02397774,-0.00402353,0.03896965
1755651220764,0.15728026,0.06106485,0.04345439,-0.00675540,-0.01422145,-0.00132026,0.99894542,0.02394059,-0.00410175,0.03896238
1755651220775,0.01088559,0.05549058,0.02004331,-0.01428625,-0.00593284,0.00311777,0.99894652,0.02386058,-0.00413497,0.03897984
1755651220786,-0.12171596,0.02233515,-0.12103244,-0.00666021,-0.00793193,-0.00066767,0.99894738,0.02382295,-0.00417979,0.03897607
1755651220797,-0.07890930,-0.03862839,-0.05709279,-0.00574163,-0.00643939,-0.00983474,0.99895011,0.02379109,-0.00421552,0.03892149
1755651220808,-0.02902588,-0.07982117,-0.02515576,-0.01288529,-0.00630618,-0.00585142,0.99895293,0.02371957,-0.00425052,0.03888901
1755651220819,0.07772151,-0.02630956,0.13330293,-0.02738921,-0.00558422,0.00254395,0.99895587,0.02356619,-0.00428179,0.03890326
1755651220831,0.07792699,0.07602633,0.09123160,-0.00430752,0.00583969,-0.00640189,0.99895798,0.02354207,-0.00424909,0.03886741
1755651220842,-0.00031099,0.12882826,-0.09690843,0.01598683,0.00728413,0.00594899,0.99895477,0.02363080,-0.00420867,0.03890043
1755651220853,-0.10992997,0.08804671,-0.01799632,0.02397105,0.01457191,-0.01107507,0.99895434,0.02376504,-0.00412706,0.03883841
1755651220864,-0.09032577,-0.05594393,-0.00506225,0.01910566,0.01907377,-0.01742985,0.99895600,0.02387107,-0.00402120,0.03874167
1755651220875,0.00589033,-0.06192122,0.00121574,0.00636844,0.02727813,-0.02329526,0.99896080,0.02390674,-0.00386845,0.03861122
1755651220886,0.12757565,-0.11312750,-0.05347327,-0.00986424,0.01975276,-0.00577779,0.99896376,0.02385199,-0.00375882,0.03857915
1755651220897,0.06579199,-0.00919153,-0.02515576,-0.02632977,0.01781092,-0.01073424,0.99896991,0.02370586,-0.00365997,0.03851957
1755651220909,0.07635167,-0.16529734,0.02090724,-0.02620468,0.00851233,-0.00217706,0.99897402,0.02355911,-0.00361230,0.03850738
1755651220920,0.15775464,-0.19434231,-0.16155596,-0.03418459,0.00248360,-0.00210501,0.99897902,0.02336768,-0.00359839,0.03849560
1755651220931,0.17311384,-0.10431692,-0.07747900,-0.04319075,-0.00629026,-0.00056083,0.99898455,0.02313013,-0.00363299,0.03849251
1755651220942,0.04786517,0.01524347,-0.04756497,-0.02801722,-0.02702506,0.00601575,0.99898634,0.02297043,-0.00378703,0.03852680
1755651220953,0.06467756,0.20439459,0.14190347,-0.02782301,-0.02243299,-0.00023804,0.99898942,0.02281741,-0.00391041,0.03852549
1755651220964,-0.03898077,0.18032064,0.01555084,-0.02652133,-0.04483455,0.00000611,0.99899179,0.02266889,-0.00416148,0.03852553
1755651220976,0.10643687,-0.01615560,0.01330461,-0.01705677,-0.04036320,0.00092279,0.99899278,0.02257337,-0.00438752,0.03853069
1755651220987,0.17564722,-0.28143315,-0.09834415,-0.01232349,-0.04543800,0.00443474,0.99899224,0.02250559,-0.00463743,0.03855508
1755651220998,0.01375385,-0.12985816,-0.02695479,-0.02711536,-0.04627917,-0.00931449,0.99899643,0.02235374,-0.00489659,0.03850292
1755651221009,0.05892041,-0.03136086,0.00760263,-0.01797500,-0.04237448,-0.00494358,0.99899855,0.02225308,-0.00513389,0.03847524
1755651221020,-0.04697700,0.14857190,0.05418164,-0.01828545,-0.04260357,-0.02064075,0.99900397,0.02215160,-0.00537034,0.03836068
1755651221031,0.02515576,0.03144470,0.05611670,-0.04279309,-0.05150493,0.00206224,0.99900719,0.02191410,-0.00565619,0.03837213
1755651221042,0.00580518,-0.07111341,-0.00193506,-0.05607638,-0.06212551,-0.01951057,0.99901611,0.02160287,-0.00600099,0.03826384
1755651221054,0.12641227,-0.20645655,-0.05603184,-0.07869089,-0.05845930,-0.01256948,0.99902630,0.02115827,-0.00633128,0.03819283
1755651221065,0.09407359,-0.21689674,-0.08922606,-0.07076004,-0.06192555,-0.01375077,0.99903514,0.02076909,-0.00667187,0.03811720
1755651221076,0.01485247,0.03282395,0.01403770,-0.07620367,-0.06123650,-0.02365800,0.99904672,0.02033854,-0.00701786,0.03798353
1755651221087,-0.06094579,0.15901302,0.11182242,-0.06179153,-0.06661321,-0.02907948,0.99905710,0.01999560,-0.00738756,0.03782214
1755651221098,-0.02369830,0.22294208,0.03722551,-0.05948498,-0.06100094,-0.01401122,0.99906409,0.01966248,-0.00772917,0.03774368
1755651221109,-0.01285432,0.13497034,-0.02595052,-0.03257251,-0.06479755,-0.01666858,0.99906828,0.01948170,-0.00808879,0.03765117
1755651221120,-0.15867481,0.33573268,-0.02322070,-0.03281382,-0.05636007,-0.02531398,0.99907452,0.01929959,-0.00840159,0.03751067
1755651221132,-0.06589307,0.03042584,-0.04460918,-0.02606202,-0.06196875,-0.01094128,0.99907661,0.01915625,-0.00874242,0.03745050
1755651221143,-0.00096761,0.04673028,0.00891582,-0.03068596,-0.05695343,-0.02590051,0.99908247,0.01898440,-0.00906136,0.03730545
1755651221154,0.22997966,-0.19244165,0.10453621,-0.03139184,-0.04747021,-0.02140900,0.99908782,0.01880861,-0.00932719,0.03718556
1755651221165,-0.03613576,-0.07527989,-0.06428435,-0.03096617,-0.06355707,-0.01581393,0.99909092,0.01863830,-0.00967676,0.03709859
1755651221176,-0.02332262,0.06553757,0.08556718,-0.02532248,-0.03984507,-0.02440771,0.99909649,0.01849522,-0.00990188,0.03696068
1755651221187,-0.06832278,0.15606423,0.00151380,-0.00520822,-0.04398648,-0.02027781,0.99909875,0.01846606,-0.01014821,0.03684713
1755651221198,-0.09340114,0.18739834,-0.04875657,0.00407846,-0.04978687,-0.01659243,0.99909888,0.01848869,-0.01042452,0.03675504
1755651221210,-0.01320702,0.07727169,-0.01659753,0.02501059,-0.03819831,-0.01188368,0.99909651,0.01862625,-0.01063461,0.03668968
1755651221221,-0.01252699,-0.04802015,0.03454259,0.01443171,-0.03717675,-0.01393259,0.99909562,0.01870779,-0.01084466,0.03661096
1755651221232,0.02971086,-0.11380029,-0.00517157,0.00047087,-0.03921288,-0.02078912,0.99909740,0.01871040,-0.01106229,0.03649558
1755651221243,0.01460596,-0.02198171,0.05010204,-0.02141135,-0.03151135,0.00260521,0.99909714,0.01859050,-0.01123876,0.03651017
1755651221254,-0.09594239,-0.14743536,0.01703790,-0.00467755,-0.03668214,0.00806015,0.99909361,0.01856407,-0.01144601,0.03655571
1755651221265,-0.17715977,-0.06711862,-0.10069125,0.01423791,-0.03271941,-0.01951003,0.99909399,0.01864167,-0.01162433,0.03644938
1755651221276,0.02469419,0.05967171,0.02517352,-0.00879124,-0.02125415,-0.00177718,0.99909388,0.01859288,-0.01174229,0.03643952
1755651221288,0.09078640,0.01143392,-0.19313086,0.00583086,-0.02815241,-0.00367582,0.99909216,0.01862553,-0.01189995,0.03641893
1755651221299,0.04965499,0.00539484,-0.12247885,0.00915472,-0.02701790,-0.01116735,0.99909167,0.01867634,-0.01204989,0.03635695
1755651221310,0.04521572,-0.04458072,0.06484621,-0.02098859,-0.01187574,-0.01967093,0.99909711,0.01855775,-0.01211699,0.03624581
1755651221321,0.02624296,-0.25210241,-0.12546052,-0.06122838,-0.03130010,-0.03151226,0.99910748,0.01822100,-0.01228914,0.03607249
1755651221332,0.04353894,-0.13689306,0.00263101,-0.07598685,-0.03154310,-0.01561028,0.99911619,0.01779167,-0.01246736,0.03598430
1755651221343,0.07546812,-0.17562293,0.02882366,-0.07746804,-0.02502654,-0.01414246,0.99912475,0.01736560,-0.01260501,0.03590651
1755651221354,-0.11568133,0.01648758,0.01159276,-0.07834614,-0.02953255,-0.01984322,0.99913409,0.01693078,-0.01276891,0.03579638
1755651221366,-0.01946891,0.10015271,-0.02862974,-0.05788406,-0.02479910,-0.01661620,0.99914107,0.01660663,-0.01290779,0.03570333
1755651221377,0.03318971,0.12776570,-0.04657963,-0.04051253,-0.03202992,-0.01158897,0.99914477,0.01638178,-0.01308555,0.03563901
1755651221388,-0.08018291,-0.00862716,0.16297528,-0.01789324,-0.03858013,-0.01398134,0.99914631,0.01628337,-0.01329775,0.03556212
1755651221399,-0.10047057,0.05042200,0.12063597,-0.02088139,-0.03321148,-0.01481870,0.99914869,0.01616539,-0.01348539,0.03547839
1755651221410,0.00178094,-0.05390765,0.00400711,-0.03022966,-0.03378192,-0.01667208,0.99915213,0.01599761,-0.01367288,0.03538586
1755651221421,0.09224186,0.05498639,-0.07802973,-0.04617694,-0.02752498,-0.00645740,0.99915539,0.01573902,-0.01382702,0.03534970
1755651221432,0.02090724,-0.06747337,-0.12164213,-0.04067323,-0.02433856,-0.01364160,0.99915976,0.01551125,-0.01396332,0.03527331
1755651221443,-0.01182241,0.00349218,0.07927347,-0.05923671,-0.02273780,0.00104439,0.99916280,0.01518545,-0.01408837,0.03527905
1755651221455,0.01541261,0.02888137,0.02667833,-0.03994768,-0.02234016,-0.00864983,0.99916612,0.01496174,-0.01421348,0.03523061
1755651221466,-0.02470856,0.14635069,0.04371514,-0.02831738,-0.02033324,-0.01381249,0.99916958,0.01480317,-0.01432734,0.03515326
1755651221477,-0.01023905,0.01862205,-0.08743657,-0.01619310,-0.01968501,0.00778019,0.99916783,0.01471410,-0.01443561,0.03519605
1755651221488,-0.07357276,0.08244537,0.02505413,-0.02718837,-0.00582119,-0.00208062,0.99917000,0.01456185,-0.01446821,0.03518440
1755651221499,-0.04158648,0.04803524,0.03778548,-0.01727663,-0.00378754,-0.00057432,0.99917120,0.01446596,-0.01448923,0.03518121
1755651221510,0.00000000,-0.07256470,0.00193506,-0.01188269,0.00370887,-0.00004301,0.99917246,0.01440002,-0.01446865,0.03518097
1755651221521,-0.05381774,-0.05409171,0.03285913,-0.02709735,0.00213990,-0.02017742,0.99917878,0.01424827,-0.01445666,0.03506798
1755651221533,0.03801317,-0.16488211,0.07222502,-0.01867393,0.00466251,-0.03105473,0.99918673,0.01414370,-0.01443055,0.03489407
1755651221544,0.03142743,0.02985951,0.05264396,-0.02205983,-0.01739301,-0.01600751,0.99919015,0.01402126,-0.01452709,0.03480523
1755651221555,0.00876700,0.22034366,0.05236228,-0.03587048,-0.01404592,-0.02047136,0.99919579,0.01382039,-0.01460574,0.03469059
1755651221566,0.01710592,0.07127469,-0.02660922,-0.01193046,-0.02163623,-0.01250181,0.99919736,0.01375358,-0.01472691,0.03462058
1755651221577,-0.02335626,0.08086751,0.03440922,-0.00893652,-0.02518468,-0.00557460,0.99919704,0.01370309,-0.01486920,0.03458909
1755651221588,0.18179476,-0.07265930,0.04603028,-0.00429845,-0.02208651,-0.00502474,0.99919651,0.01367966,-0.01498957,0.03456170
1755651221600,0.00685259,-0.03576308,0.03697915,0.00254793,-0.02526314,-0.00773794,0.99919569,0.01369380,-0.01512978,0.03451876
1755651221610,0.01161035,-0.01741553,-0.02128565,0.00605612,-0.02790142,-0.00660482,0.99919414,0.01372741,-0.01528463,0.03448210
1755651221621,-0.09546757,0.11319666,-0.22161363,-0.00189574,-0.01709514,-0.01313858,0.99919523,0.01371784,-0.01537096,0.03441575
1755651221632,-0.14737680,-0.01059294,0.00569394,-0.00630885,-0.02039405,-0.01479654,0.99919682,0.01368220,-0.01548619,0.03433215
1755651221643,-0.03618215,-0.07484038,-0.05651390,-0.00366977,-0.01613779,-0.01562755,0.99919866,0.01366201,-0.01557495,0.03424620
1755651221654,-0.11975331,0.01497129,0.03260753,-0.00316714,-0.00955767,-0.01851803,0.99920164,0.01364412,-0.01562895,0.03414157
1755651221665,-0.16456561,0.03492096,-0.04644141,0.00232939,-0.01717737,-0.00519776,0.99920096,0.01365705,-0.01572428,0.03411272
1755651221677,-0.03746523,0.09444217,-0.02049629,0.00063600,-0.00602305,-0.00605881,0.99920154,0.01366061,-0.01575801,0.03407879
1755651221688,0.07650393,-0.05707559,-0.06639670,-0.01075147,-0.00565978,0.00266884,0.99920135,0.01360094,-0.01578942,0.03409361
1755651221699,0.12184761,-0.10166382,-0.05393760,-0.01935013,0.00191262,0.00374574,0.99920227,0.01349258,-0.01577871,0.03411458
1755651221710,-0.00570197,-0.11356433,-0.00380132,-0.02549313,-0.00102545,0.00736077,0.99920269,0.01334981,-0.01578446,0.03415580
1755651221721,0.06470352,-0.11517918,-0.04042890,-0.03380160,-0.00504732,0.01495229,0.99920190,0.01316222,-0.01581247,0.03423879
1755651221733,0.06445932,0.04082956,0.05631780,-0.02469492,-0.00541845,0.00932237,0.99920143,0.01302269,-0.01584308,0.03429146
1755651221744,0.00420236,-0.01939886,-0.02254628,-0.02414760,0.00195522,0.00507563,0.99920237,0.01288988,-0.01583233,0.03431937
1755651221755,-0.15686289,0.05264239,-0.05240491,-0.02801006,-0.01014063,-0.00183286,0.99920382,0.01273442,-0.01588861,0.03430920
1755651221766,0.02751830,0.01032556,0.06510186,-0.03627120,0.00407246,-0.00815278,0.99920839,0.01252768,-0.01586540,0.03426273
1755651221777,0.00760506,0.01154586,0.00511613,-0.04625503,0.00409642,-0.00877939,0.99921356,0.01227327,-0.01584287,0.03421444
1755651221788,0.12164213,-0.18538330,-0.03106712,-0.03394378,0.00155141,0.00796794,0.99921449,0.01208319,-0.01583418,0.03425907
1755651221799,0.02413980,-0.03645144,0.00368432,-0.02678316,0.01286210,-0.00553906,0.99921853,0.01193186,-0.01576151,0.03422777
1755651221810,0.11144103,-0.06492734,-0.05688009,-0.02511377,0.00967241,0.00233301,0.99922057,0.01179374,-0.01570831,0.03424060
1755651221822,-0.14140898,0.25164716,0.06735242,-0.02918472,0.00941820,-0.00595418,0.99922445,0.01163030,-0.01565557,0.03420726
1755651221833,-0.02543217,0.05958855,0.00307440,-0.01286022,0.00118491,-0.01043981,0.99922747,0.01155636,-0.01564875,0.03414723
1755651221844,0.08051799,0.04320510,-0.02904336,-0.02314270,-0.00412676,-0.01194170,0.99923076,0.01143139,-0.01567104,0.03408274
1755651221855,0.09127027,0.11582132,0.15684726,-0.01231819,-0.00305454,-0.00646962,0.99923250,0.01136302,-0.01568799,0.03404684
1755651221866,0.03289600,0.09433411,0.00967529,-0.00697884,-0.00784364,-0.00465145,0.99923313,0.01132429,-0.01573152,0.03402102
1755651221877,0.01357858,0.07185687,0.00806496,-0.00106257,-0.01785774,-0.00301026,0.99923219,0.01131834,-0.01583153,0.03400416
1755651221889,0.06272172,-0.10881269,-0.14825135,0.00463815,-0.02217877,0.00089338,0.99922975,0.01134431,-0.01595573,0.03400917
1755651221900,0.02280790,-0.02803471,0.00190066,-0.01646754,-0.02264564,0.00267992,0.99922825,0.01125209,-0.01608254,0.03402417
1755651221911,0.02964786,-0.04520608,-0.05203926,-0.02254030,-0.03831427,0.01157288,0.99922402,0.01112699,-0.01629519,0.03408840
1755651221922,0.03713989,-0.08111616,-0.03015369,0.02287357,-0.02412276,-0.01035661,0.99922235,0.01125509,-0.01643028,0.03403041
1755651221934,-0.05629632,0.03059468,0.02683282,0.01492765,-0.01829311,-0.00606678,0.99922078,0.01134390,-0.01653912,0.03399431
1755651221944,0.09984245,0.21766209,-0.20752040,0.00284063,-0.02418444,0.00534967,0.99921757,0.01135868,-0.01666488,0.03402213
1755651221956,-0.08421378,0.17354472,-0.03728214,0.03122895,-0.01863491,-0.01563995,0.99921680,0.01153356,-0.01676923,0.03393454
1755651221967,-0.05079996,0.04841771,-0.07270704,0.04136853,-0.00934130,0.00078048,0.99921297,0.01177143,-0.01682295,0.03393903
1755651221978,-0.00142076,-0.03812992,-0.10856834,0.00012554,-0.01655983,-0.02413103,0.99921582,0.01177209,-0.01691071,0.03381114
1755651221989,0.07470430,-0.19222134,0.32189258,-0.01961230,-0.01716408,-0.00920366,0.99921723,0.01166128,-0.01700769,0.03375914
1755651222000,0.03481393,-0.12532502,0.01729566,-0.00388319,-0.01240656,-0.01383257,0.99921890,0.01163973,-0.01707655,0.03368237
1755651222011,-0.00695196,0.01751688,0.06737919,-0.02409298,-0.00513857,-0.00159523,0.99922027,0.01150481,-0.01710532,0.03367343
1755651222022,-0.14531711,-0.01185759,-0.27244319,-0.00810288,0.00414900,-0.00485990,0.99922207,0.01146024,-0.01708250,0.03364670
1755651222034,-0.06020671,0.08577372,-0.01914607,0.00150808,0.00030490,0.00954783,0.99922017,0.01146884,-0.01708077,0.03370113
1755651222044,0.07971815,0.02826713,-0.11425192,0.00898629,-0.00060717,0.01377753,0.99921704,0.01151737,-0.01708404,0.03377552
1755651222056,-0.12619427,0.11242971,0.17364017,0.00596018,-0.00829469,0.00225472,0.99921538,0.01155194,-0.01713215,0.03378860
1755651222067,0.04795372,0.00105526,0.01186734,-0.00468916,-0.00375653,0.00316985,0.99921474,0.01152638,-0.01715263,0.03380588
1755651222078,-0.02071543,-0.11442748,0.02908530,-0.01141699,-0.00838227,0.00911572,0.99921294,0.01146244,-0.01719957,0.03385693
1755651222089,0.07412567,-0.13542190,-0.15775464,-0.02267479,-0.01020019,-0.00058364,0.99921351,0.01133547,-0.01725669,0.03385366
1755651222100,0.05131777,-0.10453621,-0.08362897,-0.01605807,-0.01020012,0.00666988,0.99921227,0.01124554,-0.01731381,0.03389101
1755651222112,-0.00344820,0.09698949,-0.01023905,-0.01754625,-0.00533916,0.00177150,0.99921252,0.01114904,-0.01734317,0.03390075
1755651222123,-0.10330527,0.08019059,0.28275701,-0.00658005,-0.00695051,-0.00225817,0.99921268,0.01111186,-0.01738244,0.03388799
1755651222134,0.04310012,-0.04915136,-0.01649774,0.01969048,0.00033580,-0.00895337,0.99921317,0.01121917,-0.01738061,0.03383920
1755651222145,-0.05407286,0.08264376,0.08104826,0.00014378,-0.00231456,-0.01023745,0.99921487,0.01121998,-0.01739358,0.03378187
1755651222156,0.11658125,-0.01396208,-0.28287583,-0.00169137,0.00269372,0.00167478,0.99921492,0.01121042,-0.01737836,0.03379133
1755651222168,0.00782129,-0.00967149,-0.01300185,0.00120854,0.01029115,0.00608547,0.99921470,0.01121719,-0.01732073,0.03382541
1755651222179,-0.03453734,0.06795166,-0.03464101,-0.00688368,0.00675746,-0.00968359,0.99921759,0.01117898,-0.01728322,0.03377167
1755651222190,-0.00774023,-0.32799245,0.22059669,-0.00228197,0.00378131,-0.01666441,0.99922122,0.01116632,-0.01726224,0.03367918
1755651222201,0.03999944,-0.03640788,0.13311457,-0.00500065,0.00982828,-0.01351582,0.99922503,0.01113832,-0.01720720,0.03360349
1755651222212,-0.03842474,0.03963847,-0.00272981,-0.01291285,0.00308941,-0.00556197,0.99922716,0.01106665,-0.01719005,0.03357262
1755651222223,0.02287639,0.28667835,-0.13794327,-0.00201469,0.01141542,-0.00501662,0.99922932,0.01105537,-0.01712613,0.03354453
1755651222234,-0.03856295,0.09871823,-0.02722904,0.00638912,0.00470716,-0.00108176,0.99922958,0.01109083,-0.01710000,0.03353852
1755651222246,0.08069190,0.11305613,0.06422382,0.01024075,0.00063389,-0.00227723,0.99922943,0.01114869,-0.01709642,0.03352566
1755651222257,-0.06734239,0.01730640,0.27254314,0.01941360,-0.00716117,-0.00083824,0.99922771,0.01125546,-0.01713581,0.03352105
1755651222268,-0.06258349,-0.01365018,0.04993548,0.02138643,-0.01777387,-0.00634515,0.99922583,0.01137523,-0.01723534,0.03348551
1755651222279,0.00248400,-0.04252807,0.04182788,0.01667098,-0.01317431,-0.00057501,0.99922358,0.01146942,-0.01730977,0.03348227
1755651222290,0.08682476,-0.06210359,-0.35010799,0.01506341,-0.00865047,0.00043334,0.99922169,0.01155377,-0.01735822,0.03348469
1755651222301,-0.02111287,-0.01251309,-0.03453734,0.01429522,-0.00783621,0.00733716,0.99921864,0.01163311,-0.01740171,0.03352541
1755651222312,-0.02709082,-0.01161035,-0.05998682,0.02264812,0.00728945,0.00587060,0.99921678,0.01175881,-0.01736125,0.03355799
1755651222324,-0.16641505,0.03144470,0.36379103,0.02019337,0.00215303,-0.00134261,0.99921592,0.01187088,-0.01734930,0.03355054
1755651222335,-0.00587321,-0.00868139,0.02773934,0.01419833,0.01323279,-0.00872988,0.99921789,0.01195039,-0.01727520,0.03350166
1755651222346,-0.02660922,-0.06129623,-0.00190066,0.00971760,0.00858824,-0.01101245,0.99922014,0.01200481,-0.01722710,0.03343999
1755651222357,0.07659936,-0.06605243,-0.38215233,-0.00220102,0.00747411,-0.00121479,0.99922121,0.01199270,-0.01718600,0.03343331
1755651222368,-0.02581440,-0.02398285,0.02560705,-0.01278113,0.00522313,-0.00974777,0.99922440,0.01192113,-0.01715675,0.03337872
1755651222379,-0.03421185,-0.08552962,-0.01900658,-0.02169563,0.00628472,-0.00077491,0.99922659,0.01179963,-0.01712155,0.03337438
1755651222391,-0.01495401,-0.10114378,0.27672418,-0.01449937,0.01037687,0.00326352,0.99922794,0.01171771,-0.01706292,0.03339282
1755651222402,-0.06603174,0.07717117,0.06426792,-0.01971581,0.01078911,0.00175620,0.99922991,0.01160829,-0.01700304,0.03340256
1755651222413,-0.07773786,0.10304334,-0.04452752,-0.01029437,0.00956774,0.00796003,0.99922999,0.01155219,-0.01695090,0.03344595
1755651222424,0.06685435,0.15098463,-0.24443512,0.00132058,0.01792350,-0.00228146,0.99923203,0.01155958,-0.01685053,0.03343317
1755651222435,-0.04336605,-0.06341205,-0.14696080,0.01422365,0.01794503,0.00783343,0.99923134,0.01163852,-0.01675093,0.03347665
1755651222446,0.00686634,-0.03788902,0.05061573,0.00399039,0.02325635,0.01168764,0.99923106,0.01166087,-0.01662070,0.03354210
1755651222457,-0.25848583,0.10692495,0.04761627,-0.01237527,0.01921534,0.00916779,0.99923191,0.01159219,-0.01651405,0.03359298
1755651222469,-0.08669711,-0.11111327,-0.01243096,-0.02020493,0.01754448,0.00547055,0.99923383,0.01147803,-0.01641493,0.03362389
1755651222480,0.04762299,-0.10941644,-0.02991635,-0.03086402,0.00929911,0.00671764,0.99923537,0.01130673,-0.01636332,0.03366117
1755651222491,0.24323290,-0.20996281,-0.05251639,-0.04185924,0.00835987,0.01336997,0.99923624,0.01107232,-0.01631650,0.03373604
1755651222502,0.11544761,-0.06951864,0.00861898,-0.05680599,-0.00389065,0.01404308,0.99923670,0.01075137,-0.01633848,0.03381538
1755651222513,0.03786133,-0.11967963,-0.12702725,-0.04298889,-0.00481809,0.01018508,0.99923688,0.01051708,-0.01636474,0.03387089
1755651222524,0.14168535,-0.15085913,0.24442099,-0.05825775,-0.00703732,0.01417263,0.99923692,0.01019375,-0.01640380,0.03394955
1755651222535,-0.02005109,-0.13428750,0.00953754,-0.07076990,-0.01462206,0.00115410,0.99923932,0.00979744,-0.01648568,0.03395601
1755651222547,0.02216679,-0.14653750,-0.02897405,-0.08994611,-0.02375430,0.00461004,0.99924104,0.00929824,-0.01661752,0.03398160
1755651222558,-0.05428006,0.02976414,-0.24307879,-0.12961772,-0.01771031,0.01233379,0.99924352,0.00857238,-0.01671670,0.03405067
1755651222569,0.02744069,-0.06858088,-0.10596174,-0.12005554,-0.02193507,0.00805724,0.99924548,0.00789406,-0.01684063,0.03409619
1755651222580,0.02489890,-0.13340346,-0.16352102,-0.10600728,-0.02759027,0.00667592,0.99924610,0.00730572,-0.01699376,0.03413324
1755651222591,0.24223976,-0.11933052,-0.06554703,-0.12967769,-0.03180780,0.00575718,0.99924699,0.00657953,-0.01717188,0.03416548
1755651222602,-0.03350070,0.12572698,0.11644907,-0.12447343,-0.02569281,-0.00210284,0.99924924,0.00588870,-0.01731447,0.03415381
1755651222613,-0.00289347,-0.20283597,-0.00646150,-0.13564846,-0.03151505,0.00634404,0.99924915,0.00514263,-0.01748781,0.03418871
1755651222624,0.04543870,-0.22712311,-0.24515434,-0.14669248,-0.03449410,-0.00980068,0.99925150,0.00432849,-0.01767925,0.03413431
1755651222636,-0.18010498,0.17616224,0.08017968,-0.17968401,-0.03987281,-0.03939432,0.99925913,0.00328632,-0.01791051,0.03390582
1755651222648,0.10998109,-0.13615133,0.00184678,-0.18769909,-0.04919288,-0.02048156,0.99926100,0.00218828,-0.01819829,0.03378601
1755651222658,0.24933238,-0.27100813,0.22777909,-0.20296560,-0.04811067,-0.00904247,0.99925975,0.00113286,-0.01844846,0.03373899
1755651222669,-0.10326515,0.03675681,-0.15982840,-0.16711353,-0.05107581,-0.01860613,0.99925858,0.00020538,-0.01873194,0.03363572
1755651222680,0.06462238,0.07176269,0.03953712,-0.15976702,-0.04972966,-0.00634365,0.99925430,-0.00068931,-0.01901042,0.03360020
1755651222692,0.07411987,0.05446460,-0.14822307,-0.16602188,-0.06043031,0.00219929,0.99924624,-0.00162734,-0.01935185,0.03361262
1755651222703,0.03369457,-0.17744290,-0.10701854,-0.15353804,-0.05454457,-0.00622248,0.99923949,-0.00251018,-0.01966548,0.03357684
1755651222714,0.03065147,-0.03767968,-0.00723976,-0.19493395,-0.08072789,-0.01276580,0.99923022,-0.00353358,-0.02008931,0.03350982
1755651222725,0.29872404,0.34401446,0.21585221,-0.17020879,-0.06545345,-0.01629384,0.99922232,-0.00445271,-0.02044275,0.03342184
1755651222736,-0.15109074,0.16437105,-0.02438352,-0.13200894,-0.07946113,-0.00513954,0.99920997,-0.00522496,-0.02090760,0.03339177
1755651222747,0.13506487,0.24811683,-0.14119703,-0.11597738,-0.07171304,0.00455976,0.99919750,-0.00585124,-0.02129485,0.03341639
1755651222758,-0.16163115,0.05627796,0.01730802,-0.07835006,-0.05989251,0.01379135,0.99918515,-0.00628608,-0.02162726,0.03349294
1755651222769,-0.02478091,0.10850522,0.05208250,-0.07969461,-0.04927030,-0.00165953,0.99917670,-0.00672441,-0.02189824,0.03348381
1755651222780,-0.06199602,-0.19650215,-0.00255725,-0.06323381,-0.04620330,-0.00728536,0.99916992,-0.00707851,-0.02215698,0.03344301
1755651222791,-0.28319809,0.04656613,0.37633035,-0.09935961,-0.05055600,-0.00225557,0.99915993,-0.00763493,-0.02244009,0.03343038
1755651222803,-0.00950329,0.08125314,0.09123160,-0.12696125,-0.04209220,-0.00488600,0.99914983,-0.00834591,-0.02267581,0.03340302
1755651222814,0.10149387,0.01681284,-0.09495879,-0.09384849,-0.03714647,-0.00086432,0.99914064,-0.00887616,-0.02288569,0.03339813
1755651222826,0.31913661,0.06527898,-0.07197659,-0.06886879,-0.02941973,0.00188606,0.99913259,-0.00928248,-0.02305926,0.03340926
1755651222840,-0.33630957,0.26455617,0.10690076,-0.03673099,-0.03152634,-0.02420891,0.99913070,-0.00953960,-0.02327995,0.03323980
1755651222847,1.63000457,-0.47379610,-1.90491579,-0.09923765,-0.04974740,-0.02354538,0.99912599,-0.00988693,-0.02345407,0.03315739
1755651222857,-0.66897774,0.39002183,1.09132427,-0.03957580,-0.03464117,-0.01454810,0.99912219,-0.01009272,-0.02363420,0.03308174
1755651222870,-0.12784496,-0.03259160,0.22475089,-0.03938094,-0.02313847,-0.01457306,0.99911947,-0.01032113,-0.02376840,0.03299722
1755651222892,-0.24281387,0.11107364,0.30179969,-0.02812090,-0.01369655,-0.00526973,0.99911434,-0.01064312,-0.02392523,0.03293688
1755651222905,1.15994202,-0.54225958,-1.20568594,-0.08747193,-0.04601980,-0.01416527,0.99910387,-0.01121606,-0.02422666,0.03284410
1755651222914,-0.60394654,0.50616836,0.76713059,-0.05026416,-0.03574998,-0.02394369,0.99910086,-0.01144727,-0.02439111,0.03273395
1755651222922,0.31148950,-0.13406536,-0.50797223,-0.05006887,-0.05727056,-0.01469655,0.99909470,-0.01165256,-0.02462592,0.03267370
1755651222934,-0.52137117,0.32085670,0.85552839,-0.03258689,-0.02208786,-0.00848213,0.99909098,-0.01183830,-0.02475182,0.03262535
1755651222945,0.00926791,-0.31463799,-0.24274802,-0.01637851,-0.03388267,-0.00383942,0.99908592,-0.01192920,-0.02493987,0.03260404
1755651222956,-0.01302554,0.27085250,0.16666847,-0.02928802,-0.02737172,-0.00261000,0.99908044,-0.01209761,-0.02509725,0.03258903
1755651222968,0.05879141,-0.06886600,-0.08144096,-0.03463624,-0.02963473,-0.00374895,0.99907452,-0.01229330,-0.02526469,0.03256785
1755651222991,-0.28353549,0.07789298,0.28500744,-0.01868256,-0.00839844,-0.00144059,0.99906987,-0.01251189,-0.02536295,0.03255100
1755651222998,4.16459521,-1.40512091,-2.70501161,-0.06974689,-0.07075423,-0.04735820,0.99906556,-0.01277344,-0.02562828,0.03237340
1755651223010,-1.96224335,0.84878931,1.47777570,-0.00042681,-0.02071568,-0.01371175,0.99906503,-0.01277585,-0.02574532,0.03229593
1755651223021,-0.19361846,0.18510726,0.02367061,-0.01545128,-0.01945482,-0.01874828,0.99906448,-0.01286392,-0.02585622,0.03218907
1755651223033,-0.08403518,-0.00898626,0.02846506,-0.01825965,-0.02157959,-0.02396481,0.99906434,-0.01296892,-0.02598030,0.03205127
1755651223044,0.01912045,-0.07165546,0.06494173,-0.02138452,-0.01913464,-0.00742151,0.99906121,-0.01309295,-0.02609128,0.03200823
1755651223056,-0.33657722,0.13447470,0.17786980,-0.03790435,-0.01619078,-0.01468320,0.99905859,-0.01331090,-0.02618438,0.03192380
1755651223067,-0.02810855,-0.04587979,-0.00821561,-0.02795261,-0.01749454,-0.00083714,0.99905399,-0.01347023,-0.02628410,0.03191903
1755651223079,-0.01018753,-0.04337069,0.02330683,-0.03806997,-0.01012648,-0.00313127,0.99905012,-0.01368532,-0.02634131,0.03190133
1755651223090,0.24010763,-0.22006076,-0.32385443,-0.03655136,-0.01863769,-0.00451788,0.99904518,-0.01389732,-0.02644941,0.03187513
1755651223101,0.03545711,-0.14020632,-0.09870315,-0.03011798,-0.02688960,-0.01052688,0.99904070,-0.01406598,-0.02659999,0.03181618
1755651223112,0.05701975,0.01092879,0.07032436,-0.05415617,-0.02689811,-0.00515239,0.99903328,-0.01436926,-0.02675062,0.03178733
1755651223124,-0.03379239,0.12064067,-0.04086095,-0.04047675,-0.02814243,-0.00544656,0.99902667,-0.01459795,-0.02690962,0.03175655
1755651223135,-0.03432959,0.05694406,-0.06331042,-0.04458668,-0.02860245,-0.00858256,0.99902019,-0.01484763,-0.02706980,0.03170849
1755651223146,0.00788545,-0.05223900,-0.03807687,-0.04853799,-0.02015464,-0.01142030,0.99901503,-0.01512187,-0.02718367,0.03164397
1755651223158,-0.02987468,-0.23432948,-0.05414785,-0.07003042,-0.03021725,0.00978412,0.99900255,-0.01551755,-0.02735440,0.03169925
1755651223169,-0.00306841,-0.14239707,-0.00358793,-0.07879595,-0.01587303,-0.00305797,0.99899355,-0.01596668,-0.02744488,0.03168182
1755651223180,0.03277089,-0.23594694,-0.08521122,-0.11734326,-0.01531152,-0.00085548,0.99898086,-0.01661207,-0.02752909,0.03167711
1755651223191,-0.35761643,-0.16902737,-0.03975666,-0.13261657,-0.03263960,-0.01531405,0.99896603,-0.01734809,-0.02771024,0.03159212
1755651223202,0.16377243,-0.49876914,-0.35237314,-0.17330094,-0.03504790,-0.03554698,0.99894936,-0.01832724,-0.02790826,0.03139128
1755651223214,-0.08948232,0.14958013,-0.00248936,-0.19727651,-0.04249972,-0.04517231,0.99892972,-0.01943199,-0.02814626,0.03113831
1755651223225,0.41313503,-0.55797071,-0.16897209,-0.25487014,-0.04814602,-0.01274404,0.99889584,-0.02084652,-0.02841347,0.03106758
1755651223236,0.08057415,-0.40724430,-0.16950850,-0.29843444,-0.05562006,-0.01717045,0.99885325,-0.02253268,-0.02872772,0.03097057
1755651223247,-0.01493734,-0.87710179,-0.25953624,-0.36065410,-0.06536513,-0.02697493,0.99879923,-0.02457037,-0.02909703,0.03081816
1755651223258,0.23504969,-0.70207097,-0.11858656,-0.52366504,-0.06969247,-0.01942350,0.99871548,-0.02747671,-0.02948383,0.03071036
1755651223270,0.02677955,-0.97446783,-0.16918890,-0.65889583,-0.07795724,0.01664521,0.99859012,-0.03119947,-0.02992429,0.03080441
1755651223281,0.17011392,-1.51968035,-0.12576169,-0.81218611,-0.07092008,0.03815096,0.99842067,-0.03570711,-0.03031789,0.03101614
1755651223292,-0.05418164,-1.43194342,0.30767433,-0.98748208,-0.05506229,0.00339621,0.99819968,-0.04118763,-0.03062349,0.03103499
1755651223303,-0.08895106,-1.23467933,0.36681154,-1.13865815,-0.07288666,-0.02864058,0.99790297,-0.04767798,-0.03103894,0.03087174
1755651223314,0.49235088,-1.77359853,-0.06917908,-1.35100558,-0.09929811,-0.05790128,0.99751667,-0.05504096,-0.03158012,0.03055618
1755651223325,0.10325047,0.21546612,0.40911401,-1.41373127,-0.16013464,-0.07281214,0.99703652,-0.06288717,-0.03246886,0.03015207
1755651223337,0.22106587,0.06132215,-0.56087348,-1.35385471,-0.20575328,-0.06602874,0.99649724,-0.07053645,-0.03363137,0.02977901
1755651223348,0.36707892,-0.61875642,-0.16240793,-1.37213101,-0.23008930,-0.05343818,0.99589382,-0.07815178,-0.03490837,0.02948243
1755651223359,0.15286293,-0.47921514,0.09202517,-1.38821854,-0.25415704,-0.03749858,0.99519565,-0.08606462,-0.03635706,0.02926869
1755651223370,0.40224204,-1.83567488,-0.00682989,-1.50042348,-0.26955226,-0.05282271,0.99440824,-0.09424193,-0.03782612,0.02898080
1755651223381,-0.00842795,-0.25341227,0.42991096,-1.49662749,-0.28769449,-0.07101401,0.99351896,-0.10269788,-0.03945159,0.02857957
1755651223392,0.17122745,-0.12382032,-0.31603070,-1.53980097,-0.30524967,-0.06532459,0.99253083,-0.11132076,-0.04116099,0.02821376
1755651223403,0.24981876,-0.29251665,-0.33795904,-1.57935325,-0.30772641,-0.04905440,0.99145397,-0.12000721,-0.04285349,0.02794396
1755651223415,-0.04578859,0.31580302,-0.62410708,-1.52828574,-0.29956990,-0.05349049,0.99031493,-0.12856561,-0.04453108,0.02764441
1755651223426,-0.02935415,-0.87240911,0.00919153,-1.43904229,-0.28605899,-0.06821826,0.98918305,-0.13655229,-0.04611871,0.02726580
1755651223437,0.02148943,-0.16838805,-0.42915495,-1.43749940,-0.29126061,-0.08768629,0.98797432,-0.14460229,-0.04774977,0.02677476
1755651223448,0.24138361,0.29650270,0.16535727,-1.50482930,-0.28723793,-0.08584897,0.98663793,-0.15302933,-0.04935830,0.02629400
1755651223459,0.11974147,-0.22427768,-0.19386715,-1.39206511,-0.29322423,-0.08800830,0.98532665,-0.16082490,-0.05100035,0.02580115
1755651223471,0.21380671,0.87976060,-0.45155976,-1.39424605,-0.29753572,-0.09448489,0.98395905,-0.16856296,-0.05265168,0.02527676
1755651223482,0.19864448,0.19293822,-0.35074851,-1.28885793,-0.26601433,-0.10226354,0.98262893,-0.17578057,-0.05414136,0.02470409
1755651223493,0.01822756,-0.64989896,-1.02772348,-1.22983860,-0.26898168,-0.07261213,0.98130998,-0.18260617,-0.05563421,0.02430109
1755651223504,0.15299443,0.24353255,-0.13895353,-1.19960883,-0.24673359,-0.06375817,0.97996546,-0.18932398,-0.05701591,0.02394404
1755651223515,0.25585968,0.24432708,0.29307500,-1.18311383,-0.22443492,-0.09550611,0.97861350,-0.19589026,-0.05826153,0.02341399
1755651223526,-0.02128564,1.57997540,-0.27864845,-1.14283066,-0.22509217,-0.08684085,0.97725862,-0.20223297,-0.05951079,0.02293202
1755651223537,-0.14885066,1.21165683,-0.47805837,-0.99511789,-0.22200992,-0.11486504,0.97602714,-0.20780563,-0.06075405,0.02228877
1755651223549,-0.08362897,1.18125914,-0.57780013,-0.84840503,-0.21254360,-0.13343597,0.97494539,-0.21255670,-0.06194429,0.02154153
1755651223560,0.29649591,0.54955234,-0.49815667,-0.72671705,-0.16045447,-0.12121764,0.97401492,-0.21658998,-0.06283481,0.02086878
1755651223571,0.16060987,0.62986160,-0.35605080,-0.65250902,-0.15198843,-0.11394031,0.97316108,-0.22021141,-0.06367835,0.02023641
1755651223582,-0.05198557,0.18391010,-0.25199990,-0.59643257,-0.14762536,-0.10660182,0.97235701,-0.22355143,-0.06450505,0.01963944
1755651223593,0.00380132,0.11403950,-0.30030401,-0.58790776,-0.14994110,-0.08673490,0.97154780,-0.22684371,-0.06534472,0.01915372
1755651223604,0.26534492,0.14055955,0.38699446,-0.56858298,-0.11979872,-0.08079514,0.97076936,-0.22999935,-0.06600960,0.01870531
1755651223616,-0.20673410,0.61040387,0.74017199,-0.57335007,-0.11164078,-0.05175467,0.96995861,-0.23323877,-0.06664037,0.01841289
1755651223627,0.14660210,1.23673795,0.27400773,-0.60344489,-0.10463081,-0.09817434,0.96911724,-0.23658789,-0.06722107,0.01786803
1755651223638,0.17415528,0.72177689,-0.33283009,-0.54591055,-0.10909368,-0.10015065,0.96834044,-0.23961770,-0.06782654,0.01731219
1755651223649,0.14797720,0.86896447,-0.54157941,-0.42616589,-0.10732151,-0.06889639,0.96770563,-0.24202553,-0.06843291,0.01692293
1755651223660,0.34625011,0.53992488,-0.80908521,-0.34535703,-0.09684202,-0.06388379,0.96719684,-0.24392500,-0.06896554,0.01657157
1755651223671,-0.13750399,0.52110867,-0.23654557,-0.28428465,-0.10417501,-0.04673146,0.96675661,-0.24551699,-0.06954892,0.01630987
1755651223682,0.50026450,-0.22425084,0.03602319,-0.23878193,-0.07370062,-0.03625875,0.96639294,-0.24684223,-0.06995796,0.01610863
1755651223693,-0.05998682,0.17173646,-0.44506349,-0.25102950,-0.08284508,-0.02707548,0.96600509,-0.24823545,-0.07041775,0.01595836
1755651223705,0.31821472,-0.03063313,0.37497763,-0.24410078,-0.06237019,-0.03547986,0.96563052,-0.24960241,-0.07076702,0.01575968
1755651223716,0.10442800,0.49204857,-0.14838978,-0.25449051,-0.07728157,-0.05521080,0.96523064,-0.25104028,-0.07120366,0.01544774
1755651223727,0.47821469,0.50672013,-0.41317401,-0.25535654,-0.09591858,-0.08767374,0.96483279,-0.25244474,-0.07173122,0.01496553
1755651223738,0.19663174,0.40334561,-0.06600468,-0.22324996,-0.10012206,-0.09603725,0.96447115,-0.25369494,-0.07229190,0.01442772
1755651223749,0.22427768,0.20432077,-0.38013166,-0.18999052,-0.10307236,-0.07540913,0.96415344,-0.25475889,-0.07286911,0.01400543
1755651223760,0.26848939,-0.38895111,-0.42422706,-0.14946445,-0.10328710,-0.05517796,0.96389476,-0.25558842,-0.07344235,0.01369919
1755651223772,0.16447999,0.07836988,-0.26123292,-0.13051602,-0.10204141,-0.05206863,0.96366314,-0.25631278,-0.07400868,0.01341021
1755651223783,-0.08501498,0.08709662,-0.05256665,-0.10722903,-0.09525401,-0.04449090,0.96346377,-0.25691862,-0.07454686,0.01315884
1755651223794,0.26457218,0.26351475,-0.31414736,-0.09861320,-0.06731200,-0.03241476,0.96329111,-0.25746593,-0.07492045,0.01297894
1755651223805,-0.24251373,0.37073967,-0.21451754,-0.06529834,-0.05107218,-0.04002812,0.96317401,-0.25783160,-0.07520645,0.01275478
1755651223816,-0.03259207,0.48185417,-0.26860534,-0.03981682,-0.02198836,-0.02543811,0.96310594,-0.25805656,-0.07533068,0.01261105
1755651223827,0.28748681,0.07664949,-0.30590047,0.01044297,0.00457872,-0.02407001,0.96312503,-0.25799913,-0.07530550,0.01247867
1755651223839,-0.27612008,0.07429204,0.09799233,0.02464980,0.02968394,-0.02780820,0.96317744,-0.25785986,-0.07513779,0.01232155
1755651223850,0.07283013,-0.01723144,-0.76381732,0.01008719,0.04231037,-0.02237053,0.96321230,-0.25780387,-0.07490296,0.01219740
1755651223861,-0.08487895,0.06777302,-0.38218643,0.00637269,0.05855039,-0.03565086,0.96324980,-0.25776818,-0.07457508,0.01199775
1755651223872,0.13697809,0.18929928,-0.72989301,-0.02122221,0.07904699,-0.03044695,0.96325419,-0.25788491,-0.07414032,0.01183029
1755651223883,-0.06800901,0.20989315,-0.17454955,0.02301461,0.10278172,-0.01418490,0.96333378,-0.25775603,-0.07356475,0.01175086
