UnixTime(ms),Ax,Ay,Az,Gx,Gy,Gz,QuatW,QuatX,QuatY,QuatZ
1755650277483,0.00000000,0.00000000,0.00000000,0.00000000,0.00000000,0.00000000,0.99764326,0.05575419,-0.01104215,0.03843778
1755650277496,0.42052460,-0.08558754,0.00673918,-0.01312965,-0.02810833,-0.01230398,0.99764920,0.05566688,-0.01122907,0.03835596
1755650277499,11.27211822,-3.12688166,-0.88352358,-0.08378864,-0.19888084,-0.03045629,0.99765403,0.05555376,-0.01149756,0.03831485
1755650277510,-2.36300382,0.58226226,0.13222310,-0.03383736,-0.05497345,0.00238627,0.99766051,0.05536258,-0.01180816,0.03832833
1755650277521,0.00739775,-0.13790718,-0.00904169,-0.04519962,-0.05517470,-0.00296305,0.99767136,0.05511172,-0.01211438,0.03831188
1755650277532,-0.05527775,-0.10029521,0.05442568,-0.04737857,-0.05235433,-0.02661688,0.99768779,0.05485114,-0.01240233,0.03816549
1755650277544,-0.14707640,-0.22051956,0.03089434,-0.04675030,-0.05722063,0.01154627,0.99769564,0.05458934,-0.01272276,0.03823015
1755650277554,-0.10635624,0.00210975,0.03823521,-0.05220575,-0.06126708,0.01783647,0.99770312,0.05430482,-0.01305667,0.03832736
1755650277566,0.00847449,0.13384384,-0.02580710,-0.03242956,-0.05289907,0.01642770,0.99770553,0.05412321,-0.01335290,0.03841935
1755650277577,0.18345845,0.39058811,-0.13961702,-0.01907304,-0.05800085,0.02406841,0.99770179,0.05401831,-0.01367191,0.03855173
1755650277588,0.04409527,0.13051475,-0.07574987,-0.00481103,-0.05452742,0.01737395,0.99769525,0.05399137,-0.01397726,0.03864902
1755650277599,0.03794097,0.03512909,0.01368363,-0.01406097,-0.05403649,-0.01760066,0.99769901,0.05391333,-0.01427716,0.03855134
1755650277610,-0.11362855,-0.06285015,0.02065040,-0.04770132,-0.06601189,-0.04200667,0.99771711,0.05364620,-0.01464683,0.03831610
1755650277621,0.00492600,-0.13685494,0.02455965,-0.04190860,-0.05871587,-0.01912934,0.99772872,0.05341571,-0.01496977,0.03821089
1755650277632,-0.08846701,-0.05090309,0.00058748,-0.02669983,-0.04060049,-0.00351005,0.99773403,0.05326619,-0.01519713,0.03819123
1755650277643,-0.12666867,-0.05949909,-0.07744382,-0.03943715,-0.03170429,-0.00019904,0.99774295,0.05304928,-0.01537150,0.03819014
1755650277655,0.00721249,-0.02975592,0.03484865,-0.02530582,-0.01862222,0.00534915,0.99774768,0.05290884,-0.01547486,0.03821983
1755650277666,-0.03475286,0.01731335,0.04984159,-0.02968827,-0.03046205,-0.00100917,0.99775409,0.05274110,-0.01564697,0.03821413
1755650277677,0.11278138,0.02155964,0.18340246,-0.02560111,-0.03990270,-0.00560720,0.99775929,0.05259901,-0.01586843,0.03818301
1755650277688,0.04466243,0.06388272,0.02018330,-0.02505070,-0.04722861,-0.01356263,0.99776523,0.05246123,-0.01612818,0.03810841
1755650277699,-0.02356026,0.06880935,0.04479504,-0.02585971,-0.04062075,-0.01450641,0.99777229,0.05231513,-0.01635769,0.03802645
1755650277710,0.01285047,-0.05646469,-0.00846045,-0.01778604,-0.02986605,0.00739438,0.99777317,0.05221552,-0.01652494,0.03806786
1755650277722,-0.12612436,0.05374971,0.02614057,-0.01768842,-0.02919049,0.00019203,0.99777557,0.05211735,-0.01668695,0.03806892
1755650277733,-0.01945178,0.00279962,0.01210599,-0.00441826,-0.02476239,0.00996614,0.99777240,0.05209261,-0.01682562,0.03812473
1755650277744,-0.12160192,0.11838242,-0.23767968,-0.00891204,-0.02742385,-0.00464174,0.99777338,0.05204359,-0.01697645,0.03809921
1755650277755,-0.02628162,0.09852087,-0.07467567,0.00420114,-0.02746623,0.00072574,0.99776940,0.05206691,-0.01712889,0.03810323
1755650277766,-0.01797920,0.11015257,0.05275611,0.00151219,-0.02048360,-0.00043413,0.99776708,0.05207538,-0.01724359,0.03810080
1755650277777,0.18669554,-0.01797991,0.32705146,0.01770190,-0.00676242,-0.00230833,0.99776183,0.05217274,-0.01728079,0.03808811
1755650277788,-0.03528843,-0.03043759,0.10062305,0.01033096,-0.02405693,0.00484416,0.99775549,0.05223008,-0.01741430,0.03811499
1755650277799,-0.01154093,-0.01774804,0.09034120,0.00412340,-0.01126090,-0.02105215,0.99775767,0.05225317,-0.01747736,0.03799710
1755650277811,-0.05701975,0.06889886,0.02470856,-0.00429575,-0.01818484,-0.01211894,0.99775972,0.05222911,-0.01757920,0.03792923
1755650277822,-0.01280761,0.12789137,-0.00981682,0.01054428,-0.01725273,-0.01131496,0.99775737,0.05228710,-0.01767409,0.03786700
1755650277833,0.00173137,0.06300841,-0.00539781,0.04950175,-0.00394009,-0.01725072,0.99774598,0.05256679,-0.01769635,0.03776953
1755650277844,-0.04906823,0.12344652,-0.13435348,0.02141355,-0.02181008,-0.01060244,0.99773984,0.05268456,-0.01781631,0.03771122
1755650277855,0.13260429,-0.05763836,-0.02190135,0.04238627,-0.01616301,-0.00798230,0.99772745,0.05291981,-0.01790601,0.03766692
1755650277866,-0.00777386,0.05365935,0.07181406,0.03529275,-0.03006296,-0.00220618,0.99771438,0.05311745,-0.01807436,0.03765456
1755650277877,-0.00376645,-0.03479218,0.20425235,0.03483100,-0.03177836,0.00026370,0.99770081,0.05331076,-0.01825073,0.03765603
1755650277888,-0.02709082,0.03579859,0.05805176,0.04027014,-0.02369154,0.00423213,0.99768554,0.05353426,-0.01838222,0.03767952
1755650277900,-0.08345774,-0.00099742,-0.00907522,0.03978217,-0.01877549,0.00466065,0.99767063,0.05375704,-0.01848736,0.03770562
1755650277911,-0.00093297,-0.01495783,-0.00825855,0.04215196,-0.00972461,0.01898071,0.99765301,0.05399098,-0.01854134,0.03781096
1755650277922,-0.02188326,-0.07403150,-0.07924547,0.05671573,-0.01723242,0.01573396,0.99763063,0.05430859,-0.01863784,0.03789907
1755650277933,-0.03984148,0.13662033,0.00836222,0.03489525,-0.01683955,0.00166374,0.99761796,0.05450226,-0.01873130,0.03790830
1755650277944,-0.25401431,0.23669700,-0.37577552,0.05893031,-0.00782098,0.00907378,0.99759657,0.05484111,-0.01877627,0.03796048
1755650277955,-0.10828689,0.10733621,-0.12414965,0.05637584,-0.02246037,0.00176030,0.99757731,0.05514272,-0.01889643,0.03796989
1755650277966,0.05783685,-0.05048291,-0.00941448,0.05511152,-0.02027640,-0.01128861,0.99756045,0.05545134,-0.01900998,0.03790668
1755650277978,0.34591981,-0.36064992,0.29270138,0.04457312,-0.02766827,-0.00617133,0.99754489,0.05570095,-0.01916492,0.03787212
1755650277989,0.12270345,-0.07076354,0.07028410,0.02819396,-0.02259066,-0.00184527,0.99753411,0.05585743,-0.01929030,0.03786188
1755650278000,-0.03037629,-0.09284973,-0.08676248,0.03405527,-0.02610369,-0.00753498,0.99752218,0.05604814,-0.01943648,0.03781968
1755650278011,0.00403441,-0.01291179,-0.06019947,0.02129704,-0.02181117,-0.00571700,0.99751423,0.05616847,-0.01955971,0.03778738
1755650278022,0.02634010,-0.10338824,-0.04569990,0.02016940,-0.01976543,-0.00557910,0.99750687,0.05628142,-0.01967040,0.03775614
1755650278055,-0.00001943,0.01835378,-0.08166886,0.00648770,-0.03068643,-0.00922104,0.99749642,0.05638879,-0.02017826,0.03760353
1755650278069,0.00324946,0.06318130,-0.14929210,0.00640353,-0.04604345,-0.01361835,0.99749119,0.05643137,-0.02048445,0.03751297
1755650278080,0.18388427,-0.30906953,0.17476190,0.01996966,-0.03128473,0.01429874,0.99747788,0.05654620,-0.02066434,0.03759519
1755650278091,-0.04799502,-0.04030038,0.00766044,-0.00071862,-0.02840151,-0.01233322,0.99747744,0.05654250,-0.02081060,0.03753167
1755650278102,-0.04629850,-0.16124258,-0.01401282,-0.01201283,-0.03750385,-0.00791602,0.99747852,0.05647462,-0.02102250,0.03748694
1755650278114,0.00460075,-0.07421643,0.02468875,-0.02363091,-0.02513820,0.00494522,0.99748223,0.05633284,-0.02117333,0.03751662
1755650278126,0.05805711,0.10299244,0.03149788,-0.03395746,-0.03734544,0.00557080,0.99748763,0.05613079,-0.02139553,0.03754976
1755650278138,-0.05004477,0.07352034,-0.14919903,-0.01245003,-0.03341397,-0.00266894,0.99748811,0.05605734,-0.02159268,0.03753401
1755650278149,-0.47653444,0.20659936,-0.39644134,-0.01086010,-0.03826532,-0.00134918,0.99748711,0.05599435,-0.02181462,0.03752619
1755650278161,0.03282316,0.07086041,-0.14927387,0.02488265,-0.02932535,-0.00541324,0.99747654,0.05613742,-0.02198324,0.03749506
1755650278172,0.14464365,-0.08619609,0.19228299,-0.00028113,-0.03131821,-0.04266986,0.99748188,0.05613579,-0.02216488,0.03724758
1755650278184,0.35489720,-0.15941491,0.33968649,-0.03779608,-0.02971729,-0.05003516,0.99750164,0.05591091,-0.02234170,0.03694987
1755650278196,0.01864153,-0.06680129,0.06613871,-0.04188144,-0.03569566,-0.01324203,0.99751341,0.05566799,-0.02254874,0.03687307
1755650278207,0.00354368,-0.03632269,0.06378618,-0.02474263,-0.02794753,-0.02754378,0.99752363,0.05552449,-0.02271083,0.03671331
1755650278219,-0.02220442,-0.00713262,0.03207306,-0.03218145,-0.03185677,-0.00541987,0.99753080,0.05534105,-0.02289241,0.03668242
1755650278230,-0.02070253,0.14919968,0.09605229,-0.02249460,-0.01961344,0.00173230,0.99753505,0.05521058,-0.02300617,0.03669247
1755650278242,-0.00129125,0.05247186,-0.22356565,-0.02039234,-0.02768813,-0.01728027,0.99754161,0.05509129,-0.02316815,0.03659138
1755650278253,0.14025324,-0.10140772,-0.18398448,-0.01760928,-0.03223101,-0.02326541,0.99754734,0.05499708,-0.02334058,0.03646691
1755650278264,-0.06522095,0.02205751,0.16130355,-0.04322565,-0.03454984,-0.02407247,0.99756128,0.05475069,-0.02353752,0.03632969
1755650278276,-0.05031524,0.05047084,0.43357588,-0.03883468,-0.04222406,-0.01870075,0.99757148,0.05453128,-0.02377608,0.03622403
1755650278287,0.06997114,0.00811564,0.25899413,-0.01243943,-0.03228247,-0.02233353,0.99757549,0.05446161,-0.02395687,0.03609897
1755650278298,0.03708590,0.11055752,0.02623699,-0.00048223,-0.04812936,-0.00974161,0.99757099,0.05445884,-0.02423361,0.03604295
1755650278309,0.02360749,0.06475823,0.04708509,0.02863359,-0.04935564,-0.01676999,0.99755875,0.05462062,-0.02451247,0.03594820
1755650278321,0.01715866,0.09394025,0.10771256,0.03273857,-0.04674445,-0.00924747,0.99754422,0.05480232,-0.02477190,0.03589688
1755650278332,-0.09271933,0.09217392,0.08805857,0.00972947,-0.03613398,-0.01642074,0.99753940,0.05485778,-0.02497786,0.03580328
1755650278343,-0.03394509,0.19919399,-0.04274814,0.04381506,-0.03863643,-0.01715519,0.99752388,0.05510314,-0.02519423,0.03570721
1755650278355,-0.12030384,0.07006322,-0.05347195,0.04633388,-0.04315392,-0.01292298,0.99750549,0.05536956,-0.02544236,0.03563290
1755650278366,-0.03993035,-0.01064369,0.03779831,0.04798584,-0.03988696,-0.04509499,0.99749380,0.05563828,-0.02566573,0.03538037
1755650278377,0.06219831,-0.10691199,0.17894110,0.03678776,-0.04163229,-0.02744455,0.99748181,0.05584246,-0.02589679,0.03522805
1755650278388,-0.03540193,-0.06330449,0.01482518,0.05798719,-0.03192483,-0.02220438,0.99746297,0.05617298,-0.02607876,0.03510149
1755650278400,-0.00280097,0.01786452,0.07555950,0.04566876,-0.03592840,-0.02135571,0.99744746,0.05642873,-0.02627996,0.03498190
1755650278411,0.03041053,-0.04514063,0.04941712,0.02990845,-0.02579483,-0.01755629,0.99743759,0.05659622,-0.02642441,0.03488358
1755650278422,-0.09883423,0.01568043,0.02470856,0.03586015,-0.03263334,-0.01088743,0.99742345,0.05679703,-0.02660716,0.03482261
1755650278433,0.02308249,0.01576123,-0.06757156,0.04744441,-0.02565099,-0.00422531,0.99740543,0.05706035,-0.02674952,0.03479916
1755650278444,0.18284781,0.12895229,0.06435839,0.03750682,-0.02949177,-0.01715065,0.99739218,0.05727226,-0.02691615,0.03470226
1755650278456,0.02072222,-0.00982708,0.07996221,0.02776468,-0.03043529,-0.01150892,0.99738087,0.05742774,-0.02708659,0.03463781
1755650278467,0.00380132,-0.04799162,0.01140395,0.02502327,-0.02362897,-0.02334429,0.99737372,0.05756787,-0.02721891,0.03450708
1755650278478,-0.28129743,-0.17058408,-0.02470856,0.01910895,-0.03994554,-0.01488347,0.99736429,0.05767488,-0.02744260,0.03442373
1755650278489,0.00760263,-0.01520527,0.01900658,0.02074740,-0.03751377,-0.01786930,0.99735521,0.05779107,-0.02765268,0.03432367
1755650278501,0.06771815,-0.03068739,0.00471793,0.02226343,-0.04612769,-0.00341933,0.99734131,0.05791686,-0.02791330,0.03430435
1755650278512,0.01150487,0.02098293,0.02945179,0.02401811,-0.05074408,-0.00441742,0.99732635,0.05805136,-0.02819747,0.03427961
1755650278523,-0.01914326,0.02348850,-0.01231872,0.02836856,-0.04758705,0.01345734,0.99730710,0.05820881,-0.02846158,0.03435430
1755650278534,-0.01143820,0.05702403,-0.01059917,0.03924521,-0.03297411,0.01899961,0.99728529,0.05842858,-0.02864623,0.03446070
1755650278545,-0.20900330,0.30202560,0.12030005,0.04590291,-0.04073159,0.00775124,0.99726253,0.05868104,-0.02887026,0.03450333
1755650278556,-0.01900658,-0.00155508,0.04530478,0.02197224,-0.03526803,0.01281653,0.99724706,0.05880409,-0.02906776,0.03457510
1755650278567,-0.04561580,-0.05606942,0.04181448,0.02423575,-0.04672017,0.00892838,0.99722966,0.05893981,-0.02932939,0.03462510
1755650278579,0.13680174,-0.21549124,-0.04162104,0.03140669,-0.03639649,-0.00584627,0.99721450,0.05911412,-0.02953139,0.03459265
1755650278590,0.00622389,0.09705485,-0.02351621,0.03429388,-0.03919637,0.00931026,0.99719459,0.05930788,-0.02975285,0.03464526
1755650278601,-0.04503721,0.10244252,-0.06700783,0.06570338,-0.04020394,0.00740331,0.99716472,0.05967253,-0.02997598,0.03468634
1755650278612,0.00316241,0.06741567,-0.02940368,0.05293441,-0.03069360,0.01839484,0.99713793,0.05997161,-0.03014940,0.03479027
1755650278623,-0.02462130,0.01019639,0.07724671,0.06148466,-0.02287757,0.00171727,0.99711339,0.06030978,-0.03027523,0.03479972
1755650278634,0.03143631,-0.11402026,-0.05092274,0.05536575,-0.03181201,-0.00092637,0.99708913,0.06062259,-0.03045497,0.03479449
1755650278646,0.51153715,-0.12769248,-0.27083430,0.04215720,-0.04472505,-0.00524127,0.99706847,0.06085446,-0.03070095,0.03476566
1755650278657,0.02111596,-0.08155277,-0.03136841,0.03848833,-0.04420195,-0.01694890,0.99705079,0.06107192,-0.03095069,0.03466990
1755650278668,0.04901007,-0.08640979,0.03077257,0.02988688,-0.04387721,0.00340654,0.99703237,0.06123779,-0.03119421,0.03468880
1755650278679,-0.43277908,0.08814795,0.24051132,0.02741944,-0.03172232,-0.01312095,0.99701979,0.06139271,-0.03137344,0.03461467
1755650278690,0.00325364,-0.01281762,-0.07842981,0.03657967,-0.03709415,-0.01243547,0.99700317,0.06159573,-0.03157932,0.03454565
1755650278702,0.04535030,-0.06116234,-0.07233170,0.02944583,-0.03827929,0.00649634,0.99698473,0.06176209,-0.03179559,0.03458236
1755650278713,0.12411775,-0.03593986,0.01751827,0.02951605,-0.04634612,-0.00254047,0.99696682,0.06192591,-0.03205282,0.03456826
1755650278724,0.00636977,0.03863816,0.00549650,0.02872528,-0.04053646,-0.01622632,0.99695263,0.06208677,-0.03227982,0.03447739
1755650278735,0.03614413,0.04760763,-0.05585754,0.03467366,-0.05570060,-0.00022844,0.99693062,0.06227921,-0.03258896,0.03447612
1755650278746,0.03044660,0.01652695,-0.06674702,0.05038212,-0.03927069,-0.00383256,0.99690626,0.06256387,-0.03281084,0.03445447
1755650278757,-0.02712507,0.02187644,-0.02493315,0.04640986,-0.04758713,-0.05367835,0.99689159,0.06282144,-0.03307495,0.03415655
1755650278768,0.01352654,-0.05762537,-0.02868621,0.02654745,-0.05529705,-0.04128347,0.99688000,0.06296745,-0.03337908,0.03392950
1755650278780,-0.01639712,0.02340324,-0.03160605,0.02381002,-0.04965637,-0.01653446,0.99686523,0.06310198,-0.03365964,0.03383608
1755650278791,0.00000000,-0.07421990,-0.05601502,0.01484042,-0.04927665,-0.01419043,0.99685320,0.06318583,-0.03393805,0.03375590
1755650278802,0.01489824,-0.10498550,0.02087466,0.00896501,-0.03967744,-0.02252752,0.99684675,0.06323558,-0.03415826,0.03363087
1755650278813,0.00777145,-0.10739576,-0.05971571,0.00138022,-0.04337400,-0.00261981,0.99683832,0.06324338,-0.03440332,0.03361607
1755650278825,0.00561788,-0.01092879,0.00134560,-0.00655450,-0.05139342,-0.00860838,0.99683230,0.06320668,-0.03469113,0.03356786
1755650278836,0.07930285,-0.11862169,-0.02764370,0.00101611,-0.05539466,-0.00207079,0.99682159,0.06321232,-0.03499857,0.03355637
1755650278847,-0.11997364,-0.01112659,-0.47989455,-0.01086897,-0.05326264,-0.01517127,0.99681782,0.06315199,-0.03529418,0.03347217
1755650278858,0.00989712,-0.02203736,0.01263681,-0.00062473,-0.03407077,-0.00921380,0.99681300,0.06314849,-0.03548497,0.03342057
1755650278869,-0.02159664,-0.05806904,0.02208040,-0.02149163,-0.03961807,0.00202621,0.99681232,0.06302922,-0.03570485,0.03343182
1755650278880,0.02895620,-0.10028066,0.30904790,-0.02082633,-0.03299170,0.00577159,0.99681196,0.06291051,-0.03589290,0.03346472
1755650278892,-0.02199856,-0.04794362,-0.00005092,-0.03509228,-0.04468774,-0.00367931,0.99681596,0.06271574,-0.03614092,0.03344430
1755650278902,0.04725739,-0.18404438,-0.03214370,-0.02961484,-0.03830567,-0.00780182,0.99681993,0.06255434,-0.03634969,0.03340178
1755650278914,-0.02085493,-0.03711951,-0.05042848,-0.05216642,-0.03717286,-0.00650084,0.99683183,0.06226221,-0.03655786,0.03336537
1755650278925,-0.02407312,0.03547201,-0.04781282,-0.05156940,-0.03481890,0.00000026,0.99684275,0.06197084,-0.03675458,0.03336537
1755650278936,-0.02794704,0.11095763,-0.09334518,-0.02750421,-0.02418006,-0.00751041,0.99684866,0.06181820,-0.03688878,0.03332369
1755650278947,-0.19660766,-0.22289098,0.04501387,-0.01708948,-0.02357775,-0.01182500,0.99685194,0.06172164,-0.03702200,0.03325688
1755650278958,-0.00109596,0.03243364,-0.04195481,-0.01710859,-0.01897119,-0.01993692,0.99685758,0.06162669,-0.03712729,0.03314623
1755650278969,0.06707150,0.03273577,-0.02823873,-0.03470771,-0.01422332,-0.02241784,0.99687043,0.06143753,-0.03720480,0.03302405
1755650278981,0.07081531,0.27918860,-0.20415503,-0.02445816,-0.01488017,-0.01744349,0.99687905,0.06129934,-0.03728888,0.03292550
1755650278992,0.03620101,0.02033524,0.00142133,-0.02648554,-0.00975666,-0.02318696,0.99689029,0.06115235,-0.03734303,0.03279681
1755650279003,-0.01315428,0.01783481,-0.10222320,-0.02907113,-0.00719474,-0.02434956,0.99690335,0.06098810,-0.03738368,0.03265923
1755650279014,-0.01813194,-0.01818240,-0.04487572,-0.02125863,-0.00986679,-0.02719055,0.99691353,0.06086905,-0.03743893,0.03250697
1755650279025,-0.00380132,-0.02898504,-0.05321843,-0.03274821,-0.02576289,-0.01238140,0.99692154,0.06068566,-0.03758320,0.03243763
1755650279037,0.09503292,-0.06747337,-0.02660922,-0.03708553,-0.01523178,-0.01985456,0.99693455,0.06047798,-0.03766850,0.03232644
1755650279048,-0.00760263,-0.15062717,-0.37823100,-0.02648663,-0.02770031,-0.01560288,0.99694049,0.06032965,-0.03782362,0.03223907
1755650279059,0.03455240,-0.01403911,-0.07871050,-0.03067230,-0.03341549,-0.00898832,0.99694530,0.06016096,-0.03800741,0.03218963
1755650279070,-0.01873012,-0.00046653,-0.02342993,-0.01510630,-0.03090996,-0.01110610,0.99694579,0.06007636,-0.03818050,0.03212744
1755650279081,0.03089308,0.01820862,0.27606732,-0.02309237,-0.02862629,-0.01939809,0.99695083,0.05994935,-0.03833795,0.03202075
1755650279092,-0.05695063,-0.07205223,-0.10578027,-0.02389871,-0.04805116,-0.00556113,0.99694948,0.05981552,-0.03860703,0.03198961
1755650279104,0.05468133,-0.03522611,-0.00248400,-0.04171283,-0.03378425,-0.00092614,0.99695635,0.05957984,-0.03879791,0.03198437
1755650279115,0.02939909,-0.04414222,0.02355763,-0.06277953,-0.04131713,0.00102976,0.99696787,0.05923455,-0.03902516,0.03199004
1755650279126,-0.03608725,-0.10920382,-0.09948606,-0.06161102,-0.04074260,0.00540434,0.99697848,0.05888645,-0.03925535,0.03202057
1755650279137,0.00558424,-0.06941608,-0.04950122,-0.07113281,-0.02831682,-0.00174880,0.99699598,0.05848811,-0.03941393,0.03201078
1755650279148,-0.14132839,-0.30834814,-0.29659957,-0.06397891,-0.03329321,0.00127843,0.99700920,0.05813303,-0.03959871,0.03201787
1755650279159,-0.01548047,0.06675952,-0.05805176,-0.06194987,-0.02397567,-0.01490621,0.99702655,0.05778920,-0.03973177,0.03193514
1755650279170,0.00774023,0.08127246,0.03096094,-0.05783254,-0.03077384,-0.01348320,0.99704068,0.05746823,-0.03990257,0.03186031
1755650279182,0.13253239,0.29050535,0.27708516,-0.05545091,-0.01506710,-0.01833764,0.99705842,0.05715771,-0.03998694,0.03175762
1755650279193,-0.01140395,-0.03041053,-0.00190066,-0.05068523,-0.00933984,-0.01368112,0.99707499,0.05687387,-0.04003924,0.03168101
1755650279204,-0.00224605,-0.04958156,-0.00482037,-0.06105343,-0.01801007,-0.01441468,0.99709278,0.05653502,-0.04013920,0.03160101
1755650279215,-0.01429813,-0.05189379,0.08220582,-0.06882791,-0.00966308,-0.01829435,0.99711582,0.05614615,-0.04019380,0.03149764
1755650279226,-0.01520522,-0.06019315,0.04655727,-0.08958793,-0.00661062,-0.02212084,0.99714582,0.05565341,-0.04023016,0.03137598
1755650279237,-0.02455765,-0.00410760,-0.08338344,-0.08123341,-0.01050872,-0.01570256,0.99717126,0.05520257,-0.04028848,0.03128883
1755650279248,-0.11893669,0.17798980,-0.33775212,-0.06706542,-0.00758396,-0.02052676,0.99719386,0.05482700,-0.04033095,0.03117388
1755650279260,0.03421185,0.10025973,-0.04181448,-0.03309069,0.00608297,-0.01380228,0.99720783,0.05464169,-0.04029688,0.03109659
1755650279271,-0.01126481,0.10867428,0.19141531,-0.02523227,0.00518207,-0.03748062,0.99722312,0.05450165,-0.04026812,0.03088857
1755650279282,0.03232781,0.04632248,0.32759176,-0.03821228,-0.00067974,-0.03767769,0.99724147,0.05428384,-0.04027200,0.03067381
1755650279293,0.07708764,0.08384577,0.12907858,-0.05020654,-0.00372325,-0.00239384,0.99725604,0.05400771,-0.04029248,0.03066064
1755650279304,0.04908012,0.00865939,0.05036430,-0.02686159,0.00339950,-0.01432021,0.99726730,0.05385863,-0.04027361,0.03058116
1755650279316,-0.11899406,0.10198349,0.05337407,-0.04057097,-0.00957876,-0.01580823,0.99728021,0.05362940,-0.04032773,0.03049185
1755650279327,0.02438516,0.01857143,0.02500164,-0.03895005,-0.00887067,-0.00819010,0.99729120,0.05341323,-0.04037696,0.03044639
1755650279338,0.05623209,-0.02116409,-0.04291036,-0.01769984,-0.00090568,-0.00704007,0.99729751,0.05331411,-0.04038203,0.03040697
1755650279349,-0.15495800,0.07009000,-0.41033611,-0.01239999,-0.02025357,-0.03793585,0.99730297,0.05324591,-0.04049343,0.03019832
1755650279360,0.02674745,0.06230704,0.08749940,-0.01580723,-0.02039962,-0.04141717,0.99731004,0.05315739,-0.04060767,0.02996638
1755650279371,0.06331697,0.08934062,0.17384660,-0.00304811,-0.02874689,-0.02848399,0.99730916,0.05314017,-0.04077009,0.02980545
1755650279382,0.15244152,0.01480406,0.36076001,0.00060749,-0.03222361,-0.00865780,0.99730309,0.05314354,-0.04094893,0.02975740
1755650279394,-0.01548047,-0.01983435,0.01741553,0.01119542,-0.03055468,-0.02319370,0.99729663,0.05320567,-0.04111851,0.02962867
1755650279405,-0.01335598,0.02413494,0.11123132,-0.00842714,-0.02888697,0.00505243,0.99729162,0.05315848,-0.04128027,0.02965697
1755650279416,-0.02280790,-0.07887732,0.05701975,-0.00366091,-0.03117473,0.00228461,0.99728509,0.05313798,-0.04145485,0.02966976
1755650279427,-0.00995173,-0.07828349,0.03341432,0.00176797,-0.03283191,-0.00462333,0.99727774,0.05314779,-0.04163707,0.02964410
1755650279438,-0.06316814,0.03386487,0.00500784,-0.01326778,-0.03764463,-0.00283805,0.99727327,0.05307216,-0.04185164,0.02962792
1755650279449,-0.08268773,0.02042995,-0.10681650,-0.00005664,-0.02917343,-0.00169761,0.99726682,0.05307185,-0.04201210,0.02961859
1755650279461,0.00675575,0.07691031,-0.02215139,0.01512012,-0.03468151,0.00460027,0.99725322,0.05315728,-0.04220805,0.02964458
1755650279472,0.03831593,0.12554016,0.08524368,0.02164442,-0.03038811,-0.00635368,0.99724059,0.05327849,-0.04237822,0.02960900
1755650279483,0.13849962,-0.04330129,0.12792849,0.02525763,-0.04316100,0.00308076,0.99722270,0.05341615,-0.04261345,0.02962579
1755650279494,0.02719734,-0.05057338,0.00450922,0.02448595,-0.03244994,0.00036469,0.99720764,0.05355204,-0.04279354,0.02962781
1755650279505,0.00551362,-0.02985403,0.01167792,0.00509541,-0.04286193,0.00270070,0.99719533,0.05358058,-0.04303357,0.02964294
1755650279516,-0.01900658,-0.01900658,0.04371514,0.00377128,-0.03824870,-0.00184925,0.99718524,0.05360170,-0.04324776,0.02963258
1755650279528,0.05321843,0.03278636,-0.02660922,0.00571790,-0.03219149,0.01784823,0.99717271,0.05363372,-0.04342804,0.02973253
1755650279539,0.08348905,0.15846331,0.07470336,0.01952162,-0.03520876,-0.00874895,0.99715956,0.05374401,-0.04362697,0.02968310
1755650279550,0.08668240,0.13013214,0.12821471,0.03422845,-0.04547056,-0.02165398,0.99714228,0.05392885,-0.04387251,0.02956617
1755650279561,0.01019196,-0.01574658,-0.02670295,0.01797435,-0.04047377,-0.00159983,0.99712683,0.05403130,-0.04410321,0.02955705
1755650279572,0.00123220,0.00749440,-0.04015203,0.01697414,-0.03919729,-0.00341230,0.99711289,0.05412381,-0.04431683,0.02953845
1755650279583,-0.09576528,-0.09654124,-0.22588191,0.01762370,-0.03558642,-0.00881015,0.99710011,0.05422250,-0.04451612,0.02948912
1755650279594,-0.00062198,0.03188527,-0.01053916,0.01702226,-0.03814163,0.00175996,0.99708520,0.05431698,-0.04472780,0.02949888
1755650279605,0.02322070,0.01402918,-0.01935059,0.02215704,-0.02648968,0.00099543,0.99707173,0.05443995,-0.04487482,0.02950441
1755650279617,-0.02159858,-0.06746613,-0.06503125,0.02647479,-0.02653740,-0.00189651,0.99705711,0.05458953,-0.04502476,0.02949369
1755650279628,0.00319580,-0.03207992,0.00400316,0.01024337,-0.02775354,-0.00518805,0.99704779,0.05464689,-0.04518018,0.02946464
1755650279639,0.03417583,-0.06389630,0.02030544,-0.00231136,-0.03330973,0.00071190,0.99703985,0.05463383,-0.04536838,0.02946866
1755650279650,0.15137428,0.09666892,-0.04839218,-0.01273716,-0.03602520,-0.02097343,0.99703807,0.05456442,-0.04556471,0.02935436
1755650279661,0.03696648,-0.04283350,-0.01493734,-0.01042139,-0.03699780,-0.01331201,0.99703392,0.05450554,-0.04577375,0.02927914
1755650279672,-0.00493183,0.01802344,-0.05252057,-0.01320562,-0.04496607,-0.00829969,0.99702779,0.05443224,-0.04602331,0.02923308
1755650279684,-0.05835535,-0.00330903,-0.04881781,0.00119237,-0.04181928,-0.02162949,0.99702013,0.05443892,-0.04625750,0.02911195
1755650279695,-0.00225189,0.03142966,-0.07505118,0.00528147,-0.03939241,-0.01351182,0.99701064,0.05446797,-0.04647416,0.02903764
1755650279706,-0.07329480,-0.09356629,-0.12944561,0.01265286,-0.03616372,-0.01509432,0.99699966,0.05453946,-0.04667848,0.02895236
1755650279717,0.01224090,-0.11717786,0.09356791,-0.01568689,-0.02847474,-0.00379033,0.99699764,0.05445318,-0.04683510,0.02893151
1755650279728,-0.09171540,-0.08794864,-0.00352486,-0.03558828,-0.03712536,-0.02005026,0.99700197,0.05425389,-0.04704300,0.02881923
1755650279739,0.09392518,0.02619035,0.03377572,-0.02625853,-0.02794076,-0.01573728,0.99700514,0.05410552,-0.04720086,0.02873031
1755650279750,0.21364034,0.23406800,0.11864258,-0.01784238,-0.04357618,-0.02489965,0.99700302,0.05400739,-0.04744053,0.02859336
1755650279761,0.04728964,0.06157505,-0.02167442,-0.01886008,-0.03776230,-0.02192331,0.99700218,0.05390366,-0.04764822,0.02847279
1755650279773,-0.09716059,-0.05486501,-0.10933113,-0.01548135,-0.04517238,-0.01221599,0.99699664,0.05381619,-0.04790345,0.02840377
1755650279784,-0.22727622,-0.09930039,-0.19506975,-0.00422518,-0.04304597,-0.01033768,0.99698811,0.05379295,-0.04814020,0.02834691
1755650279795,0.00442335,-0.01850550,0.00152053,-0.00296923,-0.02570955,-0.01360812,0.99698421,0.05377633,-0.04828417,0.02827070
1755650279806,-0.07815428,-0.00962758,-0.02073889,-0.02359551,-0.04445008,-0.00578356,0.99698012,0.05364301,-0.04853532,0.02823803
1755650279817,0.02123427,-0.09148718,0.04260554,-0.02366816,-0.04192241,-0.01105981,0.99697756,0.05351165,-0.04876799,0.02817664
1755650279828,0.00387012,-0.00145129,0.00580518,-0.03438517,-0.05347198,-0.01196880,0.99697510,0.05332082,-0.04906476,0.02811022
1755650279840,0.12844765,0.07215508,0.00846113,-0.00760916,-0.05373942,0.00174545,0.99696213,0.05327782,-0.04936838,0.02812008
1755650279851,0.18658760,0.10118388,0.01073701,0.00350854,-0.05223135,-0.00118168,0.99694688,0.05329730,-0.04965827,0.02811352
1755650279862,-0.07353223,-0.08369129,-0.03483106,-0.00421564,-0.05827323,-0.01167577,0.99693380,0.05327390,-0.04998168,0.02804872
1755650279873,-0.15867481,-0.10062305,-0.02322070,-0.03510950,-0.05931485,0.00606494,0.99692668,0.05307904,-0.05031088,0.02808238
1755650279884,-0.15965530,-0.03588991,-0.06282446,-0.03584016,-0.05416020,0.02638127,0.99691782,0.05287834,-0.05061418,0.02823012
1755650279895,-0.00919153,0.03524571,-0.03336248,-0.00093009,-0.04659386,0.00574512,0.99690403,0.05287317,-0.05087278,0.02826200
1755650279907,-0.07832082,0.02398939,-0.13989530,0.01508524,-0.05284636,0.01368870,0.99688222,0.05295765,-0.05116871,0.02833866
1755650279918,0.03258501,0.13446930,-0.00784390,-0.00233295,-0.03899497,0.01884638,0.99686880,0.05294470,-0.05138514,0.02844326
1755650279929,-0.11552729,0.08924855,-0.05637533,0.00196876,-0.04648599,0.00348064,0.99685395,0.05295593,-0.05165011,0.02846310
1755650279940,0.20379223,-0.06118350,0.07918464,0.01361335,-0.04981579,-0.00974602,0.99683711,0.05303148,-0.05192658,0.02840901
1755650279951,0.15166108,0.02470632,0.23149509,-0.03339637,-0.04324769,-0.02332524,0.99683812,0.05284279,-0.05217093,0.02827722
1755650279962,0.06649510,-0.08762755,0.02356994,-0.03311348,-0.05664670,0.00379543,0.99683094,0.05266398,-0.05247683,0.02829771
1755650279973,-0.15329965,-0.03616141,-0.09218405,-0.03984895,-0.04643281,0.01469456,0.99682668,0.05244282,-0.05273453,0.02837927
1755650279985,-0.27691393,-0.05903599,-0.22576739,-0.02927567,-0.05095645,0.00752797,0.99681896,0.05227887,-0.05301988,0.02842142
1755650279996,0.00000000,0.01805625,0.01710592,-0.02641499,-0.04037149,0.01630978,0.99681205,0.05213095,-0.05324596,0.02851276
1755650280007,0.00850044,0.00119645,-0.01973069,-0.00688487,-0.03600966,0.01792629,0.99680050,0.05209274,-0.05344582,0.02861225
1755650280018,-0.00082191,-0.07816243,-0.03556457,-0.00961808,-0.03582716,0.01750149,0.99678971,0.05203888,-0.05364645,0.02871026
1755650280029,-0.03440922,-0.04015660,-0.01968861,-0.01261070,-0.03240199,-0.00535659,0.99678443,0.05196763,-0.05382952,0.02867999
1755650280040,-0.08118752,-0.04049349,-0.05841456,-0.02814026,-0.02881132,0.00242650,0.99678354,0.05181285,-0.05398798,0.02869334
1755650280051,-0.05397055,-0.03943562,-0.12613064,-0.02257158,-0.02325082,0.00003001,0.99678304,0.05168758,-0.05411703,0.02869351
1755650280063,0.03133616,0.02277078,-0.00327245,-0.00667252,-0.01945028,0.00711222,0.99677782,0.05164955,-0.05422789,0.02873405
1755650280074,0.00651809,0.16431449,0.03432183,0.00894665,-0.01922375,-0.00589943,0.99677038,0.05169920,-0.05433458,0.02870130
1755650280085,0.01934407,0.08255580,0.03908587,0.00784408,-0.01979508,0.00099990,0.99676211,0.05174195,-0.05444247,0.02870675
1755650280096,0.04176288,0.01113020,0.04169436,-0.00253589,-0.01529144,0.00481384,0.99675735,0.05172762,-0.05452886,0.02873395
1755650280107,-0.02640738,-0.01187911,0.01352327,-0.00165621,-0.00980307,-0.00514743,0.99675566,0.05171835,-0.05458376,0.02870513
1755650280118,-0.01977439,-0.01943133,-0.01900030,-0.00109204,-0.01548075,-0.00579801,0.99675222,0.05171234,-0.05466891,0.02867324
1755650280130,-0.02239321,0.00245358,0.03196562,-0.00030122,-0.01124520,-0.02086122,0.99675221,0.05171066,-0.05473188,0.02855641
1755650280141,0.11737963,-0.13747069,0.26498381,0.00055884,-0.01723122,-0.04863364,0.99675447,0.05171373,-0.05482665,0.02828893
1755650280152,0.25724546,-0.13820378,0.38217055,0.00169625,-0.01441678,-0.01502162,0.99675191,0.05172323,-0.05490738,0.02820481
1755650280163,0.04573280,0.02538072,0.09995041,-0.00590073,-0.01164863,-0.01290050,0.99675208,0.05168960,-0.05497378,0.02813127
1755650280174,-0.23050240,0.26711903,-0.41191761,0.00308756,-0.02282349,0.00095689,0.99674412,0.05170658,-0.05509931,0.02813654
1755650280185,-0.17162211,0.21684971,-0.27446169,0.02171161,-0.02197877,0.00081162,0.99673098,0.05182708,-0.05522129,0.02814104
1755650280197,0.01160231,0.02231214,0.02811329,0.01723316,-0.01504243,-0.00198350,0.99672143,0.05192531,-0.05530703,0.02812974
1755650280208,-0.00829643,-0.02717080,0.01137302,0.00102421,-0.02232475,0.00031298,0.99671427,0.05193094,-0.05542982,0.02813146
1755650280219,0.02339662,-0.16433926,-0.00918273,0.00331509,-0.02226770,-0.00300816,0.99670690,0.05194934,-0.05555341,0.02811476
1755650280230,-0.00003425,-0.09058948,0.06708810,-0.02191105,-0.02346966,-0.00880183,0.99670734,0.05182664,-0.05568484,0.02806547
1755650280241,-0.06188732,0.03287008,-0.04253674,-0.02892573,-0.03733611,-0.01214614,0.99670598,0.05166610,-0.05589205,0.02799806
1755650280252,0.02712291,0.06008049,-0.00726017,-0.02292354,-0.03316073,-0.01249819,0.99670415,0.05153773,-0.05607775,0.02792807
1755650280263,0.04672666,0.08097119,-0.04025249,-0.02588123,-0.04257871,-0.00322441,0.99669880,0.05139538,-0.05631194,0.02791034
1755650280274,0.01873012,-0.06051869,-0.01368474,-0.02000194,-0.04388415,-0.00428663,0.99669132,0.05128337,-0.05655769,0.02788633
1755650280286,0.02210593,-0.09291241,-0.02153911,-0.02039862,-0.03406448,-0.00335499,0.99668684,0.05116812,-0.05675015,0.02786738
1755650280297,-0.06031647,-0.00746807,-0.02008306,-0.04230125,-0.04348030,0.00033336,0.99668503,0.05093123,-0.05699364,0.02786924
1755650280308,-0.00007037,-0.07769012,-0.00851495,-0.04487591,-0.03459660,0.00901699,0.99668532,0.05068441,-0.05718392,0.02791884
1755650280319,-0.03414273,-0.01445364,0.01026355,-0.04569570,-0.03137793,-0.00344173,0.99668874,0.05042852,-0.05735964,0.02789956
1755650280330,-0.00421566,-0.07477188,-0.00513136,-0.03008629,-0.03449548,-0.00257752,0.99668654,0.05026154,-0.05755109,0.02788526
1755650280341,0.05478071,-0.11820190,0.12477434,-0.03481165,-0.04431897,-0.01614971,0.99668456,0.05007007,-0.05779484,0.02779643
1755650280353,0.14906784,-0.18652576,0.17794103,-0.00729030,-0.03959684,-0.00739025,0.99667479,0.05002888,-0.05801856,0.02775468
1755650280364,-0.05897648,0.15076761,-0.04743462,0.00299893,-0.04248184,-0.00633096,0.99666118,0.05004553,-0.05825434,0.02771954
1755650280375,-0.14706446,0.27864845,-0.23414210,0.00974977,-0.03273295,0.00150226,0.99664759,0.05009964,-0.05843601,0.02772788
1755650280386,-0.09085489,0.11768671,-0.14147062,0.01074973,-0.02720025,0.00140711,0.99663540,0.05015984,-0.05858833,0.02773576
1755650280397,-0.04737937,0.01795481,0.03964396,-0.00965304,-0.02627850,-0.00078542,0.99662953,0.05010530,-0.05873680,0.02773132
1755650280408,-0.06019315,-0.18096743,-0.06134400,-0.00208819,-0.02515396,0.01050909,0.99662033,0.05009381,-0.05887515,0.02778912
1755650280419,-0.03372805,-0.08271319,0.08297237,-0.01681790,-0.01784311,-0.00283902,0.99661960,0.04999963,-0.05897507,0.02777322
1755650280431,-0.01022817,-0.10740440,0.04462729,-0.02842304,-0.02703758,-0.02607671,0.99662263,0.04984188,-0.05912513,0.02762850
1755650280442,0.04434869,0.02851844,0.18955214,-0.02834491,-0.04047250,-0.01509181,0.99661943,0.04968315,-0.05935177,0.02754398
1755650280453,0.12968438,0.18740449,0.13341114,-0.01844507,-0.02949092,0.01724003,0.99661225,0.04958263,-0.05951250,0.02763794
1755650280464,0.00121182,0.10010940,-0.06394008,0.02814206,-0.02406642,0.01200054,0.99659415,0.04974304,-0.05964968,0.02770634
1755650280475,-0.11223888,0.07114131,-0.31754332,0.02217950,-0.02775347,0.03117273,0.99657376,0.04986724,-0.05980510,0.02788091
1755650280486,-0.02525943,0.09249408,-0.10841512,0.00782642,-0.01725387,0.02458727,0.99656201,0.04991068,-0.05990086,0.02801737
1755650280497,-0.09675293,0.02176941,-0.05805176,0.01462789,-0.02421765,0.00682361,0.99654879,0.04999186,-0.06003526,0.02805524
1755650280509,0.02322070,-0.04063623,0.00967529,0.00603748,-0.01617279,-0.00709900,0.99654280,0.05002537,-0.06012502,0.02801584
1755650280520,0.02188326,-0.07677119,0.05275611,-0.01336772,-0.02192609,-0.02096635,0.99654244,0.04995051,-0.06024781,0.02789843
1755650280531,0.02280790,-0.07602633,0.02660922,-0.04227342,-0.03040366,-0.00166741,0.99654423,0.04971378,-0.06041807,0.02788909
1755650280542,0.26010306,-0.13522792,0.06046621,-0.03718975,-0.02426366,0.00060486,0.99654627,0.04950366,-0.06055516,0.02789251
1755650280553,0.16903603,-0.10177211,0.02701019,-0.05185263,-0.02785790,0.00229450,0.99655072,0.04921847,-0.06070838,0.02790513
1755650280564,-0.01576321,-0.09950527,-0.04531923,-0.05205808,-0.02715780,0.00051601,0.99655563,0.04893215,-0.06085775,0.02790797
1755650280575,-0.17160964,-0.08880926,-0.04939506,-0.06045064,-0.03435964,0.01356398,0.99655832,0.04859060,-0.06105188,0.02798461
1755650280587,-0.04712638,-0.18118485,-0.11190804,-0.08317918,-0.04407008,0.00737484,0.99656456,0.04812896,-0.06129647,0.02802554
1755650280598,0.02015195,-0.18331881,0.05204518,-0.12286339,-0.04019883,0.00433583,0.99658316,0.04743478,-0.06152359,0.02805003
1755650280609,0.09826235,-0.29133055,-0.04312644,-0.14503163,-0.04955690,0.01312594,0.99660224,0.04662260,-0.06180111,0.02812354
1755650280620,0.03215977,-0.22372853,-0.02322259,-0.19007429,-0.06198275,0.01328883,0.99662733,0.04557719,-0.06214201,0.02819663
1755650280631,0.09385796,-0.26921097,-0.03991382,-0.21877431,-0.07243030,0.01340141,0.99665511,0.04435206,-0.06254762,0.02827168
1755650280643,0.06082107,-0.27226930,0.08743028,-0.23415565,-0.08376165,0.00245655,0.99668266,0.04304079,-0.06301669,0.02828543
1755650280654,0.33904980,-0.84913748,-0.05626200,-0.26060399,-0.08779725,0.01653706,0.99671029,0.04160746,-0.06349957,0.02837639
1755650280665,-0.19007762,0.21037882,0.08609338,-0.30673063,-0.09970841,0.00200797,0.99674476,0.03987444,-0.06406293,0.02838773
1755650280676,0.08784824,-0.17567935,-0.18045706,-0.35012104,-0.10493621,-0.01349403,0.99678512,0.03793126,-0.06464532,0.02831284
1755650280687,0.14319434,-0.28687245,-0.27671339,-0.39484436,-0.11484398,0.00648517,0.99682354,0.03573988,-0.06528271,0.02834883
1755650280698,-0.06229365,0.07564106,-0.09359458,-0.41733759,-0.12613314,-0.01547221,0.99686055,0.03340279,-0.06598905,0.02826219
1755650280709,0.20217908,-0.01294934,-0.26548314,-0.37223075,-0.12143837,-0.02849922,0.99688726,0.03133691,-0.06666304,0.02810402
1755650280721,-0.04832124,0.25136634,-0.29378013,-0.32944877,-0.12655798,-0.03680787,0.99690169,0.02949199,-0.06737176,0.02789789
1755650280732,0.07971751,0.10435495,-0.16605222,-0.29062374,-0.13333167,-0.02971111,0.99690242,0.02787903,-0.06811175,0.02773300
1755650280743,0.58051760,0.36040468,0.22640186,-0.28208896,-0.12150159,-0.03241799,0.99690366,0.02631344,-0.06878608,0.02755308
1755650280754,0.15956710,0.00432308,0.19803747,-0.31767366,-0.12059214,-0.01978325,0.99690526,0.02451858,-0.06946743,0.02744130
1755650280765,0.06041475,-0.17367908,0.02935496,-0.33640404,-0.12431656,-0.04746744,0.99690831,0.02268518,-0.07014496,0.02718260
1755650280776,-0.43917828,-0.33567041,-0.25424308,-0.34593941,-0.12876704,-0.04836750,0.99690683,0.02073062,-0.07087249,0.02690933
1755650280787,-0.21435389,-0.17585294,-0.07538717,-0.36742552,-0.14299341,-0.05281368,0.99689818,0.01867304,-0.07167325,0.02661357
1755650280799,0.11118694,-0.15801916,-0.03947840,-0.36903764,-0.14703847,-0.06079839,0.99688453,0.01664333,-0.07248196,0.02627918
1755650280810,-0.07502617,0.10732817,-0.00261403,-0.36066339,-0.14543507,-0.07039325,0.99686679,0.01460559,-0.07330367,0.02588146
1755650280821,0.05174998,-0.33116046,-0.21754854,-0.37192111,-0.15229777,-0.06224060,0.99684129,0.01254142,-0.07414892,0.02553602
1755650280832,0.06866465,-0.02526143,0.15208161,-0.40891062,-0.14249320,-0.05298675,0.99681509,0.01023108,-0.07495401,0.02523665
1755650280843,0.08436108,-0.23189707,0.12115354,-0.45753528,-0.14985545,-0.06002034,0.99678373,0.00771463,-0.07577822,0.02490653
1755650280854,0.01182241,-0.50195978,-0.03546723,-0.48693486,-0.15724304,-0.04589472,0.99674101,0.00503649,-0.07664305,0.02465411
1755650280865,0.10498545,-0.37303875,0.36153977,-0.53637648,-0.14065561,-0.02960398,0.99669487,0.00203278,-0.07743072,0.02448833
1755650280876,-0.28817122,-0.16450213,-0.37599483,-0.56445412,-0.15472337,-0.02277253,0.99663296,-0.00107171,-0.07828170,0.02436308
1755650280888,0.05470305,-0.17610046,-0.11267494,-0.53524890,-0.12974967,-0.00638633,0.99656754,-0.00412263,-0.07902128,0.02432668
1755650280899,-0.03874675,0.13886476,0.11523991,-0.58358674,-0.12457430,-0.00401482,0.99649364,-0.00739072,-0.07971889,0.02430420
1755650280910,-0.21775837,-0.23933916,-0.09869312,-0.59602431,-0.13201173,-0.00327807,0.99640348,-0.01075826,-0.08046476,0.02428568
1755650280921,0.21250937,-0.61169704,-0.05938613,-0.65704118,-0.12354685,0.00144724,0.99630456,-0.01430628,-0.08113191,0.02429349
1755650280932,-0.12586582,-0.21118426,0.24046847,-0.67425987,-0.13247625,-0.01331970,0.99618430,-0.01808213,-0.08187378,0.02421890
1755650280944,0.75813657,-0.40477517,0.71465824,-0.73363588,-0.13347721,-0.01309332,0.99603996,-0.02222718,-0.08262792,0.02414492
1755650280955,0.09891061,-0.57619369,0.22693272,-0.79944498,-0.16926754,-0.01905438,0.99585523,-0.02666410,-0.08356736,0.02403917
1755650280966,0.10843527,0.16027558,-0.18183428,-0.87605336,-0.20613275,-0.00294803,0.99562140,-0.03143859,-0.08469078,0.02402311
1755650280977,-0.54531560,0.22234278,-0.80185410,-0.71500079,-0.19452259,-0.01938292,0.99539416,-0.03547834,-0.08578984,0.02391359
1755650280988,0.01887202,0.39480710,-0.18234546,-0.66049182,-0.17286901,-0.00783986,0.99517258,-0.03917710,-0.08675790,0.02386969
1755650280999,-0.06351703,0.16696976,-0.08440596,-0.62821582,-0.17574927,-0.00116804,0.99493959,-0.04272651,-0.08775089,0.02386309
1755650281010,0.11113744,-0.24239607,0.10760981,-0.64080487,-0.17001927,-0.00767717,0.99469782,-0.04628298,-0.08869449,0.02382048
1755650281021,-0.05123467,-0.30205678,0.02129656,-0.68218808,-0.18461438,-0.00858838,0.99442874,-0.05000091,-0.08970064,0.02377367
1755650281033,-0.14190471,0.48512515,0.32560655,-0.66873445,-0.18100296,-0.03408212,0.99414335,-0.05377926,-0.09072331,0.02358111
1755650281044,0.10242600,-0.16704820,-0.15006438,-0.59958721,-0.17756933,-0.03436232,0.99387431,-0.05707699,-0.09169994,0.02339212
1755650281055,-0.13062021,0.68649828,0.04766504,-0.52268301,-0.17906798,-0.04967305,0.99361064,-0.06005628,-0.09272063,0.02310898
1755650281066,0.01207085,0.50241568,-0.18823186,-0.48534336,-0.18928186,-0.05630480,0.99335041,-0.06277420,-0.09378060,0.02279367
1755650281077,0.27283023,0.61635742,-0.07251781,-0.43835605,-0.18202242,-0.06291829,0.99310796,-0.06518516,-0.09478173,0.02244762
1755650281088,0.10741335,0.04813898,-0.00825039,-0.37999884,-0.16643181,-0.04254502,0.99288399,-0.06729415,-0.09570542,0.02221150
1755650281099,-0.23994728,0.22736939,0.12190870,-0.39446404,-0.17256269,-0.06084157,0.99264789,-0.06948343,-0.09666315,0.02187383
1755650281111,0.20511622,-0.15190211,0.40249220,-0.40852405,-0.15052232,-0.05473250,0.99241151,-0.07175074,-0.09749855,0.02157006
1755650281122,-0.22205169,-0.09065798,0.13177898,-0.43542210,-0.16383228,-0.05948938,0.99214881,-0.07418910,-0.09841601,0.02123692
1755650281133,0.07602633,-0.14492520,0.34021784,-0.46584165,-0.15628047,-0.05542384,0.99186967,-0.07679781,-0.09929118,0.02092655
1755650281144,-0.13904779,-0.08786808,0.72348734,-0.49879066,-0.17242983,-0.07562932,0.99156392,-0.07956610,-0.10024816,0.02050681
1755650281155,0.19862736,-0.06972077,0.48228777,-0.52235474,-0.14888901,-0.04381411,0.99124523,-0.08249129,-0.10108194,0.02026145
1755650281166,-0.22047636,-0.16488211,-0.04181448,-0.54501500,-0.16354146,-0.04503553,0.99089778,-0.08554337,-0.10199777,0.02000925
1755650281177,0.04913667,-0.43426518,-0.57022033,-0.60926435,-0.15503510,-0.02462210,0.99051383,-0.08892479,-0.10285822,0.01987260
1755650281189,0.04644141,-0.50650161,-0.21866163,-0.64204887,-0.15354458,-0.02207436,0.99010102,-0.09248816,-0.10371039,0.01975008
1755650281200,0.08514258,-0.79095523,0.42764797,-0.67015976,-0.13717210,-0.00746384,0.98966729,-0.09620755,-0.10447170,0.01970866
1755650281211,-0.15024808,0.32481981,0.48120768,-0.72853270,-0.13602279,-0.03264257,0.98918069,-0.10032376,-0.10524022,0.01952423
1755650281222,-0.04617366,-0.18487771,-0.32361665,-0.70785377,-0.14622768,-0.06758670,0.98869944,-0.10421695,-0.10604448,0.01915250
1755650281233,0.09808988,0.39822628,-0.01824233,-0.65842394,-0.13640938,-0.03966449,0.98823013,-0.10787121,-0.10680155,0.01893236
1755650281244,-0.25424301,-0.11985277,0.43269942,-0.60315776,-0.11463650,-0.05425377,0.98779176,-0.11124889,-0.10744351,0.01862854
1755650281255,-0.17508425,-0.24582518,-0.05566384,-0.62027072,-0.12615090,-0.07177951,0.98733320,-0.11466038,-0.10813734,0.01823375
1755650281267,0.03866734,0.17862425,0.23833541,-0.62846724,-0.11252170,-0.09349345,0.98685411,-0.11821122,-0.10877309,0.01770552
1755650281278,0.47581894,0.05450273,-0.64148051,-0.64921145,-0.13481272,-0.10598504,0.98634342,-0.12181434,-0.10952130,0.01711730
1755650281289,0.10395580,0.05662479,-0.04578765,-0.61950734,-0.14156495,-0.10908883,0.98582616,-0.12531456,-0.11032114,0.01650095
1755650281300,0.11421354,0.10529878,-0.10416972,-0.61069673,-0.16572656,-0.12447504,0.98530214,-0.12867339,-0.11123264,0.01581633
1755650281311,0.25851779,0.17710505,0.00057712,-0.55219525,-0.16940414,-0.10929535,0.98479083,-0.13179329,-0.11218977,0.01519882
1755650281322,0.01318580,0.23435615,0.04476322,-0.54340757,-0.19319520,-0.11706796,0.98426954,-0.13480921,-0.11326201,0.01454909
1755650281333,0.29887495,-0.06663762,-0.07314590,-0.52617556,-0.19520607,-0.11956566,0.98375888,-0.13767686,-0.11432588,0.01389746
1755650281344,-0.30316372,0.53926384,0.49356086,-0.53066681,-0.19755902,-0.10032587,0.98321693,-0.14064860,-0.11543221,0.01333563
1755650281356,-0.01900658,-0.06937403,-0.03801317,-0.48706934,-0.20145163,-0.10354861,0.98269743,-0.14337619,-0.11656034,0.01275576
1755650281367,0.05867374,0.23617218,-0.13626614,-0.47065971,-0.21675726,-0.10811392,0.98217689,-0.14598835,-0.11776334,0.01215573
1755650281378,0.42081602,0.28053974,-0.74115400,-0.41948907,-0.21432667,-0.12748475,0.98168872,-0.14833749,-0.11896357,0.01144181
1755650281389,0.01900658,0.03088570,-0.23568163,-0.38319087,-0.22299766,-0.13211060,0.98121823,-0.15048335,-0.12021236,0.01070199
1755650281400,0.21413498,0.04617361,-0.13089290,-0.37742716,-0.23030337,-0.13214794,0.98074492,-0.15257808,-0.12149054,0.00996857
1755650281411,0.20124610,-0.20753504,0.12190870,-0.37770513,-0.23163840,-0.14700451,0.98026430,-0.15467434,-0.12277613,0.00915270
1755650281423,0.07489621,-0.27723071,0.15525468,-0.41579314,-0.23444648,-0.13308882,0.97973535,-0.15700278,-0.12408904,0.00840740
1755650281434,-0.07508637,-0.85049213,0.49277630,-0.42373543,-0.24875775,-0.12337075,0.97919030,-0.15933333,-0.12545720,0.00772886
1755650281445,-0.43368846,0.21136559,1.29285992,-0.52395313,-0.22124998,-0.10796535,0.97854184,-0.16231986,-0.12671833,0.00711346
1755650281456,-0.15348390,0.10310904,0.03349683,-0.57855138,-0.25163694,-0.14936401,0.97783400,-0.16550189,-0.12810233,0.00629196
1755650281467,0.17339533,-0.09310147,-0.31526424,-0.50200731,-0.25031513,-0.13482286,0.97718573,-0.16826293,-0.12947906,0.00555043
1755650281478,0.58656209,0.88210071,-0.75732301,-0.43544680,-0.22899098,-0.12345291,0.97659024,-0.17072321,-0.13077286,0.00485292
1755650281490,-0.00114376,0.16273756,-0.29344146,-0.37810074,-0.23978077,-0.12584298,0.97604016,-0.17284057,-0.13211564,0.00414820
1755650281501,0.33257562,0.03698901,0.02653005,-0.38990665,-0.23063217,-0.12123178,0.97548797,-0.17498506,-0.13338411,0.00348143
1755650281512,0.15993176,0.14756020,0.24193652,-0.38833897,-0.22611882,-0.16772989,0.97492422,-0.17715975,-0.13465038,0.00254214
1755650281523,0.14445003,-0.31218313,-0.07412567,-0.37767792,-0.25912263,-0.18674877,0.97433809,-0.17927475,-0.13610146,0.00149634
1755650281534,0.28320966,0.06875937,0.05252302,-0.36438216,-0.29696140,-0.19971047,0.97373316,-0.18129707,-0.13774960,0.00038795
1755650281545,0.32752966,0.24498801,0.55235528,-0.33348436,-0.32375359,-0.19944409,0.97312511,-0.18316458,-0.13956262,-0.00072894
1755650281556,0.22047636,0.55784322,0.31740994,-0.35162316,-0.34932981,-0.16994908,0.97246856,-0.18513367,-0.14151887,-0.00168065
1755650281568,0.24531498,0.29999363,-0.03951359,-0.34184189,-0.37663508,-0.15554915,0.97180307,-0.18701380,-0.14359036,-0.00253617
1755650281579,0.12669578,0.44993637,-0.75596507,-0.26422878,-0.37370598,-0.17143853,0.97119716,-0.18850670,-0.14570180,-0.00350480
1755650281590,0.34588617,0.72727093,-0.25904459,-0.21065680,-0.39875691,-0.16288172,0.97062601,-0.18968637,-0.14793484,-0.00441694
1755650281601,0.60139468,0.37361979,-0.30544742,-0.11262944,-0.42973732,-0.14952364,0.97013743,-0.19030584,-0.15029839,-0.00523932
1755650281612,-0.06517668,0.16487633,0.03242156,-0.05536969,-0.44957076,-0.11867338,0.96967108,-0.19062144,-0.15286095,-0.00591575
1755650281623,0.35258806,0.47981817,0.14263419,-0.06990998,-0.48533277,-0.13945745,0.96916120,-0.19100944,-0.15555454,-0.00668974
1755650281634,0.19550168,0.02379592,0.16616015,-0.07527693,-0.51918390,-0.13616655,0.96861641,-0.19141970,-0.15838410,-0.00743185
1755650281645,-0.18423889,-1.08958449,0.25674145,-0.09001887,-0.52778552,-0.12197607,0.96802853,-0.19191931,-0.16131331,-0.00810882
1755650281657,0.10176902,-0.06148615,0.12750565,-0.09862481,-0.50091957,-0.11199861,0.96743645,-0.19247654,-0.16414350,-0.00874161
1755650281668,0.18657784,-0.14158119,-0.13126710,-0.11752987,-0.52091239,-0.12116000,0.96681082,-0.19312295,-0.16700852,-0.00940799
1755650281679,-0.00414689,0.80722687,-0.20851950,-0.12686258,-0.49558112,-0.11394867,0.96617864,-0.19383338,-0.16978377,-0.01004610
1755650281690,0.14526762,-0.40019432,-0.02346259,-0.14121495,-0.49012226,-0.11739566,0.96553204,-0.19461713,-0.17250395,-0.01069765
1755650281701,0.01548047,-0.18818446,-0.14706446,-0.18645555,-0.48799059,-0.12056519,0.96482732,-0.19565195,-0.17521230,-0.01136678
1755650281712,-0.21218421,-0.47313344,0.22935878,-0.20484319,-0.45927847,-0.11688583,0.96410893,-0.19680932,-0.17780722,-0.01202719
1755650281724,-0.01745914,-0.23006376,0.06494196,-0.25339338,-0.45653068,-0.14052473,0.96333288,-0.19822832,-0.18036379,-0.01281413
1755650281735,-0.08372584,-0.24454304,-0.06487630,-0.26264733,-0.46489252,-0.14517877,0.96253390,-0.19968601,-0.18294395,-0.01361987
1755650281746,0.10958751,0.58542845,0.29617736,-0.25204973,-0.45057849,-0.14004293,0.96174541,-0.20109749,-0.18546719,-0.01440411
1755650281757,0.26347083,-0.04340161,-0.21058666,-0.20007248,-0.45371185,-0.13705286,0.96101837,-0.20219789,-0.18796260,-0.01515790
1755650281768,-0.05819249,0.21085103,-0.22367519,-0.17118905,-0.43821786,-0.13159876,0.96032719,-0.20314799,-0.19039471,-0.01588827
1755650281779,-0.19729176,-0.21908512,-0.46860645,-0.15928087,-0.41353203,-0.13126045,0.95966350,-0.20403996,-0.19271049,-0.01662333
1755650281790,-0.08362897,0.31883543,-0.03041053,-0.12855539,-0.40389156,-0.10733501,0.95904250,-0.20475987,-0.19497228,-0.01722441
1755650281802,0.24228901,1.83094280,-0.45632387,-0.04301864,-0.42379478,-0.07868900,0.95850724,-0.20499648,-0.19730316,-0.01765720
1755650281813,-0.00807204,0.80631130,-0.51624337,0.16814921,-0.44072797,-0.04364328,0.95818668,-0.20403803,-0.19981530,-0.01790597
1755650281824,0.34963455,1.09160224,-0.42591660,0.32386650,-0.46404785,-0.04066421,0.95802295,-0.20224057,-0.20239077,-0.01813165
1755650281835,-0.05031152,0.51037173,0.47021926,0.35396428,-0.45615682,-0.03432759,0.95789383,-0.20027606,-0.20492244,-0.01832217
1755650281846,0.09675293,-0.52778725,1.08556792,0.31343508,-0.46238927,-0.00954099,0.95770249,-0.19853650,-0.20748870,-0.01837512
1755650281857,-0.19737598,1.33277166,0.44893361,0.32244094,-0.45645750,-0.03977926,0.95751531,-0.19674695,-0.21002204,-0.01859590
1755650281868,0.11223340,0.66759524,-0.53601125,0.44788503,-0.45836611,0.01471983,0.95746307,-0.19426119,-0.21256597,-0.01851420
1755650281880,-0.51163745,1.33370407,-0.67773123,0.54837691,-0.43588298,0.04298270,0.95754142,-0.19116286,-0.21502871,-0.01827135
1755650281891,-0.11384310,0.87387164,0.30873604,0.60594210,-0.45800633,0.01080123,0.95763384,-0.18779988,-0.21757065,-0.01821140
1755650281902,0.13932422,0.74015994,0.27671339,0.65064928,-0.51046267,-0.04241863,0.95768283,-0.18418878,-0.22040371,-0.01844683
1755650281913,0.53465005,1.15856682,0.40864154,0.72808290,-0.55178825,-0.01266448,0.95774083,-0.18011152,-0.22349373,-0.01851775
1755650281924,0.68803831,1.48821546,-0.32311191,0.86835178,-0.62270901,0.06030046,0.95782933,-0.17524875,-0.22698090,-0.01818007
1755650281935,0.86085433,2.23836729,0.07645861,1.09062455,-0.70093193,0.13888125,0.95800091,-0.16925031,-0.23083602,-0.01741622
1755650281947,0.92154628,0.82866784,1.30249966,1.27992756,-0.76581331,0.18278122,0.95821864,-0.16195472,-0.23520116,-0.01637437
1755650281958,1.11780530,1.72143953,1.20771783,1.38800326,-0.92813007,0.15175758,0.95822582,-0.15432071,-0.24030588,-0.01553970
1755650281969,1.22558972,1.10588783,1.50144593,1.37762776,-1.11968005,0.14887739,0.95786482,-0.14674375,-0.24646412,-0.01472087
1755650281980,1.41547208,0.41498283,0.56076332,1.41561377,-1.33125352,0.20733945,0.95711610,-0.13881632,-0.25391914,-0.01355977
1755650281991,2.45033715,0.99153616,1.72436188,1.51439560,-1.60144715,0.33024027,0.95592245,-0.13041142,-0.26280717,-0.01172694
1755650282002,2.06664266,0.14464564,1.93118856,1.54545133,-1.86465982,0.52084790,0.95418245,-0.12183417,-0.27315603,-0.00883623
1755650282013,1.44200035,0.60356175,2.13988442,1.43998073,-2.10016621,0.61431452,0.95176128,-0.11377027,-0.28491696,-0.00539607
1755650282024,1.55853982,-0.27749611,2.04320769,1.48095583,-2.42534281,0.63224618,0.94856186,-0.10547692,-0.29849888,-0.00185549
1755650282035,2.01142805,0.55852086,2.52718064,1.47592363,-2.71843752,0.61082504,0.94459929,-0.09735934,-0.31345029,0.00150404
1755650282047,2.84075848,-0.99187582,4.08662272,1.44578788,-2.91171884,0.63459590,0.93982317,-0.08926293,-0.32975591,0.00505778
1755650282058,1.37009065,-0.54492202,2.61937835,1.28821032,-3.14730939,0.67699804,0.93413893,-0.08211336,-0.34722348,0.00881512
1755650282069,0.71597171,-1.49628412,2.38205723,1.12792784,-3.27116870,0.68857188,0.92767729,-0.07585336,-0.36537847,0.01263669
1755650282080,-1.53145116,-1.51414404,0.11607714,0.92084731,-3.29746962,0.61859467,0.92054674,-0.07069662,-0.38384429,0.01610083
1755650282091,0.22047636,-1.44307483,1.70869183,0.76313282,-3.31768296,0.57095704,0.91283680,-0.06642307,-0.40242332,0.01929818
1755650282102,0.12544345,-1.49581809,1.37797728,0.68422653,-3.35864273,0.49934726,0.90452086,-0.06259140,-0.42123172,0.02209453
1755650282113,0.00421566,-1.44070301,1.46478758,0.58753244,-3.38846591,0.39826983,0.89568743,-0.05933060,-0.44003770,0.02430493
1755650282125,-0.33670021,-1.49918671,1.33712554,0.46379121,-3.35545713,0.29097741,0.88641830,-0.05675656,-0.45866049,0.02591985
1755650282136,-0.17802540,-1.30471331,1.37002154,0.37564231,-3.31872977,0.21273970,0.87673928,-0.05467174,-0.47707944,0.02710056
1755650282147,0.26266755,-0.58437966,1.42664098,0.32753545,-3.28000905,0.10520405,0.86658713,-0.05283754,-0.49544749,0.02768970
1755650282158,-0.44855536,-1.12138841,0.78307123,0.25753959,-3.21618829,0.02887706,0.85612122,-0.05139532,-0.51345815,0.02785141
1755650282169,-1.20045514,-1.18182098,-0.22737762,0.13570266,-3.12391915,-0.00611464,0.84533245,-0.05062860,-0.53110829,0.02781686
1755650282180,-0.81682443,-1.47516227,0.79625998,0.09760031,-3.09691925,-0.05680652,0.83453249,-0.05009668,-0.54798650,0.02750727
1755650282192,-1.45324682,-0.48900175,-0.74244118,0.11732473,-2.96179619,-0.10340321,0.82356223,-0.04944553,-0.56442447,0.02693338
1755650282203,-0.44615813,-0.03578289,-0.11381690,0.07776791,-2.83506131,-0.13277406,0.81250420,-0.04901003,-0.58030081,0.02618985
1755650282214,-0.73365411,-0.08030281,0.88000480,0.01988539,-2.71203165,-0.04141726,0.80145426,-0.04889867,-0.59548819,0.02595791
1755650282225,-0.46376063,-0.46613645,-0.33261521,0.06048902,-2.66458566,-0.01942975,0.79017311,-0.04855993,-0.61040987,0.02584910
1755650282236,-0.62651730,-0.54839616,0.87454159,0.03029764,-2.60436462,-0.06064267,0.77891889,-0.04839329,-0.62473387,0.02551557
1755650282247,-0.97164573,0.69892120,0.96955235,-0.10552376,-2.46806169,-0.11691778,0.76771595,-0.04897895,-0.63843162,0.02486667
1755650282258,-1.34491267,-1.00129591,-0.16624767,-0.12276428,-2.38801627,-0.11988576,0.75637207,-0.04966643,-0.65180451,0.02419531
1755650282269,-0.92634023,0.05101126,0.42704326,-0.11915192,-2.35396497,-0.19645714,0.74490434,-0.05032772,-0.66486901,0.02310498
1755650282281,-1.38172723,-0.80796814,-0.41942906,-0.05188611,-2.30586948,-0.17376690,0.73318462,-0.05061829,-0.67778188,0.02213188
1755650282292,-0.78307122,0.65952844,0.44475405,0.01329884,-2.27323568,-0.17750040,0.72124315,-0.05054381,-0.69051200,0.02113788
1755650282303,-0.22486636,0.06978034,1.51179581,0.05016860,-2.32835784,-0.17713908,0.70915423,-0.05027541,-0.70296872,0.02019019
1755650282314,-1.71624117,0.35338034,-1.79972803,0.02349575,-2.12401124,-0.16037720,0.69719728,-0.05014384,-0.71486318,0.01929207
1755650282325,-0.82488571,0.75171036,-0.60631000,0.06955237,-2.02938915,-0.10805514,0.68539663,-0.04975434,-0.72622776,0.01868696
1755650282336,-0.43405130,0.56464317,-0.07181410,0.12897292,-1.97293528,0.01776623,0.67376288,-0.04904499,-0.73707890,0.01878468
1755650282347,-0.98398809,0.52881498,-0.78856586,0.19743418,-1.82009292,0.09304507,0.66250625,-0.04793936,-0.74727142,0.01930573
1755650282358,-0.39623782,0.95300776,-0.31301302,0.23247671,-1.76155780,0.02171728,0.65140210,-0.04664911,-0.75704807,0.01942626
1755650282369,-1.14683326,-0.41611575,-0.91950767,0.20684168,-1.66411955,0.00308250,0.64049508,-0.04549080,-0.76636714,0.01944352
1755650282381,-1.08337524,-0.42907361,-1.04916339,0.13670810,-1.57432884,0.01780850,0.62984795,-0.04472524,-0.77518338,0.01954325
1755650282392,-1.08717656,-0.82916219,-1.42169242,0.11713454,-1.47084066,0.03626411,0.61961355,-0.04406928,-0.78342009,0.01974633
1755650282403,-0.45318383,-0.30947981,-1.14776623,0.09212945,-1.38963492,0.02862656,0.60976697,-0.04355796,-0.79113256,0.01990521
1755650282414,-0.43732326,-0.40152467,-1.35454107,0.02888399,-1.28311041,0.01647241,0.60042286,-0.04339766,-0.79825382,0.01999663
1755650282425,-0.56260607,-0.22128454,-2.00611135,0.00248998,-1.16488656,0.01049761,0.59157041,-0.04338359,-0.80483543,0.02005594
1755650282437,-0.06582624,-0.18060690,-0.79453852,0.02922353,-1.07590076,0.01956434,0.58336766,-0.04322140,-0.81080668,0.02016452
1755650282448,-0.45745935,0.54764216,-1.08717656,0.07007921,-1.01682496,0.01539181,0.57539714,-0.04282895,-0.81650090,0.02025072
1755650282459,-0.20407958,0.10873043,-0.39302424,0.09244842,-0.98048313,0.07575254,0.56762000,-0.04231587,-0.82194258,0.02067114
1755650282470,-0.45917165,-0.08827787,-0.93714441,0.07057974,-0.94589433,0.09392930,0.55988213,-0.04192062,-0.82723959,0.02119715
1755650282481,-0.45390948,-0.40726938,-0.61020002,0.04023211,-0.91703793,0.06354262,0.55229079,-0.04169733,-0.83232915,0.02154981
1755650282492,-0.38954827,-0.40754709,-1.28020384,-0.02312578,-0.85676175,0.03059650,0.54490841,-0.04182799,-0.83716986,0.02172268
1755650282503,-0.25361256,0.09947572,-0.58147657,-0.09295039,-0.80839168,-0.00032172,0.53791231,-0.04234387,-0.84165643,0.02172089
1755650282515,-0.08901270,0.52923855,-0.88238675,-0.03325271,-0.76478810,0.05619580,0.53118488,-0.04252842,-0.84590100,0.02203278
1755650282526,-0.01548047,0.80208182,-0.20124610,0.01207783,-0.74023799,0.13689174,0.52455856,-0.04246139,-0.85000933,0.02279253
1755650282537,-0.39862209,0.29799904,-0.36379103,0.02899493,-0.72485728,0.20927379,0.51794376,-0.04230047,-0.85403228,0.02395400
1755650282548,-0.56629344,0.15062289,-0.53276651,0.01363439,-0.70538317,0.19326658,0.51132813,-0.04222411,-0.85798243,0.02503629
1755650282559,-0.52206152,-0.58232333,-0.57899820,-0.01812209,-0.67322857,0.18734767,0.50477078,-0.04232741,-0.86181983,0.02610417
1755650282570,-0.36027235,0.26837214,-0.16523718,-0.03872909,-0.67880085,0.08305394,0.49829953,-0.04254042,-0.86555324,0.02656097
1755650282581,-0.04609960,-0.35699547,-0.65866450,-0.01791261,-0.65416114,0.06517764,0.49185300,-0.04264073,-0.86921654,0.02692597
1755650282593,-0.16345662,0.16915859,-0.23948295,-0.02741215,-0.63089906,0.04459274,0.48552890,-0.04279424,-0.87274957,0.02717568
1755650282604,0.18146496,-0.16386135,-0.18028242,-0.02152060,-0.62745361,0.05388969,0.47930322,-0.04291152,-0.87616920,0.02746938
1755650282615,0.07913826,-0.15623159,-1.03862660,0.01056800,-0.56842424,0.02373034,0.47332989,-0.04285129,-0.87940921,0.02760465
1755650282626,-0.10130175,-0.01839804,-0.34111815,-0.00305238,-0.55312449,0.02797573,0.46751847,-0.04286838,-0.88250671,0.02776131
1755650282637,0.05744240,-0.42422898,0.13240778,0.04101602,-0.54364173,0.04752722,0.46188737,-0.04264484,-0.88546956,0.02802033
1755650282648,-0.31844622,0.08255363,-0.96917968,0.07661091,-0.51673465,0.02981900,0.45627659,-0.04221199,-0.88838911,0.02818881
1755650282660,-0.65453290,-0.30429456,0.15713230,0.09730120,-0.51341662,0.05606306,0.45066561,-0.04166710,-0.89126424,0.02850276
1755650282671,-0.16725793,0.08505446,-0.72225016,0.07414288,-0.50715948,0.00933521,0.44503969,-0.04125190,-0.89410434,0.02855504
1755650282682,0.06683099,-0.64543867,-0.42933090,0.02921457,-0.49591652,-0.02196440,0.43959059,-0.04109268,-0.89680708,0.02843534
1755650282693,0.39871975,-0.31220057,-1.39159576,-0.01258983,-0.44883496,-0.07082349,0.43444443,-0.04116319,-0.89932056,0.02803872
1755650282704,0.19766846,-0.43857691,-0.90851467,-0.04615587,-0.42030220,-0.10884826,0.42955260,-0.04142166,-0.90167425,0.02742917
1755650282715,0.14488752,0.07138984,-0.60131948,-0.07948798,-0.38991803,-0.11986097,0.42497945,-0.04186282,-0.90383829,0.02676395
1755650282727,0.34737519,0.36200204,-0.96378519,-0.04435854,-0.35194840,-0.08713505,0.42069255,-0.04211566,-0.90584440,0.02626728
1755650282738,0.17505462,0.45186146,-0.31650870,-0.00750173,-0.33550845,-0.05988427,0.41671265,-0.04215692,-0.90768970,0.02593791
1755650282749,-0.09510203,0.20036394,-0.18771593,-0.01018873,-0.29895377,-0.03011895,0.41305125,-0.04221398,-0.90936384,0.02576925
1755650282760,0.23081846,-0.19661792,-0.98323034,-0.04532948,-0.26669215,-0.06158261,0.40980202,-0.04246329,-0.91083064,0.02543054
1755650282771,0.49935478,-0.47640001,-1.30751469,-0.06290348,-0.21762096,-0.06061778,0.40706670,-0.04281555,-0.91204932,0.02509108
1755650282782,0.78158533,0.11800929,-1.88526585,-0.06334432,-0.16993422,-0.05953931,0.40487203,-0.04317661,-0.91301795,0.02475171
1755650282793,0.70154279,0.08931231,-0.74843670,0.00190044,-0.13486530,-0.03029292,0.40322165,-0.04316626,-0.91375296,0.02458661
1755650282804,0.36794519,0.13377203,-1.12382527,0.02512939,-0.09397956,-0.01477452,0.40205754,-0.04302679,-0.91427455,0.02450461
1755650282816,0.25528044,-0.07910229,-1.15448125,0.00519787,-0.04688018,-0.01379452,0.40146258,-0.04299742,-0.91453942,0.02442667
1755650282827,0.48438193,-0.24935207,-1.08398076,-0.01797504,-0.00163372,-0.02990234,0.40144110,-0.04309808,-0.91454857,0.02425922
1755650282838,0.75266069,-0.05701975,-0.99214364,-0.03963341,0.05386006,-0.06380618,0.40212508,-0.04332003,-0.91424695,0.02390191
1755650282849,1.05008032,-0.23729953,-0.60387652,-0.03844986,0.12220023,-0.00700399,0.40364285,-0.04353342,-0.91356874,0.02386303
1755650282860,0.56503713,0.72322818,-1.19973638,0.01129421,0.19355076,0.07821484,0.40604638,-0.04347074,-0.91249454,0.02429713
1755650282871,0.51663660,0.84982115,-1.65268234,0.13966587,0.25176244,0.17060905,0.40922454,-0.04268861,-0.91108467,0.02525254
1755650282883,0.24328426,0.81015561,-1.85124120,0.26079239,0.31546004,0.21347389,0.41320861,-0.04122817,-0.90931809,0.02644799
1755650282894,0.51920079,-0.10471276,-1.45387481,0.26748422,0.38875993,0.18433130,0.41795913,-0.03975701,-0.90717991,0.02746181
1755650282905,0.17430765,-0.23594945,-1.34704838,0.22628015,0.44783233,0.11793124,0.42343377,-0.03848984,-0.90467205,0.02812223
1755650282916,0.63269508,0.20238209,-1.71052276,0.20250172,0.54688783,0.08377512,0.42992743,-0.03736596,-0.90163682,0.02858718
1755650282927,1.04553330,0.27696530,-1.50165705,0.20516772,0.66290207,0.13276928,0.43767511,-0.03621702,-0.89792457,0.02933069
1755650282938,1.12996958,0.51565490,-1.45082225,0.21190834,0.77265818,0.17915909,0.44654803,-0.03501974,-0.89355905,0.03034294
1755650282950,1.60291356,0.61060520,-2.30991207,0.25220880,0.91797075,0.16984588,0.45664217,-0.03361998,-0.88846431,0.03128558
1755650282961,0.51766399,-0.38700657,-1.61819652,0.28002278,1.05119419,0.16692401,0.46796502,-0.03205185,-0.88257763,0.03222036
1755650282972,-0.02660922,-0.34164333,-2.31120051,0.29274091,1.17601596,0.08751302,0.48025330,-0.03041250,-0.87599194,0.03271043
1755650282983,-0.16086023,-0.47041045,-2.58709400,0.23525681,1.34408210,0.02658804,0.49344719,-0.02913035,-0.86866669,0.03285533
1755650282994,-0.16053772,-0.18612342,-2.03080214,0.15545217,1.48242411,0.02174512,0.50744653,-0.02828314,-0.86058748,0.03297384
1755650283005,0.11237640,-0.04414787,-2.10705755,0.14143124,1.66711550,0.05075956,0.52257280,-0.02751234,-0.85150170,0.03325048
1755650283016,-0.29409341,0.44703406,-1.91254808,0.14402608,1.82650580,0.05976205,0.53876180,-0.02671299,-0.84136459,0.03358216
1755650283027,-0.15867481,0.12384375,-2.56588780,0.17001113,2.01546050,0.04360362,0.55587323,-0.02576943,-0.83017879,0.03382416
1755650283038,0.21879831,-0.07678403,-1.22275685,0.25202526,2.18477395,0.00649944,0.57378365,-0.02435809,-0.81794405,0.03386056
1755650283049,0.56099424,-0.53787288,-0.91801257,0.32559240,2.36384501,-0.04784280,0.59213175,-0.02255105,-0.80482471,0.03359503
1755650283060,-1.20981183,-0.43911628,-1.19991470,0.31978275,2.50117013,-0.12194805,0.61081294,-0.02076027,-0.79081816,0.03291212
1755650283071,-2.33752950,-0.51734474,-3.28001475,0.32250405,2.67768260,-0.14200665,0.62951570,-0.01898650,-0.77609091,0.03213109
1755650283083,-3.24389094,-0.27809330,-0.89559569,0.31456973,2.75030230,-0.14866985,0.64845662,-0.01719345,-0.76041418,0.03128367
1755650283094,-1.35912411,0.34059579,-2.23153003,0.33193392,2.97258589,-0.14063033,0.66739972,-0.01535122,-0.74391633,0.03050317
1755650283105,-1.76477351,0.32460609,-1.14942486,0.37605798,3.12363734,-0.13315437,0.68630857,-0.01326409,-0.72658014,0.02976416
1755650283116,-1.68272286,0.12679800,-1.29943540,0.38838728,3.29011142,-0.12536476,0.70503936,-0.01112796,-0.70848453,0.02907466
1755650283127,-1.87359417,-0.20257426,-0.20613652,0.38633215,3.37481496,-0.09583766,0.72342491,-0.00898382,-0.68975431,0.02854276
1755650283138,-1.26871511,0.14398771,0.39425817,0.36690835,3.44397806,-0.09725516,0.74137758,-0.00692913,-0.67046803,0.02799813
1755650283150,-0.82868703,0.68613765,0.14445004,0.31868776,3.51708806,-0.11422842,0.75876242,-0.00514448,-0.65077234,0.02735845
1755650283161,-2.01508737,-0.53538623,-0.15921548,0.28373916,3.67275146,-0.06615508,0.77565272,-0.00358392,-0.63057220,0.02699460
1755650283172,-2.75050702,-0.50510267,1.52717302,0.26133970,3.61187412,-0.08043224,0.79182682,-0.00210735,-0.61016512,0.02654016
1755650283183,-3.08794742,-0.48793936,0.60935442,0.22981772,3.67490432,-0.14737331,0.80729600,-0.00082037,-0.58958565,0.02571487
1755650283194,-2.10509250,-0.21187094,0.36438353,0.25054837,3.74691722,-0.15877268,0.82197753,0.00055765,-0.56897761,0.02484162
1755650283205,-1.23964391,0.15772008,1.92291330,0.24306309,3.66382307,-0.19760340,0.83583753,0.00191880,-0.54846020,0.02373504
1755650283216,-1.45267619,0.31106068,1.20782216,0.24000458,3.64451996,-0.21596974,0.84879404,0.00325083,-0.52823311,0.02253640
1755650283228,-0.78786568,-0.05169448,1.78509487,0.25318968,3.56538853,-0.17544106,0.86091716,0.00466869,-0.50826694,0.02155393
1755650283239,-0.70704489,0.12829444,1.29434831,0.28295685,3.46263732,-0.16457879,0.87208675,0.00625325,-0.48887617,0.02063229
1755650283250,0.28155104,-0.71102176,2.62252282,0.25105285,3.40524054,-0.16059327,0.88242471,0.00764659,-0.46997708,0.01974100
1755650283261,0.03267078,-0.31693049,2.20955810,0.21251643,3.28938269,-0.13085642,0.89199624,0.00883668,-0.45155654,0.01900820
1755650283272,-0.12503352,-0.27635742,1.61910070,0.21314859,3.13321041,-0.10280779,0.90073881,0.01004097,-0.43385390,0.01842734
1755650283283,-2.46127053,0.64224411,-0.23654451,0.16780107,3.12725416,-0.12590872,0.90875428,0.01095549,-0.41681036,0.01774114
1755650283294,0.02022719,-0.21174467,2.31623987,0.08357025,2.94020092,-0.12841206,0.91613506,0.01142348,-0.40034524,0.01702203
1755650283306,0.15205267,-0.19529264,1.21642132,-0.00153644,2.82482162,-0.12636204,0.92289930,0.01141488,-0.38452624,0.01631440
1755650283317,-0.13172221,0.20603192,1.31786134,-0.02285711,2.72799003,-0.05781539,0.92906988,0.01128802,-0.36938589,0.01599353
1755650283328,0.59430675,-0.54631084,1.21797952,0.05011711,2.56426078,0.00695033,0.93464734,0.01156868,-0.35502603,0.01603245
1755650283339,0.58846516,-0.11249256,1.52076607,0.01534584,2.46488433,0.01725675,0.93972710,0.01165385,-0.34134593,0.01612822
1755650283350,1.63318952,-1.29261919,1.34486578,0.01051664,2.34763589,0.04308838,0.94435331,0.01171221,-0.32831655,0.01636737
1755650283361,0.33365971,0.09536681,1.11522411,0.00189639,2.21998599,0.03365232,0.94858072,0.01172283,-0.31588462,0.01655582
1755650283373,0.05971601,0.40093248,1.26877345,-0.05905904,2.10868570,0.02565242,0.95246694,0.01138915,-0.30397055,0.01670075
1755650283384,-1.30262719,1.23941741,0.38124653,-0.08224995,2.02717284,-0.00312943,0.95595913,0.01093677,-0.29282110,0.01668354
1755650283394,0.20192932,-0.09535123,0.49020138,-0.09756864,1.98003834,0.00939902,0.95911571,0.01041966,-0.28232690,0.01673336
1755650283405,1.14134576,-0.18889830,1.74038499,-0.11842900,1.79840606,0.02819881,0.96197618,0.00976830,-0.27243566,0.01688845
1755650283416,0.13267775,-0.33279074,0.55379026,-0.12157930,1.68177273,0.01969754,0.96450649,0.00911177,-0.26335409,0.01699482
1755650283428,1.63539704,0.12230572,2.15663066,-0.10577739,1.46048342,0.04095802,0.96687715,0.00847182,-0.25451817,0.01724261
1755650283438,-2.81700418,-0.28995936,-1.68260464,-0.11731152,1.71650332,0.05541247,0.96909573,0.00788526,-0.24593565,0.01751968
1755650283449,1.77430255,0.28099333,2.44743970,-0.10246093,1.47897640,0.05501122,0.97115889,0.00731148,-0.23765338,0.01782774
1755650283508,2.20275204,0.24444619,1.66846992,-0.01601287,0.27561199,0.01177570,0.97308357,0.00684551,-0.22963307,0.01817041
1755650283511,-562.84551492,-96.59203130,-376.52277610,-1.32982983,18.13654969,0.83750034,0.98019843,0.00445181,-0.19698728,0.01967791
1755650283536,78.27858679,13.47303065,52.82247746,-0.11616990,1.07833557,0.08137409,0.98275573,0.00302292,-0.18372376,0.02067881
1755650283554,0.16053719,0.03761231,0.11172460,-0.08836070,1.07906777,0.06198578,0.98452145,0.00222326,-0.17395819,0.02123978
1755650283592,2.10892358,0.24745134,1.24202874,-0.05428612,0.37041775,0.00860740,0.98574986,0.00118097,-0.16684617,0.02140505
1755650283594,-1236.76823245,-236.43092977,-623.32633469,-2.51672682,15.38134965,0.42380466,0.98762664,-0.00070658,-0.15531016,0.02172290
1755650283616,80.61192423,15.71914118,40.74691484,-0.12681362,0.73767143,0.02311658,0.98888275,-0.00212689,-0.14704824,0.02198181
1755650283632,0.85029082,0.57019780,0.32167670,-0.08490115,0.60681172,0.03371710,0.98958042,-0.00280186,-0.14222409,0.02224986
1755650283644,-1.65558800,0.42708271,-0.49208076,-0.07416329,0.65089403,0.02231658,0.99011142,-0.00323200,-0.13844890,0.02237929
1755650283656,1.41043827,-0.25183250,1.06719445,-0.06863743,0.57980563,0.06805267,0.99060019,-0.00366099,-0.13482512,0.02280462
1755650283669,-0.31433105,0.63552856,-0.18920898,-0.07088293,0.50570847,0.05309008,0.99101581,-0.00410401,-0.13166444,0.02313644
1755650283681,1.03740172,-0.76996125,0.46864941,-0.10761652,0.50023691,0.06912146,0.99140044,-0.00475509,-0.12863800,0.02355462
1755650283693,0.55659473,0.40905291,0.04673151,-0.11074062,0.41981823,0.04466050,0.99171939,-0.00543060,-0.12607711,0.02382705
1755650283705,1.24912602,-0.23557955,0.38400099,-0.08301649,0.33389958,0.03418542,0.99196018,-0.00592040,-0.12410711,0.02402874
1755650283717,0.12196316,-0.34693440,-0.06560442,-0.12022299,0.25355451,0.02425428,0.99213973,-0.00663573,-0.12259846,0.02417306
1755650283728,0.56534187,0.88496362,0.58327050,-0.17401595,0.21796287,-0.01820094,0.99229301,-0.00766242,-0.12131248,0.02406567
1755650283740,0.55902025,0.70879735,-0.36657937,-0.03319984,0.15613846,0.01847303,0.99240011,-0.00785664,-0.12039907,0.02417374
1755650283752,0.71820410,0.42363393,-0.05632240,0.08833946,0.08338620,0.07555269,0.99245314,-0.00733102,-0.11990292,0.02462328
1755650283763,0.15786644,0.62889430,0.35564671,0.14055309,0.07806150,0.13027326,0.99249299,-0.00654392,-0.11946577,0.02535281
1755650283775,0.30274131,-0.03534677,0.01988936,0.13586266,0.05857635,0.17474046,0.99251246,-0.00574913,-0.11912310,0.02637504
1755650283787,-0.03342615,-0.34902444,0.19997149,0.11159698,0.02919917,0.16233664,0.99251081,-0.00509070,-0.11895083,0.02733282
1755650283798,0.06157872,0.06332409,0.34520689,0.08029932,0.00007227,0.10991463,0.99249524,-0.00462095,-0.11895040,0.02797583
1755650283810,0.13405396,-0.30401416,0.14333719,0.07357413,-0.04754092,0.09016514,0.99244917,-0.00419422,-0.11922614,0.02849878
1755650283821,0.19700469,0.00667754,0.13277230,0.02500923,-0.09189365,0.09241830,0.99237485,-0.00405792,-0.11972696,0.02900246
1755650283833,0.29662888,0.10752877,0.03202135,-0.01802052,-0.11496020,0.08750475,0.99227795,-0.00416334,-0.12039948,0.02951437
1755650283844,0.03674606,-0.20101492,0.24479504,-0.00552343,-0.10471320,0.11596113,0.99218697,-0.00419427,-0.12098587,0.03016375
1755650283855,-0.06263569,-0.59693707,-0.06738081,0.00970650,-0.12901502,0.10791508,0.99208410,-0.00414186,-0.12168255,0.03074649
1755650283866,0.21403125,-0.24554990,-0.10681178,-0.02948110,-0.14911632,0.08630652,0.99196339,-0.00430990,-0.12253252,0.03123844
1755650283877,0.71620603,-0.64944661,0.11892545,-0.04500767,-0.15830197,0.10146676,0.99183314,-0.00456420,-0.12342692,0.03181172
1755650283889,-0.52646816,0.91618091,-0.09953671,-0.10205317,-0.17377839,0.06653093,0.99169429,-0.00514590,-0.12441746,0.03219095
1755650283900,0.82281833,-1.62134491,0.12270917,-0.15044650,-0.17215590,0.03760803,0.99156127,-0.00598840,-0.12538153,0.03240156
1755650283911,0.05914919,-0.38297766,-0.03614302,-0.14716483,-0.16414552,0.02786535,0.99143303,-0.00681988,-0.12630895,0.03255899
1755650283923,0.05551946,-0.30799339,-0.09621777,-0.17256473,-0.16665009,0.03072897,0.99129734,-0.00781213,-0.12726719,0.03273569
1755650283934,0.17408069,-0.25505990,-0.00471183,-0.23518661,-0.15955673,0.00830956,0.99117173,-0.00910565,-0.12814475,0.03278139
1755650283945,0.35659499,0.28445868,0.24254502,-0.22975534,-0.17571066,-0.01455348,0.99103281,-0.01040377,-0.12913752,0.03269916
1755650283956,0.32488709,-0.00560150,0.13630321,-0.28012832,-0.20992434,-0.00291827,0.99086020,-0.01198650,-0.13032359,0.03268267
1755650283967,1.09099635,0.35781461,0.16446286,-0.21493555,-0.23600970,0.00724708,0.99067056,-0.01317939,-0.13163345,0.03272289
1755650283979,-0.58438772,-0.03047717,-0.64050442,-0.11926788,-0.27658560,0.04182558,0.99044865,-0.01384133,-0.13316850,0.03295503
1755650283990,0.11852306,-0.35561965,0.10725278,-0.08576587,-0.29980045,0.03426203,0.99020608,-0.01432590,-0.13486237,0.03314861
1755650284001,-0.00455509,-0.10770828,0.41328058,-0.10644220,-0.34102523,0.02638262,0.98993282,-0.01491666,-0.13675506,0.03329503
1755650284012,0.18891908,-0.14813712,0.45097285,-0.11981588,-0.35274558,0.01240945,0.98963748,-0.01560560,-0.13878335,0.03336638
1755650284023,0.04470626,-0.10541395,0.19329090,-0.14985055,-0.41631838,0.00574902,0.98930236,-0.01642228,-0.14105228,0.03339772
1755650284035,0.17239606,-0.13702266,0.47784063,-0.17726242,-0.43432733,-0.00284391,0.98893278,-0.01742382,-0.14350623,0.03338165
1755650284046,-0.66362424,0.05190177,0.56965527,-0.23447956,-0.47035335,-0.02993251,0.98853590,-0.01871345,-0.14609317,0.03321702
1755650284057,-0.05577568,-0.02209083,0.20084775,-0.27061086,-0.47617031,-0.00171868,0.98810860,-0.02022887,-0.14875973,0.03320740
1755650284068,-0.01900658,-0.19101616,-0.09693357,-0.27534986,-0.47854018,-0.00986137,0.98767050,-0.02177083,-0.15143955,0.03315217
1755650284079,0.89041367,-0.02223577,-0.01156424,-0.32551799,-0.46742484,0.02485071,0.98721088,-0.02362629,-0.15410387,0.03329382
1755650284091,0.11096471,-0.56389779,0.07169496,-0.36386412,-0.47047097,0.02291407,0.98674927,-0.02562754,-0.15669146,0.03341985
1755650284102,0.34937556,-0.61952822,0.07060082,-0.41013359,-0.45851980,0.06092189,0.98626413,-0.02792429,-0.15925918,0.03376101
1755650284113,-0.27749611,-0.03421185,0.24518492,-0.50584459,-0.45420357,0.02491691,0.98576094,-0.03075702,-0.16180272,0.03390055
1755650284124,0.01900658,-0.88903293,0.04181448,-0.57848370,-0.46025572,0.01207956,0.98522564,-0.03399653,-0.16438015,0.03396819
1755650284135,-0.08125512,-0.55404436,-0.11223009,-0.65799091,-0.46476227,-0.01209785,0.98465091,-0.03771417,-0.16700605,0.03389984
1755650284147,-0.63805563,-0.36387237,0.61176966,-0.64137468,-0.42857279,-0.11996726,0.98412439,-0.04127380,-0.16938463,0.03323402
1755650284158,0.10062305,0.00290259,-0.35218068,-0.58176192,-0.42108182,-0.11676218,0.98360020,-0.04450258,-0.17172164,0.03258599
1755650284169,0.05962245,0.93526944,-0.16114500,-0.54723233,-0.40172102,-0.14146625,0.98308724,-0.04756708,-0.17397127,0.03179378
1755650284180,0.52838301,0.23378097,-0.65952844,-0.48958630,-0.38564732,-0.13811649,0.98259080,-0.05030877,-0.17613090,0.03102033
1755650284191,0.00860231,0.09211636,-0.33035522,-0.51248703,-0.36823364,-0.12701794,0.98208540,-0.05320432,-0.17821142,0.03030268
1755650284202,0.07134030,-0.67203903,0.23748136,-0.55044764,-0.33792548,-0.12492851,0.98159405,-0.05625930,-0.18008691,0.02960932
1755650284214,-0.41295191,-0.26706827,-0.01960328,-0.59420697,-0.33940584,-0.18520305,0.98106370,-0.05967599,-0.18203849,0.02854440
1755650284225,-0.14409632,-0.87697858,0.16328631,-0.69017276,-0.36500552,-0.22082697,0.98048532,-0.06347194,-0.18404602,0.02732986
1755650284236,0.19135971,-0.15458920,-0.18988203,-0.69541275,-0.37627088,-0.21703188,0.97986629,-0.06733148,-0.18613432,0.02612533
1755650284248,0.16655281,1.22993122,0.16439787,-0.59169911,-0.38951036,-0.17368666,0.97921884,-0.07076334,-0.18839348,0.02511795
1755650284258,0.91672344,0.39087266,-0.57163056,-0.46840208,-0.42454111,-0.14318755,0.97860838,-0.07329271,-0.19068601,0.02434473
1755650284269,-0.12169369,0.92056385,-0.53090485,-0.36964924,-0.45595559,-0.08946453,0.97796823,-0.07534426,-0.19321656,0.02384821
1755650284281,0.43639800,0.05947263,-0.38770005,-0.28852894,-0.44113046,-0.03028093,0.97735516,-0.07696003,-0.19568689,0.02367863
1755650284292,-0.59900432,-0.22400464,0.36797214,-0.33548629,-0.47419380,-0.06394865,0.97668460,-0.07882197,-0.19831867,0.02332372
1755650284304,-0.75562623,0.00115472,0.24225733,-0.37503722,-0.46103004,-0.14924228,0.97592482,-0.08116596,-0.20120010,0.02239095
1755650284314,0.84503917,-1.95707471,0.11917635,-0.58511021,-0.58453717,-0.17665097,0.97511503,-0.08400374,-0.20403511,0.02153420
1755650284325,-0.38864026,0.57212794,-0.01505283,-0.57892639,-0.49928217,-0.09136281,0.97424430,-0.08727468,-0.20685605,0.02101800
1755650284336,0.12859529,0.07435970,0.24019934,-0.59620191,-0.48700223,-0.09925439,0.97340760,-0.09046436,-0.20946151,0.02048698
1755650284347,-1.02891339,0.77228455,-0.92595810,-0.47156876,-0.47733256,-0.10307209,0.97259136,-0.09310514,-0.21213458,0.01990978
1755650284358,0.37633035,0.66380492,-0.39913825,-0.35988987,-0.43674815,-0.05118013,0.97186536,-0.09512052,-0.21458037,0.01962317
1755650284370,0.00223393,0.26554618,-0.49183184,-0.29032924,-0.41588587,-0.01646857,0.97118342,-0.09676088,-0.21693012,0.01953013
1755650284380,0.44496409,-0.13255878,0.13061994,-0.31285268,-0.40210641,-0.02956334,0.97054136,-0.09841900,-0.21906129,0.01937344
1755650284392,-0.59664799,-0.20474105,0.43202021,-0.36956434,-0.37104891,-0.06712032,0.96985918,-0.10050704,-0.22115771,0.01899421
1755650284403,-0.30037129,-0.65814079,-0.13170048,-0.40353614,-0.35918593,-0.11220585,0.96917346,-0.10276684,-0.22316915,0.01836586
1755650284414,0.15200577,-0.27741312,0.57295014,-0.44999903,-0.30796282,-0.13355602,0.96852389,-0.10526434,-0.22487835,0.01762462
1755650284425,-0.46615786,0.04305590,-0.40247724,-0.46799831,-0.29928865,-0.14912346,0.96785951,-0.10788513,-0.22655436,0.01678953
1755650284436,0.23188031,0.60060803,-0.28129743,-0.40831541,-0.27010920,-0.10907221,0.96725690,-0.11017170,-0.22806697,0.01617873
1755650284447,0.60404930,0.70169201,-0.00862138,-0.33757386,-0.25324638,-0.09007508,0.96671734,-0.11204523,-0.22947249,0.01567881
1755650284459,0.22622971,0.17459944,-0.19862736,-0.28756954,-0.21597588,-0.04862838,0.96624576,-0.11365562,-0.23068196,0.01540649
1755650284470,-0.34211850,0.08885578,-0.15205267,-0.27542912,-0.21222651,-0.05248988,0.96578317,-0.11519802,-0.23187043,0.01511255
1755650284481,-0.54738959,-0.61058648,-0.24138361,-0.25837051,-0.18699469,-0.06107506,0.96536273,-0.11664490,-0.23291760,0.01477053
1755650284492,-0.19006583,0.08172831,0.07412567,-0.29916464,-0.18277800,-0.08368572,0.96491830,-0.11832022,-0.23394115,0.01430189
1755650284503,0.05991771,0.52225419,-0.19917282,-0.28426797,-0.17228865,-0.12149487,0.96450091,-0.11989791,-0.23489735,0.01362759
1755650284514,0.01402899,0.40583972,-0.40384640,-0.21909083,-0.17316804,-0.11103221,0.96411604,-0.12113577,-0.23587575,0.01300026
1755650284526,0.15454202,1.04012685,-0.27895945,-0.14390109,-0.15905057,-0.10668424,0.96380396,-0.12194162,-0.23676644,0.01240283
1755650284537,0.00780934,0.23633200,-0.32331029,-0.03179902,-0.17645745,-0.06239019,0.96354489,-0.12211810,-0.23774578,0.01205656
1755650284548,-0.58934106,-0.41811058,0.18167554,0.02427050,-0.16442032,-0.03734994,0.96333705,-0.12198219,-0.23866653,0.01184740
1755650284559,-0.31869725,-0.20556543,0.45138699,-0.00035984,-0.14491755,-0.02319154,0.96313875,-0.12198418,-0.23947082,0.01171869
1755650284570,-0.16363786,0.40121386,0.18347020,-0.08353103,-0.13559054,-0.03069780,0.96289014,-0.12245613,-0.24023691,0.01154524
1755650284582,0.68905213,0.62294334,0.14218400,-0.09670720,-0.10563747,-0.04192740,0.96267802,-0.12299286,-0.24082320,0.01131255
1755650284593,0.08121336,0.18909694,-0.01270010,-0.05060999,-0.11887659,-0.03115114,0.96247522,-0.12327881,-0.24149485,0.01113654
1755650284604,0.00770723,-0.09452696,-0.06596486,-0.02366094,-0.13766672,-0.03429585,0.96227041,-0.12340894,-0.24225202,0.01094792
1755650284615,-0.13335537,0.20126720,0.16484298,-0.03559697,-0.12296078,-0.00877132,0.96206821,-0.12361184,-0.24295289,0.01089792
1755650284626,-0.28740207,-0.15981857,0.02423248,-0.03937050,-0.09687489,0.01679818,0.96190460,-0.12382838,-0.24348570,0.01099031
1755650284638,-0.09292547,0.10232865,0.21420387,-0.02737547,-0.05613681,-0.00327483,0.96180277,-0.12398579,-0.24380849,0.01097148
1755650284649,0.05278994,-0.27586744,0.63628767,-0.03174976,-0.02575007,-0.02457662,0.96174690,-0.12415724,-0.24394754,0.01083877
1755650284660,0.29509645,-0.08248188,-0.12008114,-0.03437486,-0.02258562,-0.04042107,0.96169295,-0.12434802,-0.24407289,0.01061443
1755650284671,-0.92937827,0.09743753,0.01571112,-0.03949715,-0.00177202,-0.06845634,0.96166572,-0.12457118,-0.24408290,0.01022765
1755650284682,-0.57880933,0.21785245,-0.40509252,-0.03796624,0.00654549,-0.07166061,0.96165164,-0.12478379,-0.24404625,0.00982635
1755650284693,-1.10441003,0.22666654,-0.10654242,-0.02432739,0.02142415,-0.07075136,0.96166806,-0.12491759,-0.24392842,0.00943722
1755650284704,0.49928566,0.21453249,-0.17665755,-0.01793940,0.05577919,-0.04629009,0.96173669,-0.12501805,-0.24361605,0.00917799
1755650284716,-0.18246320,0.01187911,-0.19766846,-0.00723682,0.09457605,0.00229034,0.96186531,-0.12505858,-0.24308643,0.00919082
1755650284727,-0.38867036,0.17899725,-0.09924087,0.01952428,0.13758961,-0.00135720,0.96207212,-0.12495022,-0.24232280,0.00918329
1755650284738,-0.43816190,0.27135322,-0.06069134,0.03341859,0.18703337,-0.00875728,0.96236264,-0.12476140,-0.24126607,0.00913381
1755650284749,-0.92009471,0.06239280,-0.05431864,0.05190275,0.23125115,0.01285440,0.96272010,-0.12447334,-0.23998262,0.00920515
1755650284760,-0.45420597,0.29809514,0.25523615,0.01707612,0.28433782,0.02042799,0.96312688,-0.12437771,-0.23839033,0.00931955
1755650284771,-0.46279001,0.23523057,-0.33493792,0.02710409,0.33854916,0.00385953,0.96360920,-0.12422729,-0.23651138,0.00934097
1755650284783,-0.04311583,0.00540232,0.02214010,0.07962633,0.38807111,0.00659719,0.96419699,-0.12378138,-0.23433818,0.00937791
1755650284794,-0.26223500,0.41107039,-0.29905295,0.12411085,0.44371913,0.03037613,0.96487865,-0.12309256,-0.23187554,0.00954650
1755650284805,-0.04205332,0.22883311,-0.13840587,0.20224651,0.48809790,0.04410220,0.96567971,-0.12194987,-0.22911779,0.00979568
1755650284816,-0.43133170,0.57671944,-0.12657039,0.26898361,0.54410357,0.06140616,0.96658291,-0.12044356,-0.22607081,0.01013955
1755650284827,-0.82348708,0.21680574,-0.56821453,0.35473883,0.58012968,0.06282656,0.96756088,-0.11849250,-0.22288010,0.01048510
1755650284838,-0.31974206,0.47430047,0.58014818,0.37960388,0.63709875,0.02949825,0.96862227,-0.11638570,-0.21934420,0.01064881
1755650284850,0.18392438,-0.53624705,0.61843605,0.40562602,0.67523264,0.01766793,0.96974958,-0.11409391,-0.21552913,0.01074864
1755650284861,-1.16281587,0.00428083,-0.06212868,0.40611149,0.69965067,-0.00724156,0.97085721,-0.11186030,-0.21168106,0.01070881
1755650284872,-0.66421768,0.33122927,0.23890938,0.38328530,0.75902118,-0.02377523,0.97201009,-0.10973306,-0.20746849,0.01057686
1755650284883,-0.93163079,0.70871867,-0.42317901,0.37050198,0.81034745,0.01793523,0.97319828,-0.10765825,-0.20293054,0.01067729
1755650284894,-0.61576331,0.50301591,-0.14191582,0.47681505,0.87833209,0.07576630,0.97448614,-0.10501193,-0.19805580,0.01109780
1755650284905,-0.69358618,0.82053217,-0.48846919,0.56056254,0.90714746,0.05585027,0.97583405,-0.10187278,-0.19297577,0.01141056
1755650284916,-0.67018684,0.86331692,0.10585808,0.66640384,0.97102361,0.05218431,0.97725953,-0.09817424,-0.18758659,0.01170018
1755650284928,-0.39923852,-0.06327970,0.14934258,0.68616473,0.95517486,0.05902853,0.97866943,-0.09426310,-0.18214210,0.01203664
1755650284939,-0.93677209,0.09933726,0.68643660,0.65216787,0.98596943,0.04872574,0.98001021,-0.09064357,-0.17666997,0.01230707
1755650284950,-0.48647275,-0.14451622,0.89396937,0.56708373,1.00246743,0.04954690,0.98130160,-0.08743954,-0.17100602,0.01258701
1755650284961,-1.00905480,-0.05483994,0.24242913,0.54896018,1.03035053,0.06254308,0.98253193,-0.08442026,-0.16533910,0.01293100
1755650284972,0.56277432,-0.20968113,0.31764461,0.49313444,1.00365600,0.09636390,0.98370738,-0.08160940,-0.15961826,0.01348027
1755650284983,-0.52174759,0.79299384,0.05801889,0.51090576,1.04399121,0.10083263,0.98483288,-0.07882496,-0.15392851,0.01402981
1755650284995,0.42794455,-0.21672736,0.06891194,0.56172080,0.99684022,0.11839004,0.98592605,-0.07567932,-0.14834620,0.01469279
1755650285006,0.20907241,0.29982885,0.26229085,0.60751488,0.97882506,0.13172366,0.98697901,-0.07227724,-0.14286478,0.01543045
1755650285017,-0.21168160,0.18702256,0.31696952,0.64529054,0.93327533,0.12572680,0.98795930,-0.06869588,-0.13768510,0.01612823
1755650285028,0.29799904,-0.16399622,0.25929786,0.65914712,0.91304706,0.10436110,0.98889004,-0.06503761,-0.13261769,0.01670743
1755650285039,0.36966546,-0.16433594,0.30626588,0.61450278,0.82689704,0.13403776,0.98971437,-0.06156567,-0.12794572,0.01746475
1755650285050,0.02814361,0.33286707,0.35430609,0.63229312,0.79125082,0.14351220,0.99046309,-0.05808806,-0.12359384,0.01825406
1755650285061,0.57061218,0.29740119,0.23160386,0.62674464,0.73421844,0.11064563,0.99115538,-0.05457829,-0.11948222,0.01887368
1755650285073,0.52458170,-0.06937403,0.08552962,0.66329731,0.68981598,0.10722606,0.99179928,-0.05086382,-0.11561925,0.01947415
1755650285084,0.56639618,-0.54501377,-0.12164213,0.68796608,0.63172423,0.14260710,0.99237930,-0.04701121,-0.11208159,0.02027275
1755650285095,0.02069822,0.21483902,0.54083162,0.70874434,0.56592759,0.10784644,0.99289507,-0.04307768,-0.10894070,0.02087129
1755650285106,0.50786960,0.46418871,0.09501579,0.68908515,0.49223381,0.06167839,0.99334619,-0.03921881,-0.10618419,0.02121669
1755650285117,0.59053844,-0.45917906,0.27759453,0.70711825,0.44580978,0.10343637,0.99374228,-0.03529430,-0.10370994,0.02179076
1755650285128,0.33465285,0.07352209,0.28367753,0.67927946,0.40000574,0.10548293,0.99408817,-0.03149034,-0.10146991,0.02238147
1755650285140,0.42087526,-0.14723291,0.31750512,0.66568709,0.36731018,0.14941624,0.99438527,-0.02779577,-0.09943134,0.02321073
1755650285151,0.11610352,-0.56890725,0.37346632,0.66445664,0.32546184,0.17703445,0.99463704,-0.02410804,-0.09762503,0.02419327
1755650285162,0.38393298,0.04404048,0.39477187,0.66366073,0.32046642,0.20116943,0.99486664,-0.02039154,-0.09583041,0.02531982
1755650285173,0.19006583,0.23615680,-0.19386715,0.64322620,0.31407351,0.21711237,0.99507010,-0.01678947,-0.09407160,0.02653565
1755650285184,-0.15345706,0.12170569,-0.33042855,0.68188802,0.29068350,0.22867119,0.99524330,-0.01300499,-0.09245831,0.02780477
1755650285195,0.15968954,-0.01370700,0.17352497,0.65775258,0.28927268,0.22326277,0.99539806,-0.00932158,-0.09083838,0.02905505
1755650285207,0.01520527,-0.02803471,-0.07222502,0.67295266,0.25865257,0.20942576,0.99552242,-0.00555304,-0.08938993,0.03022783
1755650285218,0.21054129,-0.14122905,-0.04416080,0.69860763,0.25926528,0.18400914,0.99563312,-0.00167577,-0.08795101,0.03124908
1755650285229,0.16386757,0.00834749,0.16350798,0.62180522,0.23229099,0.17039492,0.99571654,0.00180634,-0.08665018,0.03220329
1755650285240,0.21779777,-0.05583163,-0.01598151,0.65913892,0.21025579,0.22227971,0.99576339,0.00546456,-0.08548326,0.03343694
1755650285251,0.60603159,0.50715649,0.24761379,0.75759943,0.23281045,0.24559480,0.99579463,0.00963136,-0.08420280,0.03478772
1755650285262,0.13166379,0.00293738,0.25161260,0.70934886,0.26456468,0.30915525,0.99581047,0.01360371,-0.08272124,0.03651898
1755650285273,-0.52090631,-0.24504902,-0.13628653,0.71057448,0.29325987,0.29818292,0.99582059,0.01761846,-0.08106432,0.03820372
1755650285284,-0.66690243,0.11179849,0.10056022,0.68988335,0.31406704,0.26316638,0.99582876,0.02141281,-0.07933695,0.03965113
1755650285296,0.59691638,-0.40757714,-0.15203833,0.68571451,0.31707687,0.24167642,0.99582373,0.02528710,-0.07754546,0.04101661
1755650285306,-0.53258562,1.05966533,0.31256389,0.75461280,0.31807562,0.26216508,0.99578670,0.02921109,-0.07589147,0.04237986
1755650285317,0.79915372,-0.26283911,-0.51434738,0.76084986,0.27257458,0.22709482,0.99571282,0.03347185,-0.07436505,0.04365159
1755650285328,-0.00985444,0.20649970,0.28115601,0.82724823,0.28481733,0.22450578,0.99561138,0.03798035,-0.07281280,0.04487515
1755650285339,0.05115010,-0.51810464,0.25900521,0.76528927,0.27799523,0.21775859,0.99549445,0.04230423,-0.07124213,0.04610549
1755650285351,-0.29618796,-0.57315143,0.39732361,0.70201607,0.27973987,0.23357978,0.99537146,0.04616532,-0.06970356,0.04739018
1755650285362,0.13148252,-0.28462418,-0.06002094,0.66805818,0.28588148,0.17379190,0.99525380,0.04993985,-0.06808833,0.04837210
1755650285373,0.42793406,0.38164546,-0.18988081,0.71665958,0.31533049,0.13648621,0.99512612,0.05395315,-0.06632248,0.04913642
1755650285384,0.38683203,0.04714889,-0.48390949,0.75552800,0.25941044,0.16661787,0.99494053,0.05810855,-0.06489572,0.05005282
1755650285395,0.41074954,-0.39507775,0.20157345,0.69070495,0.23275592,0.09761874,0.99476360,0.06197650,-0.06359229,0.05059949
1755650285406,0.25848953,-0.45330701,0.15395332,0.61117225,0.20924381,0.08234390,0.99459512,0.06539906,-0.06242052,0.05106061
1755650285418,0.82129544,-0.90977900,-0.20763314,0.51088571,0.17179892,0.08121580,0.99443216,0.06838774,-0.06141550,0.05153572
1755650285429,-0.48995094,0.20929378,0.40544605,0.50425067,0.16896532,0.07817405,0.99427960,0.07103506,-0.06052843,0.05194614
1755650285440,0.68932319,-0.22866865,-0.39757163,0.43666072,0.15331256,0.07550078,0.99413295,0.07345853,-0.05967754,0.05236517
1755650285451,0.13158399,0.53988137,-0.33670021,0.45851661,0.13749357,0.06172894,0.99396905,0.07600329,-0.05891445,0.05270776
1755650285462,0.31211892,-0.08881297,-0.13302896,0.49026440,0.13052337,0.07449664,0.99377616,0.07874877,-0.05818352,0.05312494
1755650285473,0.17105925,-0.35969959,-0.35352245,0.45781561,0.10879975,0.07005677,0.99358411,0.08131254,-0.05757425,0.05351726
1755650285484,0.30790665,-0.64669899,0.03801317,0.42327848,0.10347238,0.05411804,0.99340432,0.08368290,-0.05699480,0.05382032
1755650285496,0.15205267,-0.43239977,-0.23568163,0.42002637,0.05977504,0.04855974,0.99320775,0.08603505,-0.05666006,0.05409226
1755650285507,0.25726897,-0.01783395,0.13671998,0.36281528,0.04147555,0.03568610,0.99303039,0.08808495,-0.05642572,0.05429388
1755650285518,0.02354790,-0.16431586,-0.06481888,0.33193251,0.01452916,0.03267539,0.99286300,0.08989399,-0.05634654,0.05447197
1755650285529,0.18640838,-0.16171980,-0.06444296,0.27683451,0.00761678,0.00886747,0.99271984,0.09145810,-0.05630350,0.05452207
1755650285540,0.02614034,-0.54521282,-0.27820791,0.26109893,-0.01763809,0.02899596,0.99256815,0.09293331,-0.05640316,0.05468589
1755650285551,-0.04375718,-0.63570894,-0.05815941,0.26290001,-0.01504321,0.03157598,0.99241880,0.09436612,-0.05648514,0.05485798
1755650285563,0.13183228,-0.09491719,-0.26691926,0.24154918,-0.01739087,0.03410654,0.99227181,0.09573087,-0.05658340,0.05505068
1755650285574,0.15684204,0.17037901,-0.12510020,0.22912370,-0.01852602,0.03359264,0.99212954,0.09702542,-0.05668808,0.05524048
1755650285585,-0.11719948,0.02057498,-0.07592965,0.22134321,-0.01920726,0.01396569,0.99199822,0.09825387,-0.05679468,0.05531799
1755650285596,0.06619770,-0.06778159,0.06457101,0.18467167,-0.02171827,-0.01009570,0.99189142,0.09928803,-0.05691630,0.05526146
1755650285607,0.08414050,-0.16381481,-0.08256826,0.17596402,-0.04664818,0.00661236,0.99177624,0.10026463,-0.05717520,0.05529816
1755650285618,0.11047791,-0.23013376,-0.19376441,0.15287447,-0.06386698,-0.01855639,0.99167442,0.10112073,-0.05753285,0.05519424
1755650285630,0.12164213,-0.13589707,-0.07412567,0.13152921,-0.08576674,-0.02131673,0.99157770,0.10185729,-0.05801314,0.05507487
1755650285641,0.00573607,-0.06992991,0.09421317,0.08740181,-0.09816077,0.01283343,0.99149176,0.10234237,-0.05855794,0.05514609
1755650285652,0.04136068,-0.08022285,-0.28348929,0.07447521,-0.10225865,0.01308137,0.99141201,0.10275199,-0.05912036,0.05521804
1755650285663,0.16276547,-0.06572822,-0.12095098,0.05094354,-0.08353177,0.01519264,0.99134966,0.10303727,-0.05958814,0.05530312
1755650285674,-0.10846695,-0.15749995,-0.45619008,0.04976360,-0.09819757,0.02134783,0.99128138,0.10331346,-0.06013313,0.05542160
1755650285685,0.24381739,-0.34153786,-0.32508986,0.05306969,-0.10290586,0.03240799,0.99120576,0.10360800,-0.06070426,0.05560146
1755650285696,-0.09232747,-0.36689127,-0.45732236,0.05267275,-0.11636731,0.00106160,0.99113442,0.10390296,-0.06135592,0.05560741
1755650285708,0.00380132,-0.05939557,-0.09123160,-0.00513131,-0.11616617,-0.01332103,0.99110113,0.10387423,-0.06200645,0.05553281
1755650285719,0.07771334,-0.12765340,-0.01541136,-0.03382174,-0.11095585,-0.00056323,0.99108224,0.10368652,-0.06262225,0.05552968
1755650285730,-0.03182595,-0.22102381,-0.26500317,-0.01525635,-0.10356329,-0.01161794,0.99105779,0.10360032,-0.06320739,0.05546404
1755650285741,-0.25011918,-0.28584926,0.16915495,-0.03344461,-0.09981968,-0.00980866,0.99104473,0.10341470,-0.06376139,0.05540960
1755650285753,-0.01398227,-0.45116382,0.02295671,-0.04806587,-0.08632269,0.00292840,0.99104057,0.10314073,-0.06425342,0.05542630
1755650285764,-0.05012425,-0.08698285,-0.14300967,-0.07859054,-0.07599022,0.00263997,0.99105746,0.10270848,-0.06467137,0.05544082
1755650285775,0.31946060,-0.14803199,-0.59202241,-0.09268549,-0.07606825,-0.01764057,0.99108847,0.10219407,-0.06509355,0.05534291
1755650285786,0.07853872,0.14459505,-0.21201489,-0.14818812,-0.07251377,-0.02582410,0.99115618,0.10134940,-0.06550688,0.05519571
1755650285797,-0.02150157,0.09902996,-0.24688785,-0.16396360,-0.07155311,-0.02492250,0.99122952,0.10044760,-0.06590042,0.05505864
1755650285808,0.09545117,0.07409516,-0.07553765,-0.12995081,-0.05857952,-0.01548807,0.99128544,0.09972638,-0.06622554,0.05497268
1755650285819,0.03096094,0.05514917,-0.35798585,-0.06636723,-0.06210560,-0.02963229,0.99130845,0.09935804,-0.06657022,0.05480822
1755650285831,0.28658701,-0.06867180,0.06044110,-0.05566683,-0.06615123,-0.01903319,0.99132080,0.09904074,-0.06694728,0.05469973
1755650285842,-0.01568416,0.22242990,0.10627546,-0.08184392,-0.07832352,-0.02665982,0.99134478,0.09858650,-0.06738198,0.05455177
1755650285853,-0.01381203,0.02967146,-0.16735334,-0.11851890,-0.10027800,-0.02060529,0.99137768,0.09794057,-0.06792849,0.05443947
1755650285864,0.08840677,0.06707231,0.18985658,-0.14005963,-0.10089634,-0.02720033,0.99142433,0.09715624,-0.06849351,0.05428715
1755650285875,0.21287373,-0.09265709,-0.10073489,-0.15502283,-0.11050793,-0.03892141,0.99147799,0.09628811,-0.06911236,0.05406919
1755650285886,0.06174910,-0.31438224,-0.28357248,-0.14112987,-0.11687360,-0.03114598,0.99151773,0.09550484,-0.06976101,0.05389633
1755650285897,0.18968912,0.00081763,0.03965698,-0.13454076,-0.11443184,-0.04396255,0.99155807,0.09475141,-0.07040183,0.05365014
1755650285909,-0.18246320,-0.12021664,-0.13874806,-0.12794065,-0.11292785,-0.06844682,0.99160184,0.09403495,-0.07103422,0.05326684
1755650285920,0.04302050,-0.08319025,0.07482803,-0.15311544,-0.11316830,-0.06102695,0.99165501,0.09318516,-0.07166231,0.05292814
1755650285931,0.02958863,-0.10476737,0.07219077,-0.18222238,-0.10363241,-0.04524154,0.99172175,0.09216471,-0.07224265,0.05267479
1755650285942,-0.47908055,-0.21328323,0.08491362,-0.19287868,-0.09122742,-0.05640544,0.99180232,0.09106530,-0.07276264,0.05235327
1755650285953,-0.43521675,-0.35085245,0.02177812,-0.20646043,-0.08074853,-0.05444173,0.99188901,0.08992977,-0.07320676,0.05205384
1755650285964,-0.13189633,-0.10185936,-0.16883825,-0.23135308,-0.06738963,-0.04930232,0.99198941,0.08866889,-0.07357403,0.05178515
1755650285976,0.45059964,0.34652446,-0.02062810,-0.23416896,-0.05243794,-0.05934234,0.99210518,0.08731071,-0.07387817,0.05144096
1755650285986,0.20565892,0.10964227,-0.60823411,-0.18618028,-0.04576685,-0.06488245,0.99219201,0.08631465,-0.07412303,0.05109384
1755650285998,-0.07968554,0.14679477,0.08684410,-0.15700220,-0.03765750,-0.03953455,0.99226370,0.08543544,-0.07433391,0.05087245
1755650286009,-0.11143865,0.00221150,-0.12448302,-0.15335523,-0.03191313,-0.02662711,0.99233090,0.08458432,-0.07451103,0.05072467
1755650286020,-0.03693963,0.10212227,0.13596678,-0.16250789,-0.01491097,-0.02734743,0.99241029,0.08366615,-0.07459527,0.05057015
1755650286031,-0.05290441,-0.13908768,-0.27348475,-0.16065782,-0.01284849,-0.00781838,0.99248126,0.08278253,-0.07466594,0.05052715
1755650286042,-0.56466531,0.33611556,-0.09600634,-0.17362976,-0.00956758,-0.00263133,0.99255929,0.08180152,-0.07472000,0.05051229
1755650286053,-0.20415452,0.28820173,-0.25013636,-0.17060696,-0.01142288,-0.00934271,0.99263406,0.08086318,-0.07478282,0.05046090
1755650286064,-0.07325077,0.15593055,0.00606905,-0.13460878,-0.01034321,-0.01903254,0.99269567,0.08011610,-0.07484023,0.05035527
1755650286076,0.64038788,-0.17045050,0.09376207,-0.11312449,-0.02723265,-0.03083347,0.99274426,0.07947695,-0.07499409,0.05018106
1755650286087,0.28851211,0.03129486,0.15804121,-0.10165184,-0.01396106,-0.02099412,0.99278929,0.07891278,-0.07507158,0.05006454
1755650286098,-0.14044324,0.02569313,-0.17879887,-0.08325113,-0.04235636,-0.02129549,0.99281428,0.07844658,-0.07530877,0.04994529
1755650286109,0.26989348,-0.18578935,0.06082107,-0.08248025,-0.03051046,-0.01244225,0.99284119,0.07798469,-0.07547963,0.04987561
1755650286120,-0.15172091,0.10041131,-0.00387043,-0.10775838,-0.03427272,-0.00898266,0.99287570,0.07739202,-0.07566813,0.04982621
1755650286131,0.09579318,-0.13520592,0.07222502,-0.12243155,-0.03618334,-0.00395605,0.99291455,0.07670640,-0.07587076,0.04980405
1755650286143,-0.60916330,-0.15928437,0.24489898,-0.12891052,-0.03057674,-0.00851408,0.99295975,0.07597805,-0.07604352,0.04975595
1755650286154,-0.41269835,-0.21071590,-0.03289600,-0.12465387,-0.02990609,0.00830821,0.99299741,0.07528623,-0.07620949,0.04980206
1755650286165,-0.06356075,0.12245548,0.01929768,-0.12480536,-0.02052088,0.00691764,0.99303938,0.07458732,-0.07632441,0.04984080
1755650286177,0.69330037,0.49316687,-0.19436297,-0.10301391,-0.01014292,-0.00932051,0.99308190,0.07399499,-0.07638273,0.04978721
1755650286187,0.17056521,0.03816221,-0.52835730,-0.08443306,-0.00095477,-0.00969846,0.99311733,0.07354749,-0.07638779,0.04973580
1755650286198,-0.10163143,0.18023082,0.24156291,-0.06896611,-0.01491283,-0.01104415,0.99314252,0.07316128,-0.07647131,0.04967396
1755650286210,0.13684740,-0.07602633,0.03041053,-0.06317501,-0.00165964,-0.00442828,0.99316904,0.07280750,-0.07648060,0.04964916
1755650286221,-0.10643687,-0.02850987,0.00000000,-0.07254344,0.00402870,-0.01229483,0.99320392,0.07240126,-0.07645804,0.04958031
1755650286232,-0.06789983,-0.13148465,0.03275778,-0.10131099,0.00802698,-0.00224469,0.99324879,0.07183898,-0.07641349,0.04956785
1755650286243,-0.50290392,0.15026759,-0.19402126,-0.09291303,0.02607202,0.00233343,0.99329686,0.07131867,-0.07626749,0.04958092
1755650286254,-0.33071455,-0.15015201,-0.06462238,-0.10160743,0.04134022,0.00453013,0.99335403,0.07074967,-0.07603598,0.04960628
1755650286265,-0.08382951,-0.28892413,-0.09314198,-0.12797149,0.05457321,0.00010803,0.99342747,0.07003942,-0.07573310,0.04960688
1755650286277,0.25414028,-0.38221211,0.12462154,-0.14282399,0.07007309,-0.02269060,0.99351971,0.06923961,-0.07534069,0.04947982
1755650286288,0.46789191,0.10374747,0.07960617,-0.15925595,0.06122299,-0.00356457,0.99361154,0.06831593,-0.07498560,0.04945914
1755650286299,-0.39602268,0.09836388,-0.50468657,-0.11735881,0.05698129,-0.02608075,0.99368440,0.06768806,-0.07468075,0.04931961
1755650286310,0.41130501,0.22045810,0.19087639,-0.05418609,0.06548250,-0.00660855,0.99373569,0.06737649,-0.07430422,0.04928161
1755650286321,-0.21307941,0.03303371,-0.32208975,-0.03676055,0.05941572,0.00683056,0.99377123,0.06717798,-0.07398338,0.04931850
1755650286333,0.33712117,-0.32983490,0.28986478,-0.03381671,0.06941106,0.01088357,0.99381088,0.06698353,-0.07358426,0.04938108
1755650286343,-0.88501898,-0.19379370,0.41648804,-0.10456598,0.04840812,0.00107426,0.99386729,0.06642410,-0.07332528,0.04938682
1755650286354,0.13813064,0.22835501,0.21580425,-0.13845513,0.04108482,-0.02193127,0.99394118,0.06565568,-0.07309726,0.04926511
1755650286366,0.02034218,0.15811422,0.18080226,-0.15322210,0.01538498,-0.00761989,0.99400593,0.06479764,-0.07301110,0.04922243
1755650286377,0.75646201,-0.15442849,-0.33451586,-0.11162311,0.01423073,-0.01972749,0.99405780,0.06417255,-0.07293141,0.04911196
1755650286388,-0.01751919,-0.08208882,-0.06356322,-0.13047021,-0.00901150,-0.01815928,0.99410558,0.06344844,-0.07298143,0.04901118
1755650286399,0.18348702,0.04454708,0.38144039,-0.13730309,-0.00423025,-0.00963176,0.99415572,0.06267267,-0.07300533,0.04895676
1755650286410,0.00188241,0.17684899,-0.00671275,-0.14441224,-0.00826245,-0.00278760,0.99420246,0.06188563,-0.07305036,0.04894156
1755650286421,0.05419924,0.09128135,0.19879335,-0.12065295,-0.01684713,-0.00278667,0.99423844,0.06120394,-0.07314554,0.04892582
1755650286432,0.11428329,0.29840684,-0.10891263,-0.10866681,-0.01350848,-0.00961674,0.99427218,0.06060627,-0.07321984,0.04887293
1755650286444,-0.54322798,0.47955230,-0.10326869,-0.07071223,-0.02379439,-0.00967426,0.99428938,0.06020321,-0.07335547,0.04881778
1755650286455,-0.09488719,0.06368845,-0.05626530,-0.05160661,-0.01286599,0.00316324,0.99430025,0.05992453,-0.07342494,0.04883487
1755650286466,0.09723134,-0.14197406,0.07164951,-0.04965571,-0.01926067,0.00893739,0.99430665,0.05964150,-0.07353473,0.04888581
1755650286477,0.41744857,-0.36854286,0.35401547,-0.07907516,-0.00927735,0.00300576,0.99432805,0.05920658,-0.07358575,0.04890234
1755650286488,0.02301708,-0.33129487,0.14769293,-0.09652203,-0.00239991,0.00564194,0.99435780,0.05866123,-0.07359931,0.04893422
1755650286499,-0.04644141,-0.09614502,-0.06966211,-0.11356928,0.00502562,-0.00703677,0.99439877,0.05803092,-0.07357142,0.04889516
1755650286511,0.00745557,-0.09170355,0.22398672,-0.15044050,0.00700763,-0.01359349,0.99445324,0.05720350,-0.07353288,0.04882040
1755650286522,0.14946743,0.03347448,0.05670585,-0.15114461,0.01268223,-0.02864870,0.99451631,0.05633442,-0.07345996,0.04865567
1755650286532,-0.29500646,-0.19521565,-0.59404966,-0.17375890,-0.00419673,-0.01901262,0.99456721,0.05548300,-0.07348052,0.04856251
1755650286543,-0.00108609,0.10209250,0.42656203,-0.15590047,-0.00594398,-0.02647984,0.99462030,0.05460996,-0.07351381,0.04841422
1755650286554,-0.15585398,0.15015201,-0.12354279,-0.14617917,-0.00824430,-0.03239555,0.99467031,0.05379136,-0.07355998,0.04823281
1755650286565,0.16321042,0.11981545,0.11956538,-0.09435217,-0.00098003,-0.02789753,0.99470621,0.05325827,-0.07356551,0.04807518
1755650286577,0.27618253,-0.20647761,-0.30561940,-0.06257853,-0.01473512,-0.02425774,0.99472519,0.05291096,-0.07364729,0.04794055
1755650286588,0.12117970,0.01364759,0.39199947,-0.10745604,-0.00765920,-0.02988893,0.99476255,0.05229846,-0.07369095,0.04777019
1755650286599,-0.08305318,-0.13641378,0.05906243,-0.14825609,-0.02057579,-0.02394114,0.99480228,0.05149787,-0.07380206,0.04764090
1755650286610,0.00529982,0.03888234,0.15318522,-0.15888986,-0.01025256,-0.01524721,0.99484857,0.05059220,-0.07386050,0.04755400
1755650286621,0.04632172,0.11976238,-0.06713192,-0.14983737,-0.00056340,-0.02148824,0.99489555,0.04976810,-0.07386360,0.04743581
1755650286632,-0.08017322,0.02186621,0.02025065,-0.12486225,-0.00517309,-0.03065299,0.99493630,0.04906887,-0.07389257,0.04726415
1755650286644,-0.40111002,0.15137083,-0.17653955,-0.10226780,-0.00924649,-0.02137261,0.99496594,0.04850128,-0.07394389,0.04714554
1755650286655,-0.14838514,0.22083252,0.12167044,-0.09460814,-0.01108735,-0.01620693,0.99499311,0.04793363,-0.07401041,0.04704829
1755650286666,-0.44174448,-0.31815596,-0.30213794,-0.10035455,-0.02597351,-0.01374799,0.99501143,0.04741179,-0.07414547,0.04697680
1755650286677,0.83734484,0.07650463,0.44443921,-0.11104450,-0.01202331,-0.01363425,0.99503895,0.04680104,-0.07421160,0.04690182
1755650286688,0.08729205,-0.25281347,-0.00680781,-0.11979582,-0.02544407,-0.00687760,0.99506146,0.04613019,-0.07435409,0.04686330
1755650286699,-0.04170743,0.00352025,0.34300643,-0.14611741,-0.01383240,0.00197664,0.99509247,0.04531924,-0.07443086,0.04687427
1755650286710,0.11855671,0.05056070,-0.12456192,-0.13914290,-0.01081904,0.01464040,0.99511949,0.04453308,-0.07449198,0.04695699
1755650286722,-0.24553814,0.12416092,0.02521316,-0.12690514,0.00047441,0.00127609,0.99515090,0.04382241,-0.07448933,0.04696414
1755650286733,-0.00839677,0.12318290,-0.09794507,-0.12267939,0.00935280,0.01455904,0.99518071,0.04314154,-0.07443742,0.04704494
1755650286744,-0.21517840,-0.24733237,0.20565753,-0.10128520,0.01658520,0.01741897,0.99520770,0.04256928,-0.07434371,0.04714336
1755650286755,-0.08668378,0.09021141,0.06928538,-0.11162563,0.02888377,0.01256081,0.99524267,0.04194975,-0.07418341,0.04721307
1755650286766,-0.03483106,-0.07353223,0.02515576,-0.10514049,0.03233156,0.01036499,0.99527772,0.04136622,-0.07400397,0.04727059
1755650286778,0.23139416,0.27862845,-0.15998763,-0.10805007,0.02878867,0.00719600,0.99531305,0.04075574,-0.07384131,0.04731125
1755650286789,-0.08788339,-0.15443240,0.11970625,-0.07450008,0.02645429,-0.00087824,0.99534076,0.04034599,-0.07369581,0.04730642
1755650286800,0.06185779,-0.05225082,-0.03473021,-0.08206351,0.01412420,-0.00338005,0.99536604,0.03988644,-0.07361672,0.04728749
1755650286811,0.04561580,0.13637223,0.11974147,-0.10495032,0.00719025,0.00528231,0.99539098,0.03929871,-0.07357645,0.04731707
1755650286822,0.02383972,0.14584326,0.06061625,-0.11065320,0.00617059,0.01046236,0.99541524,0.03867352,-0.07354159,0.04737619
1755650286834,0.09292907,-0.02629256,0.08654872,-0.09716369,0.01425335,0.01829672,0.99543763,0.03811969,-0.07346034,0.04748048
1755650286846,-0.02108819,-0.06744736,-0.08679273,-0.08863897,0.00268227,0.03452657,0.99544914,0.03758786,-0.07344425,0.04768764
1755650286856,-0.63575951,-0.12920864,-0.20988127,-0.10504780,-0.00479242,0.02540529,0.99546109,0.03705737,-0.07346845,0.04781593
1755650286866,0.20420285,-0.00971634,0.07399879,-0.09732886,-0.02472778,0.01997884,0.99546542,0.03653666,-0.07360075,0.04792282
1755650286878,0.53505683,-0.00682301,0.24000951,-0.10618292,-0.02764969,0.01438388,0.99547178,0.03593672,-0.07375697,0.04800409
1755650286889,0.20295854,0.25008065,0.04597905,-0.10602979,-0.04033254,0.00732376,0.99547428,0.03534826,-0.07398081,0.04804474
1755650286900,0.01636963,0.03106121,0.00077054,-0.08105897,-0.03631631,0.02044988,0.99546963,0.03489433,-0.07418418,0.04815926
1755650286911,0.05701975,-0.05321843,-0.03611251,-0.04970720,-0.03922763,0.01986665,0.99545756,0.03461597,-0.07440386,0.04827051
1755650286922,-0.08362897,-0.03136086,0.14254937,-0.05941996,-0.03438391,0.00960027,0.99545206,0.03428321,-0.07459641,0.04832427
1755650286934,0.07222502,0.00142549,-0.01330461,-0.08695656,-0.02598737,0.00838442,0.99545551,0.03379626,-0.07474194,0.04837122
1755650286945,-0.05321843,-0.01615560,0.26989348,-0.10867539,-0.03439888,0.02288161,0.99545527,0.03318768,-0.07493457,0.04849936
1755650286956,0.08526630,-0.20624880,-0.09154446,-0.09444315,-0.02325257,0.02327973,0.99545655,0.03267768,-0.07506014,0.04862507
1755650286967,0.01268538,0.32371919,0.03547608,-0.09773149,-0.03408204,0.01354260,0.99545626,0.03213527,-0.07524929,0.04870023
1755650286978,0.15989502,0.07192108,-0.31561202,-0.06859013,-0.03288317,0.02179728,0.99544866,0.03175117,-0.07543344,0.04882230
1755650286989,0.05321843,0.03373669,-0.10453621,-0.04227296,-0.04110538,0.01353576,0.99543500,0.03151444,-0.07566363,0.04889810
1755650287000,-0.12265749,-0.14273096,-0.00559453,-0.04692687,-0.03883038,-0.02106642,0.99543256,0.03125634,-0.07587719,0.04878223
1755650287012,-0.00468355,0.16418818,0.35778628,-0.09390562,-0.04207432,-0.01562402,0.99543539,0.03069760,-0.07612754,0.04868927
1755650287023,-0.06990824,-0.16199854,-0.08904316,-0.13185704,-0.03267844,0.01156641,0.99544034,0.03001195,-0.07629746,0.04874941
1755650287034,0.02236744,-0.12035730,0.06325682,-0.13633612,-0.02141069,0.01238174,0.99545065,0.02923483,-0.07641950,0.04881999
1755650287045,-0.26334243,-0.22237882,-0.05710707,-0.13165947,-0.01543150,0.02805371,0.99545755,0.02851070,-0.07650438,0.04897429
1755650287056,-0.09844171,0.08367370,0.18288064,-0.13413544,-0.01329072,0.00622122,0.99547122,0.02776625,-0.07657814,0.04900881
1755650287067,0.09804657,-0.03639504,-0.09568359,-0.11226165,-0.02167047,0.01253356,0.99547576,0.02713759,-0.07669950,0.04907900
1755650287078,0.37252903,0.26751766,0.19196649,-0.08058080,-0.02724752,0.01700242,0.99547149,0.02668633,-0.07685208,0.04917421
1755650287089,-0.08029386,0.09057689,-0.13873738,-0.05214684,-0.03841282,0.01987430,0.99545740,0.02639953,-0.07706335,0.04928352
1755650287101,-0.00096761,0.14054504,0.11725334,-0.03518311,-0.03509832,0.00809634,0.99544513,0.02620250,-0.07725990,0.04932886
1755650287112,0.11763185,-0.07425229,0.18728059,-0.03694797,-0.00979008,0.03930044,0.99543510,0.02599005,-0.07731620,0.04955484
1755650287123,-0.15470950,0.04359821,0.03742972,-0.04613852,0.00028519,0.04265574,0.99543016,0.02573860,-0.07731464,0.04978731
1755650287134,-0.03138701,-0.00785119,0.07244931,-0.06256235,-0.00364722,0.03549436,0.99542763,0.02539137,-0.07733488,0.04998431
1755650287145,-0.23994728,-0.24478492,0.12771387,-0.06096641,0.00923454,0.02210101,0.99543402,0.02505301,-0.07728363,0.05010697
1755650287157,0.04483320,-0.19178809,0.15125336,-0.04344173,0.00746452,0.02248061,0.99543724,0.02479019,-0.07723847,0.05024298
1755650287168,-0.09185992,0.00482233,0.03480875,-0.06559995,0.01125545,0.02267987,0.99544480,0.02442283,-0.07717544,0.05036998
1755650287179,0.29924300,0.49445932,-0.10711932,-0.06060971,0.01987436,0.00910531,0.99545898,0.02408645,-0.07706514,0.05042052
1755650287191,0.03096094,-0.02031812,-0.09094776,-0.05015552,0.01902524,0.03160182,0.99546495,0.02380808,-0.07695955,0.05059591
1755650287201,-0.08883353,0.12561271,0.11888666,-0.03262662,0.02548532,-0.00191015,0.99548030,0.02363190,-0.07682193,0.05058559
1755650287213,0.00087573,0.13180709,0.08764638,-0.05234641,0.03066924,-0.00529190,0.99550157,0.02334399,-0.07665325,0.05055649
1755650287224,0.07217450,0.00563121,-0.01118603,-0.04636492,0.03010788,0.02084671,0.99551478,0.02308203,-0.07648314,0.05067427
1755650287235,-0.03435157,0.04039649,0.07783046,-0.06179637,0.03693936,0.00982431,0.99553562,0.02273906,-0.07627812,0.05072880
1755650287246,-0.04929223,-0.40775430,0.08705952,-0.06016039,0.03930362,0.02127041,0.99555468,0.02239013,-0.07605016,0.05085217
1755650287257,-0.13330785,-0.15644308,0.06182984,-0.07485418,0.04024359,0.01730593,0.99557587,0.02197843,-0.07582882,0.05094735
1755650287268,-0.02222532,-0.12960824,0.05632054,-0.10035450,0.05040789,0.02786783,0.99560044,0.02144154,-0.07555914,0.05109644
1755650287280,0.29157400,0.30339572,-0.05419648,-0.08291347,0.04575945,0.01194197,0.99562677,0.02096893,-0.07529831,0.05116451
1755650287291,0.03436243,0.05562193,-0.03421502,-0.06504055,0.05476751,0.00303179,0.99565691,0.02060145,-0.07498888,0.05118164
1755650287302,-0.03263913,0.08921819,-0.02123427,-0.06774377,0.05451361,0.00489959,0.99568596,0.02022547,-0.07468633,0.05120883
1755650287313,0.03483106,0.03289600,-0.01935059,-0.04958596,0.06347211,0.00602541,0.99571616,0.01995027,-0.07433406,0.05124227
1755650287324,0.02551334,0.08149715,-0.04053025,-0.04386311,0.05363284,0.00855469,0.99574096,0.01970464,-0.07403371,0.05129018
1755650287335,-0.00119632,0.05617404,-0.05858426,-0.03559071,0.05409919,0.01498255,0.99576264,0.01950889,-0.07373617,0.05137258
1755650287346,0.00640329,-0.06823721,0.25569162,-0.04263025,0.05897705,0.00336504,0.99579047,0.01927229,-0.07340884,0.05139126
1755650287358,0.13827204,-0.02361588,-0.03060779,-0.04191518,0.04437099,0.01142153,0.99581136,0.01902080,-0.07314262,0.05145979
1755650287369,-0.09530164,-0.00543026,0.00019351,-0.04254306,0.03924077,0.00297334,0.99583096,0.01878469,-0.07292483,0.05147629
1755650287380,0.03578584,0.05306704,-0.16019517,-0.05407436,0.04933695,0.01731062,0.99585069,0.01849809,-0.07266334,0.05156804
1755650287391,0.06201188,-0.04118325,-0.04089513,-0.03764484,0.04929477,0.01321542,0.99587049,0.01829104,-0.07239222,0.05164072
1755650287402,0.02501957,0.04476914,0.03231119,-0.05667334,0.04463842,0.01453881,0.99589019,0.01797367,-0.07214225,0.05172214
1755650287413,0.00211114,-0.01454930,-0.00334265,-0.04081207,0.05113466,0.00826186,0.99591218,0.01774921,-0.07186101,0.05176758
1755650287424,0.06635025,0.09221649,-0.08224667,-0.03682609,0.04164980,0.01346084,0.99592872,0.01754298,-0.07162777,0.05184296
1755650287436,0.02280790,0.05321843,-0.03801317,-0.02590554,0.04256999,0.00799233,0.99594605,0.01739791,-0.07138938,0.05188772
1755650287447,0.29018969,0.03033032,0.27975420,-0.01677671,0.05392804,0.00440578,0.99596781,0.01730480,-0.07109008,0.05191217
1755650287458,-0.02191548,-0.00999088,-0.08369531,-0.01117040,0.03957993,-0.00245373,0.99598572,0.01724113,-0.07086447,0.05189818
1755650287469,-0.05873969,-0.12345017,0.02216186,-0.02378710,0.04689487,0.00877348,0.99600345,0.01711268,-0.07061124,0.05194556
1755650287480,-0.16939356,-0.10650633,-0.22941952,-0.05277774,0.05932483,0.00612153,0.99603043,0.01681448,-0.07027605,0.05198015
1755650287491,-0.18134753,-0.14821179,-0.04455772,-0.06506234,0.05765530,0.00765941,0.99605676,0.01645339,-0.06995607,0.05202266
1755650287503,0.02129580,-0.15129101,0.02883175,-0.07452425,0.06570219,0.00273303,0.99608883,0.01603233,-0.06958485,0.05203810
1755650287514,0.04827336,0.00959160,0.03500239,-0.09286999,0.06225950,-0.00636170,0.99612322,0.01551225,-0.06923620,0.05200247
1755650287525,0.04184564,-0.02546243,-0.05499368,-0.07084994,0.05524027,0.00131733,0.99615014,0.01511904,-0.06892961,0.05200978
1755650287536,0.08634264,0.10881143,0.04398788,-0.06099988,0.05573550,-0.00084849,0.99617659,0.01478354,-0.06862307,0.05200512
1755650287547,0.17055724,0.12383986,0.18376320,-0.06093361,0.03962789,-0.01235973,0.99620068,0.01443926,-0.06839917,0.05193528
1755650287558,0.10078535,0.02197531,0.13570364,-0.08456974,0.05361913,0.00983890,0.99622513,0.01396567,-0.06809890,0.05199038
1755650287569,-0.02955602,-0.01067887,0.00408155,-0.07261970,0.03474362,0.00769817,0.99624148,0.01356626,-0.06790781,0.05203272
1755650287581,-0.00650883,-0.00554570,-0.18200106,-0.05622515,0.05493887,0.01696608,0.99626149,0.01325421,-0.06760290,0.05212688
1755650287592,0.02116123,0.17097616,-0.05305446,-0.04559545,0.04410678,0.02015268,0.99627580,0.01299660,-0.06735370,0.05224075
1755650287603,0.06747019,0.08475728,-0.02532701,-0.01159348,0.05509821,0.00466324,0.99629591,0.01293226,-0.06704790,0.05226663
1755650287614,-0.01548047,0.14609693,0.00387012,-0.02267150,0.04175143,-0.01525123,0.99631754,0.01280643,-0.06681618,0.05218198
1755650287625,0.10325198,-0.05839815,0.02878384,-0.03601288,0.03928567,-0.02023683,0.99634077,0.01260476,-0.06659618,0.05206866
1755650287636,0.02427816,0.04414051,0.10636649,-0.04442180,0.04119810,-0.00510807,0.99636041,0.01236044,-0.06636959,0.05204056
1755650287649,0.07951154,-0.27422169,0.02322310,-0.02757504,0.03270025,0.00507239,0.99637425,0.01219085,-0.06616849,0.05207176
1755650287658,-0.19365825,-0.18911938,0.13729326,-0.03517128,0.05143472,0.00701173,0.99639143,0.01201675,-0.06591389,0.05210647
1755650287670,0.05544921,0.02359420,0.09073678,-0.04583156,0.05881313,0.00164267,0.99641596,0.01175780,-0.06558159,0.05211575
1755650287681,-0.05433426,0.19841769,-0.00629482,-0.03689411,0.06933564,0.01674279,0.99643854,0.01155489,-0.06520024,0.05220783
1755650287692,-0.01479058,-0.01323549,0.01112749,-0.03309860,0.06984952,0.01246816,0.99646252,0.01136953,-0.06480909,0.05227765
1755650287703,-0.01520527,-0.02185757,0.01520527,-0.02904904,0.07552281,0.00407943,0.99649059,0.01120686,-0.06438616,0.05230050
1755650287714,-0.00000000,0.04656613,0.04181448,-0.02579403,0.07105754,0.00621701,0.99651600,0.01106241,-0.06398824,0.05233531
1755650287725,0.01886682,0.05618581,0.05010420,0.00222456,0.08371429,-0.00052231,0.99654574,0.01107476,-0.06352362,0.05233241
1755650287737,0.02322070,0.12094117,0.08901270,-0.00018435,0.08951493,0.01625992,0.99657256,0.01107374,-0.06302682,0.05242266
1755650287748,0.20537384,0.15706972,0.31448190,0.00863444,0.11249796,0.02098111,0.99660547,0.01112209,-0.06239683,0.05254015
1755650287759,-0.08743028,0.11403950,-0.00760263,0.01013849,0.10481344,0.01117677,0.99663811,0.01117886,-0.06180987,0.05260274
1755650287770,0.02418823,-0.01570507,0.03286144,0.02392976,0.11913964,0.00405540,0.99667621,0.01131168,-0.06114865,0.05262525
1755650287781,-0.21672657,0.08514258,-0.12577881,-0.00870240,0.11018800,0.00560745,0.99671245,0.01126338,-0.06053710,0.05265637
1755650287793,0.02388628,-0.01337716,-0.00578654,0.00231687,0.12350855,-0.00320800,0.99675539,0.01127647,-0.05983928,0.05263825
1755650287804,-0.05914772,-0.00476487,0.00202068,0.01030820,0.13586695,0.00444970,0.99679842,0.01133368,-0.05908522,0.05266294
1755650287815,-0.08385745,-0.06035020,-0.04427190,0.02339626,0.14455167,-0.01882926,0.99684923,0.01146236,-0.05829018,0.05255938
1755650287826,-0.02831304,0.04288968,0.03924446,0.00437876,0.14119416,-0.02525985,0.99690278,0.01148710,-0.05749244,0.05241666
1755650287837,-0.01578871,-0.07044984,0.04068761,0.03468084,0.14801792,-0.02124530,0.99695378,0.01167958,-0.05667094,0.05229875
1755650287848,-0.25128577,-0.03537766,0.19323928,0.00377547,0.13466520,-0.01486114,0.99700172,0.01170128,-0.05589661,0.05221330
1755650287859,-0.05428299,-0.02895448,0.08266870,0.01385910,0.13203542,-0.00138534,0.99704094,0.01177612,-0.05518362,0.05220582
1755650287870,0.18762601,0.04416983,-0.04535572,0.01972492,0.12875605,0.00065644,0.99707841,0.01188461,-0.05447546,0.05220943
1755650287881,0.33839859,0.18324124,-0.03809021,0.00634632,0.11487958,-0.00308259,0.99711414,0.01192047,-0.05382639,0.05219201
1755650287893,0.10394519,-0.06825363,0.05077388,0.00443670,0.12191070,0.01399461,0.99714608,0.01194509,-0.05314979,0.05226968
1755650287904,0.04876644,-0.08775562,-0.00922932,0.00109873,0.10320607,0.00600347,0.99717488,0.01195124,-0.05257184,0.05230330
1755650287915,0.08237821,-0.03626507,0.08477976,-0.00936877,0.09505524,-0.01781621,0.99720835,0.01189925,-0.05204428,0.05220442
1755650287926,0.10846391,-0.10209704,0.01042922,0.00529964,0.07223308,-0.00954271,0.99723203,0.01192919,-0.05163616,0.05215051
1755650287937,0.06797991,0.00285913,0.10038935,0.00580491,0.06866039,-0.00771054,0.99725316,0.01196083,-0.05126196,0.05210848
1755650287948,0.17611605,-0.14655558,0.06624405,0.00526397,0.06519257,0.00443909,0.99727020,0.01199031,-0.05089688,0.05213334
1755650287960,-0.03365620,0.07678468,-0.10444134,0.02222498,0.04437553,-0.01107948,0.99728446,0.01211365,-0.05065060,0.05207185
1755650287971,0.10938203,0.12299485,0.03888644,0.00577458,0.05544278,0.00886239,0.99729720,0.01214599,-0.05034012,0.05212148
1755650287982,0.07288621,0.14542232,-0.11151323,0.01079045,0.05070630,0.00305788,0.99730997,0.01220696,-0.05005363,0.05213876
