UnixTime(ms),Ax,Ay,Az,Gx,Gy,Gz,QuatW,QuatX,QuatY,QuatZ
1759199264801,0.00000000,0.00000000,0.00000000,0.00000000,0.00000000,0.00000000,0.93195593,0.04369010,0.34397887,0.10596157
1759199264813,-0.43402097,-0.23503835,1.37969542,0.08482653,0.01766070,0.04479563,0.93186613,0.04417785,0.34408041,0.10621914
1759199264845,0.03370109,0.12525630,-0.31689172,0.02406152,0.00267801,0.01623773,0.93180112,0.04457005,0.34412407,0.10648382
1759199264901,0.03641395,-0.00864084,-0.06311536,0.01328481,0.00239658,0.00363113,0.93174675,0.04494269,0.34419129,0.10658567
1759199264912,-1.08735256,0.54868121,0.72577139,0.06949626,0.05655279,0.04742778,0.93158637,0.04531797,0.34449667,0.10684178
1759199264956,0.25871453,-0.12639866,-0.17570583,0.01730854,0.00985130,-0.01406440,0.93152346,0.04569616,0.34471193,0.10653447
1759199264968,-0.25686611,0.18898502,-0.08695603,0.02293509,0.00079967,-0.02058416,0.93152918,0.04583721,0.34471684,0.10640788
1759199264991,0.16408587,-0.07463930,-0.12619607,0.04935232,0.00597075,-0.03628762,0.93152327,0.04640230,0.34478521,0.10599239
1759199265012,0.16242423,0.04942271,-0.10323401,0.04357235,0.01132773,-0.01819439,0.93147827,0.04685763,0.34490358,0.10580225
1759199265046,-0.03680202,-0.10025248,0.01892091,-0.01304068,-0.01104265,-0.03181371,0.93162140,0.04663398,0.34471420,0.10525665
1759199265082,0.08703590,-0.03495348,-0.17149050,-0.06328360,-0.00633240,-0.07440087,0.93186540,0.04551702,0.34460244,0.10394347
1759199265114,0.25942128,-0.54682181,-1.27784630,-0.09404675,-0.09632316,-0.11820069,0.93273609,0.04397466,0.34302274,0.10200498
1759199265135,1.22448103,-0.69448482,-1.63265033,-0.12574581,-0.30795254,-0.24704699,0.93420936,0.04269834,0.33989702,0.09949746
1759199265145,4.16236969,0.55992765,-6.88688558,-0.57735289,-0.54627777,-0.59633279,0.93573729,0.03960950,0.33697443,0.09630708
1759199265168,-1.51410971,0.06502483,3.38640137,-0.48117707,-0.31958619,-0.25791968,0.93752318,0.03422032,0.33339507,0.09341838
1759199265190,-0.05984599,-0.42899248,-1.40097158,-0.44997462,-0.43629516,-0.41372501,0.93985562,0.02920310,0.32853037,0.08880534
1759199265202,0.21619041,2.88547834,-2.37830698,-0.85286116,-0.60208315,-0.43383054,0.94153780,0.02395800,0.32482756,0.08613728
1759199265223,-1.10174847,-0.49245403,3.56091568,-0.48988488,-0.33321974,-0.20294012,0.94300410,0.01896118,0.32142872,0.08406729
1759199265234,1.99489031,-1.78576126,-5.22809374,-0.83221749,-0.57943699,-0.33694149,0.94439951,0.01413432,0.31806799,0.08211303
1759199265246,-1.02269254,-0.30307665,-0.09539454,-0.99730851,-0.71900235,-0.35795540,0.94599880,0.00849952,0.31400562,0.08009059
1759199265256,1.06912784,-0.39764852,-2.93664357,-1.19807570,-0.87465350,-0.41926726,0.94766505,0.00244924,0.30958862,0.07797329
1759199265267,0.28485531,2.21437652,2.51000302,-1.20811875,-0.81452162,-0.22260705,0.94926539,-0.00443704,0.30494585,0.07670443
1759199265278,-0.94157613,1.50898932,-2.16098598,-1.16555482,-0.75673454,-0.41748673,0.95074919,-0.01096414,0.30070814,0.07436650
1759199265280,75.21707456,2.21321102,-347.11469401,-5.42081529,-3.97755834,-1.99043277,0.95213845,-0.01665600,0.29653170,0.07227655
1759199265291,-16.12901615,-0.49312305,69.56611705,-1.01946937,-0.82732185,-0.26805052,0.95342740,-0.02180432,0.29235373,0.07092289
1759199265301,-1.08173444,-0.57638030,1.27741100,-0.86824564,-0.75273277,-0.12933353,0.95456543,-0.02636261,0.28840188,0.07024389
1759199265312,2.04629098,-0.51143759,-0.43169441,-0.86524649,-0.45460267,-0.04899102,0.95516597,-0.03090515,0.28601521,0.06998669
1759199265323,0.52862436,1.78997432,2.17328118,-0.63377194,-0.12868166,0.05723018,0.95523821,-0.03454934,0.28527530,0.07031576
1759199265334,-2.40796793,-0.43132227,-0.95642224,-0.35185523,-0.14696847,0.03048012,0.95539214,-0.03644936,0.28448167,0.07048035
1759199265345,-1.07847270,-0.59860503,0.32272479,-0.15032882,-0.13944560,0.09793868,0.95554981,-0.03728369,0.28370774,0.07102391
1759199265356,1.45351281,0.72329267,0.32797643,-0.06752190,-0.00066654,0.12433798,0.95548526,-0.03765506,0.28370408,0.07170777
1759199265368,1.14766002,0.67020594,1.08850478,-0.12970709,0.20015987,0.07967665,0.95507503,-0.03840736,0.28486500,0.07216990
1759199265378,0.10760022,-1.23912373,-0.90696105,-0.12108467,0.31953885,0.11387170,0.95449093,-0.03905516,0.28657454,0.07277911
1759199265391,-0.63806823,1.34172428,1.70938867,-0.25548851,0.29978379,0.04605474,0.95384817,-0.04062641,0.28841821,0.07306235
1759199265401,-1.07656889,-0.03921719,-0.27081236,-0.25394107,0.31627835,0.16676835,0.95320120,-0.04199770,0.29012611,0.07396290
1759199265412,0.72911231,-0.71232312,-0.90359256,-0.22194239,0.38191138,0.08885873,0.95252031,-0.04312960,0.29207386,0.07441608
1759199265423,0.04472137,0.49227050,2.16500821,-0.19230902,0.40547784,0.01313471,0.95176592,-0.04420653,0.29434453,0.07448963
1759199265434,-0.05601517,0.01780252,0.63320881,-0.20919627,0.36788727,0.05099215,0.95102947,-0.04540941,0.29645989,0.07478283
1759199265446,-0.54214213,-1.40243379,-0.08377358,-0.16976752,0.29198707,0.07357844,0.95043981,-0.04636011,0.29809501,0.07519487
1759199265457,0.17248474,-0.44689229,0.53978696,-0.17973988,0.21238906,0.05684382,0.94999106,-0.04736665,0.29928439,0.07551320
1759199265468,-0.12268207,-1.41261036,0.86177644,-0.21353596,0.18644016,-0.02952959,0.94960411,-0.04859448,0.30035642,0.07534340
1759199265480,0.35440160,0.18671756,0.60065243,-0.18377997,0.18132326,-0.10083572,0.94925894,-0.04966960,0.30141716,0.07475351
1759199265490,-0.65203506,-1.16553084,-0.92765931,-0.09604972,0.08922793,-0.15213617,0.94914936,-0.05015945,0.30187223,0.07397762
1759199265501,-0.38048091,0.57881020,1.22339816,-0.09944775,-0.00823217,-0.20739740,0.94922357,-0.05071139,0.30182654,0.07282656
1759199265512,0.60678015,-1.00527933,0.19285543,-0.16809947,-0.12066735,-0.13683199,0.94943996,-0.05162753,0.30116890,0.07208083
1759199265523,0.30598166,3.01621466,1.58223917,-0.53584824,-0.11448396,-0.14997034,0.94953691,-0.05457469,0.30053924,0.07125599
1759199265535,0.94590868,-2.91691182,0.58704951,-0.19296254,-0.08785099,-0.06944104,0.94967184,-0.05577106,0.29999456,0.07082546
1759199265545,-1.54133766,-2.48941683,-1.62030420,-0.04438197,-0.18811060,-0.39013279,0.95009881,-0.05599297,0.29905401,0.06887480
1759199265556,0.04527554,-1.70738451,1.15239275,0.13174505,-0.17305209,-0.34464104,0.95058006,-0.05526179,0.29809357,0.06696204
1759199265569,0.24902391,-0.37226613,0.39608897,0.26569943,-0.14652766,-0.30030673,0.95107178,-0.05366759,0.29721441,0.06516020
1759199265581,0.60692979,3.87917533,0.98615744,-0.02178157,-0.06835123,-0.39289270,0.95135332,-0.05379937,0.29680088,0.06278320
1759199265591,2.05471496,1.02292900,0.05785099,-0.24108568,-0.03582578,-0.19813261,0.95140511,-0.05500480,0.29662175,0.06179253
1759199265601,-0.82694773,-2.91526773,-0.30362468,-0.08404814,-0.10725799,-0.14575258,0.95160048,-0.05543764,0.29606937,0.06104191
1759199265612,-0.87602772,1.75087712,1.27157258,-0.05543087,-0.07361717,-0.21236134,0.95178770,-0.05575083,0.29565344,0.05984207
1759199265623,-0.46537526,-2.71959939,-0.71822984,0.07114650,-0.11518763,-0.27645283,0.95209577,-0.05536664,0.29503142,0.05834922
1759199265635,-0.54823086,0.72751427,1.15337679,0.04651194,-0.08685499,-0.27368980,0.95236102,-0.05509919,0.29453201,0.05677550
1759199265646,1.60600571,-0.12890067,0.17201391,-0.03387531,0.01917751,-0.28592459,0.95241005,-0.05528551,0.29463748,0.05520292
1759199265657,-0.06631838,2.35591730,0.88259084,-0.21401591,0.05408023,-0.32275495,0.95234847,-0.05649470,0.29494304,0.05337935
1759199265669,0.00602587,-0.08442128,0.51793968,-0.19505236,0.15758186,-0.23258712,0.95205016,-0.05771378,0.29592792,0.05192568
1759199265679,1.39208126,0.15940404,-0.31155286,-0.20653387,0.24811945,-0.24756808,0.95165950,-0.05876710,0.29719333,0.05066309
1759199265690,-1.42332362,-0.54149423,0.30938877,-0.12801785,0.17976707,-0.16952729,0.95136116,-0.05945839,0.29816407,0.04974764
1759199265701,-1.19382370,0.79778169,0.85803055,-0.05325835,0.12487449,-0.14362415,0.95116651,-0.05975398,0.29885713,0.04895053
1759199265713,-30.89771444,29.23214025,23.19260894,-2.33562816,-3.13692686,2.48530832,0.95487430,-0.07318384,0.28081980,0.06324105
1759199265724,59.18323948,-40.83379742,-30.80785670,0.47723518,2.01759815,-1.33363183,0.95217254,-0.07053519,0.29201747,0.05583939
1759199265736,-39.66116260,3.49230776,8.21682247,0.25473514,-0.67675064,-0.68616065,0.95376540,-0.06899404,0.28792313,0.05168812
1759199265746,11.52698870,17.73837466,8.83597870,0.08350184,-1.09815688,1.12252284,0.95512879,-0.06857235,0.28237743,0.05735686
1759199265757,2.31599998,-6.16289499,-6.89876572,0.47696109,-0.25227342,-0.42455826,0.95585324,-0.06597292,0.28100254,0.05504302
1759199265779,-0.05269040,-0.54011659,-0.69583778,0.25271380,0.06425702,-0.10594938,0.95589978,-0.06316779,0.28171580,0.05386698
1759199265791,-1.77030007,0.05563962,2.31805255,0.56043672,-0.00667473,-0.01146459,0.95612607,-0.05988924,0.28167675,0.05379991
1759199265803,-0.25313781,0.84731823,-1.00130905,0.32977296,0.16932149,-0.01754292,0.95595548,-0.05792709,0.28268421,0.05369553
1759199265813,2.31565440,0.05364739,0.70935398,0.35558749,0.44378628,-0.04357922,0.95542579,-0.05618471,0.28485877,0.05348199
1759199265814,38.83407076,93.00854597,185.75167456,0.55328290,4.09569763,0.77529873,0.95462075,-0.05582508,0.28752097,0.05398594
1759199265824,-6.03894943,-11.63377141,-25.78371605,-0.07141200,0.54151640,0.12916088,0.95376096,-0.05617499,0.29017440,0.05461883
1759199265836,0.72563756,0.02839161,-0.63724005,-0.03936391,0.49838430,0.11578638,0.95279203,-0.05641118,0.29316470,0.05531354
1759199265846,-2.20976449,0.32525755,-0.14370666,-0.06454391,0.46890961,0.05819394,0.95199314,-0.05675003,0.29562648,0.05561906
1759199265858,0.80728218,-0.29845565,0.10992252,0.04112796,0.45475685,0.02203270,0.95119093,-0.05651560,0.29821859,0.05574465
1759199265869,-0.36611014,0.45680405,1.69879256,0.12904105,0.28100253,0.12577211,0.95069726,-0.05579297,0.29979221,0.05644897
1759199265880,-0.73412927,-0.63078098,1.13825675,0.23043623,-0.04521101,0.00639971,0.95084978,-0.05450253,0.29953903,0.05648481
1759199265892,1.56567834,-1.11211389,0.43647982,0.19516787,-0.25556907,-0.10265238,0.95142452,-0.05335104,0.29803117,0.05587916
1759199265903,1.25878223,-0.82052997,0.24794958,0.00663322,-0.38120935,-0.21487778,0.95212318,-0.05331588,0.29601076,0.05474031
1759199265913,1.36439255,1.02727300,0.52862254,-0.20594043,-0.46625655,-0.24147881,0.95289890,-0.05440737,0.29353960,0.05346047
1759199265924,0.22915514,-0.09090550,-0.16753642,-0.18068003,-0.47674687,-0.19714751,0.95372751,-0.05542821,0.29084598,0.05234659
1759199265935,0.03874629,-2.58062026,0.12104644,-0.04027107,-0.54903048,-0.31196387,0.95469585,-0.05564366,0.28790867,0.05067758
1759199265946,-0.67303943,0.31732671,0.61450745,-0.01466581,-0.68180506,-0.34133038,0.95591168,-0.05572432,0.28415874,0.04880026
1759199265958,2.26397268,0.50516959,-3.98501966,-0.07247318,-0.41784805,-0.12036076,0.95663330,-0.05614104,0.28175611,0.04810819
1759199265969,-2.95208977,2.19003699,1.25513503,-0.33228766,-0.43464788,-0.06033635,0.95724184,-0.05796863,0.27936555,0.04777634
1759199265980,0.10884726,0.63265907,0.16267490,-0.46060921,-0.32195690,-0.08887437,0.95764499,-0.06064016,0.27749820,0.04726087
1759199265992,2.04314368,-0.58847959,-1.47091931,-0.44427396,-0.02814952,-0.02838942,0.95753672,-0.06315031,0.27733915,0.04710047
1759199266003,-0.63463065,-0.42957401,0.28141097,-0.54687800,-0.03493270,0.03619097,0.95737649,-0.06621282,0.27714353,0.04730314
1759199266014,1.35825929,-1.98734408,-0.62329755,-0.36276425,0.09476733,-0.00122235,0.95708834,-0.06818989,0.27766001,0.04729648
1759199266024,-0.99732209,-0.66790875,-0.06979590,-0.28545968,0.07466686,-0.21296529,0.95692440,-0.06966001,0.27804455,0.04619970
1759199266035,1.09206885,-0.85784875,1.60242165,0.01693856,0.06129202,-0.40481473,0.95693856,-0.06956261,0.27839698,0.04387202
1759199266046,-13.38739739,8.80781904,30.79742285,0.71716493,-2.89255589,0.89976371,0.96142322,-0.06565406,0.26263255,0.04877573
1759199266058,10.95078571,0.26138628,-15.26719448,0.79457307,-1.83394919,0.27250233,0.96441004,-0.06116472,0.25227073,0.05031537
1759199266069,3.24834114,-3.39360188,-12.68264809,0.19503803,-0.68422438,-0.56057059,0.96568512,-0.06002375,0.24826802,0.04703603
1759199266080,-3.91769706,-5.67207012,0.88422608,0.53807188,-0.55526221,-0.32195214,0.96672890,-0.05706436,0.24521408,0.04526530
1759199266091,-1.56999445,3.58107065,2.07079142,0.63279678,-0.75082468,-0.09408433,0.96793337,-0.05374217,0.24127225,0.04477135
1759199266102,2.15006970,1.10370253,-0.12488681,0.69292493,-0.40704086,-0.08513952,0.96873515,-0.04982715,0.23897247,0.04429031
1759199266113,8.13980892,2.30083309,-6.04904693,0.38609142,0.77337952,-0.09553671,0.96778974,-0.04766503,0.24330339,0.04375531
1759199266136,-3.02308346,-0.07481224,-0.82197433,0.00564355,0.64103345,0.07909472,0.96591052,-0.04760154,0.25051502,0.04464512
1759199266147,2.42121303,1.57880072,1.00101751,0.34824228,1.51232252,0.32696244,0.96362122,-0.04559915,0.25921088,0.04652516
1759199266158,-0.09165046,-3.41126947,0.76389561,0.67929765,1.25281790,0.09791484,0.96190099,-0.04189698,0.26603873,0.04705879
1759199266170,-0.44720695,2.55611833,1.77890419,0.73004973,1.01065950,0.08410950,0.96042493,-0.03769919,0.27185003,0.04754242
1759199266171,367.55783315,224.99788194,363.56347575,8.60657276,6.12840256,0.78065713,0.95939092,-0.03167459,0.27613991,0.04808888
1759199266181,-52.39003618,-31.97965847,-48.86930424,1.08780426,0.59066342,-0.09725207,0.95875193,-0.02645313,0.27897509,0.04762207
1759199266192,0.57518987,-1.68417749,2.15009676,1.25992676,0.29714828,-0.44637318,0.95855183,-0.01927155,0.28066884,0.04507775
1759199266203,0.22363576,-1.50283767,-3.41396189,1.42076321,0.13795241,-0.50130354,0.95858044,-0.01159943,0.28141378,0.04237071
1759199266214,2.02261267,2.54479690,-3.53463782,1.15456527,0.51001085,-0.81510462,0.95800178,-0.00530705,0.28419334,0.03792839
1759199266225,0.18788266,2.34481622,-0.30836003,0.93253096,0.45421487,-0.38523520,0.95734737,-0.00013150,0.28671423,0.03579033
1759199266236,-5.43944993,0.61413925,3.51068020,0.88643801,0.22830039,-0.37908375,0.95703138,0.00478823,0.28798130,0.03368642
1759199266247,6.67945510,-4.53744022,-0.74713874,0.99467170,0.25963776,-0.43309933,0.95664965,0.01010972,0.28937036,0.03136934
1759199266258,-13.62428621,0.23437279,-0.63167151,0.33246352,-1.11750143,-0.33665553,0.95859231,0.01200477,0.28300060,0.02945040
1759199266270,0.54719500,-2.52453560,-4.03500843,0.29786546,-1.59831759,-0.38693993,0.96132353,0.01373239,0.27373036,0.02720615
1759199266281,12.14941409,4.02495134,-2.25354174,-0.02677669,-0.23242619,-0.03879992,0.96169135,0.01358645,0.27246364,0.02699469
1759199266292,0.72871864,2.32010029,1.98992698,-0.30651230,0.36817559,0.13891582,0.96111593,0.01190063,0.27448860,0.02775873
1759199266303,-3.11024371,1.43271544,-0.85139129,-0.59636862,0.75223911,0.36267496,0.95985513,0.00850133,0.27877637,0.02982597
1759199266314,-1.47085331,-5.43027850,-0.55564041,-0.00043313,0.47173987,-0.08997811,0.95908592,0.00849886,0.28146528,0.02931310
1759199266326,-6.16010455,-1.87725607,2.77470254,0.38812349,-0.13714886,-0.51384391,0.95938535,0.01076939,0.28066296,0.02630711
1759199266337,6.53568274,3.15203529,3.31850133,0.41644140,-0.07138571,-0.14420869,0.95948834,0.01295570,0.28028819,0.02555002
1759199266347,3.11883888,2.95469851,1.09273414,0.12798708,0.42395474,0.28130540,0.95877880,0.01363404,0.28253515,0.02704093
1759199266359,-1.32307132,0.59148846,-0.94163944,-0.05037484,0.51552825,0.51537611,0.95781613,0.01334438,0.28549944,0.03000435
1759199266370,-0.89448521,-3.27661507,-2.03068154,-0.03782170,0.63037053,0.10105573,0.95669353,0.01312312,0.28918710,0.03059552
1759199266382,-1.98507981,-4.69535165,-0.40058641,0.13899334,0.39531456,-0.28533393,0.95603189,0.01393623,0.29149969,0.02892632
1759199266392,7.51506060,-3.55761275,-4.17596255,0.11234517,0.41583633,-0.22948402,0.95542116,0.01449796,0.29357887,0.02777890
1759199266403,-5.38949859,6.39617525,3.83891932,-0.74020651,-0.13503595,0.05585127,0.95568838,0.01050085,0.29284968,0.02808050
1759199266414,2.06591122,1.67034400,3.17393365,-1.10839749,-0.08787718,0.30636576,0.95583290,0.00440466,0.29236636,0.02976551
1759199266425,0.53581286,0.94449327,-2.88255136,-1.06440092,0.78540910,-0.14367470,0.95451013,-0.00155599,0.29676465,0.02896093
1759199266438,-5.13757005,0.47548982,-1.94909169,0.02416893,0.95949306,0.43618095,0.95250647,-0.00140251,0.30285743,0.03173068
1759199266447,-4.52726444,0.64731630,4.84771010,0.61625653,-0.29905215,-0.01712851,0.95295948,0.00152471,0.30143693,0.03164932
1759199266459,12.59036582,-4.45287481,-1.68081467,0.03493728,0.15442755,-0.82304528,0.95282713,0.00172035,0.30230172,0.02704026
1759199266470,-2.44427233,1.38264322,2.20976479,-0.32583436,0.12263639,-1.00311447,0.95275174,-0.00013690,0.30300075,0.02132251
1759199266481,-0.41387073,7.56507994,-1.29905631,-1.05670134,0.27775441,-0.72283486,0.95232670,-0.00594876,0.30452840,0.01734692
1759199266503,-0.30654188,-2.78956189,-2.72208112,-0.28860040,0.30654387,-0.17034872,0.95123910,-0.00915222,0.30793104,0.01545605
1759199266514,-5.86094531,-6.12997929,-6.17587102,0.64530440,-0.07304207,-0.26638314,0.95142394,-0.00550625,0.30751835,0.01395098
1759199266526,1.88630566,2.23126480,3.32892571,0.46144919,-0.55931544,-0.58156595,0.95249353,-0.00289907,0.30435822,0.01066514
1759199266537,4.76179073,5.45600284,2.07527782,-0.22788992,0.02904035,-0.82766978,0.95247692,-0.00419804,0.30452375,0.00594742
1759199266548,-0.86468283,-0.83841540,-0.23109671,-0.24476726,-0.06179556,-0.71958345,0.95259710,-0.00556873,0.30417769,0.00191775
1759199266560,-0.53313466,-1.62031121,-2.61578101,0.27036628,-0.03200512,-0.50972285,0.95266343,-0.00405468,0.30399846,-0.00093670
1759199266571,1.78561028,0.78604887,-0.04823074,0.40418964,-0.13948482,-0.15291731,0.95292254,-0.00175080,0.30320340,-0.00180833
1759199266583,2.57997057,0.48269918,-1.01073261,0.31151874,-0.23895686,0.02380984,0.95337184,0.00008716,0.30179356,-0.00166785
1759199266593,-1.81428067,-0.32513823,0.14999458,0.43654015,-0.42812934,-0.32535265,0.95405974,0.00233534,0.29958869,-0.00334341
1759199266604,-0.20320852,0.62067447,-0.07487476,0.30034597,-0.32966688,-0.64116607,0.95461741,0.00403229,0.29772607,-0.00696600
1759199266615,1.31330548,-0.12065005,-1.15419400,0.23304114,-0.30641722,-0.92514830,0.95508855,0.00532567,0.29602546,-0.01210057
1759199266627,-1.21516860,0.39481328,-0.19709055,0.29820462,-0.30505427,-0.98639896,0.95552703,0.00702544,0.29428665,-0.01772305
1759199266638,0.78698327,0.44884450,-0.76511201,0.36578081,-0.22339398,-0.68099517,0.95581337,0.00905552,0.29304681,-0.02150257
1759199266649,0.93595436,-0.31311633,-1.02828397,0.44852020,-0.25887444,-0.46289907,0.95616775,0.01156724,0.29159711,-0.02409481
1759199266660,0.42224881,-1.31144714,1.67297268,0.33261825,-0.38522157,-0.57857914,0.95670679,0.01341327,0.28945913,-0.02730592
1759199266672,1.49816739,0.04408527,1.19847589,0.19929109,-0.26009659,-0.44153174,0.95707775,0.01459905,0.28791156,-0.02993303
1759199266694,-3.48929597,-1.23842485,1.24607006,0.10711268,-0.06958451,-0.29463754,0.95718304,0.01578800,0.28713917,-0.03320351
1759199266716,1.81816650,0.13841972,-1.86538321,0.07843076,-0.10266093,-0.71754647,0.95720032,0.01664290,0.28602017,-0.04102477
1759199266748,-0.91971565,-0.34081138,0.95638078,-0.02057765,0.04439175,-0.31351249,0.95677226,0.01631880,0.28671934,-0.04596259
1759199266750,858.58138648,16.04361631,-466.94550760,-0.22419028,-0.16765161,-4.29133740,0.95661904,0.01610582,0.28656007,-0.05003936
1759199266770,-79.76063312,-1.87324938,44.41100112,0.03931743,-0.00729821,-0.17553417,0.95653877,0.01650882,0.28648526,-0.05183859
1759199266782,3.83724395,-0.39289328,-2.64399348,-0.01266016,0.14321035,-0.36413512,0.95617087,0.01643476,0.28732304,-0.05396878
1759199266794,-1.84394926,-0.02215714,2.36488425,-0.12762326,-0.13176480,-0.34723007,0.95630322,0.01565626,0.28651928,-0.05608688
1759199266804,6.74488561,-0.09387787,0.02129446,-0.29181793,0.03961192,-0.20163950,0.95620990,0.01424094,0.28671139,-0.05706483
1759199266815,-3.36493789,-1.37770421,1.50522676,-0.21155404,-0.19463364,-0.13105635,0.95650357,0.01307739,0.28564091,-0.05778564
1759199266826,-1.35510890,0.26603601,1.12813574,-0.15682552,-0.18996040,-0.10876922,0.95679522,0.01219917,0.28457713,-0.05839475
1759199266837,-1.67486765,0.74954864,-2.13409434,-0.22092935,-0.04028174,-0.06163598,0.95685506,0.01098406,0.28435558,-0.05873375
1759199266848,0.04302427,-0.59231706,5.20266472,-0.01443599,-0.33412917,0.06663626,0.95742773,0.01090394,0.28250116,-0.05836392
1759199266860,2.85178772,1.55324699,-1.55923228,-0.26211515,0.16871369,-0.08160714,0.95712034,0.00935746,0.28349657,-0.05884540
1759199266871,-6.70751333,-0.98607394,1.86339330,-0.02925638,-0.30108767,-0.28969447,0.95752219,0.00919216,0.28179543,-0.06048217
1759199266882,4.40432357,2.47896844,2.87345524,-0.08888442,0.10889348,-0.06068268,0.95733267,0.00871218,0.28238345,-0.06080986
1759199266893,-1.88415993,-1.57664958,-0.33287470,0.00571627,0.17285266,0.11841026,0.95709261,0.00874362,0.28333414,-0.06015860
1759199266904,-1.16401467,0.76476207,-1.68715627,-0.05052041,0.26223638,0.23050395,0.95674583,0.00846576,0.28477644,-0.05889083
1759199266915,-1.21314106,-2.95040815,1.97951885,0.16491301,0.09464665,0.28329961,0.95667628,0.00938103,0.28530173,-0.05731852
1759199266926,2.67982382,1.96588687,2.73155652,-0.17759514,0.38304772,-0.20820446,0.95600416,0.00843089,0.28735104,-0.05843241
1759199266937,-3.68139939,3.22173480,-1.23189769,-0.25818508,0.31478907,-0.25458533,0.95540140,0.00699797,0.28909812,-0.05984536
1759199266948,-0.96548104,0.63605639,-1.57990731,-0.03822410,0.35682720,0.07097937,0.95481564,0.00678200,0.29111419,-0.05944433
1759199266960,-0.49947963,-3.68259492,-0.49506822,0.30643071,0.21743569,0.08441509,0.95443989,0.00858994,0.29239706,-0.05894628
1759199266970,0.38448077,2.73155082,3.08695889,0.24466784,0.16199933,0.20569928,0.95423260,0.00987445,0.29324756,-0.05786636
1759199266981,0.32844716,0.46041715,-0.04083892,0.21054567,0.24998859,0.27760699,0.95388769,0.01103245,0.29462250,-0.05633952
1759199267021,-0.63792934,-0.61560948,-1.67139590,0.05565265,0.07913752,0.03380675,0.95343291,0.01212324,0.29617359,-0.05567690
1759199267039,0.73865120,2.29535512,6.13901748,0.19465807,0.47664106,0.23945891,0.95218941,0.01387516,0.30046336,-0.05352177
1759199267050,0.68805408,-0.22841458,-4.19198270,0.53895754,0.11413960,0.27260560,0.95201714,0.01700112,0.30112537,-0.05194066
1759199267060,-1.70477913,1.41499303,-0.92977936,0.39440567,0.12834281,-0.02300771,0.95176290,0.01903231,0.30178634,-0.05205915
1759199267073,-0.68665243,-1.65709848,-2.08905560,0.28266825,0.01136412,0.06806448,0.95172780,0.02074245,0.30185509,-0.05164736
1759199267094,0.13474442,-1.38521158,-1.15393379,0.11289558,0.02209730,0.08353456,0.95167377,0.02195043,0.30209153,-0.05075354
1759199267105,0.99462550,1.77488982,0.78260706,0.13997366,0.07920142,0.25396228,0.95159309,0.02269929,0.30251526,-0.04939484
1759199267115,-0.79518560,-0.99669747,-1.26699888,0.17294597,0.01801278,0.07550912,0.95156173,0.02359861,0.30260892,-0.04900220
1759199267126,-0.01699627,0.32468361,0.25216619,0.08345918,-0.05799171,-0.06127446,0.95163551,0.02406598,0.30228417,-0.04934533
1759199267137,-0.86731971,0.27462471,-0.72575868,0.23221074,-0.16270828,0.05424280,0.95190158,0.02534314,0.30138927,-0.04904700
1759199267148,2.70142043,0.09778117,-0.94283711,-0.12003920,0.18408614,-0.04283921,0.95158560,0.02468293,0.30240175,-0.04928261
1759199267172,-1.22932893,-0.97062922,-0.38471108,0.05573227,-0.09616437,0.02140400,0.95193972,0.02533778,0.30127182,-0.04903112
1759199267182,-1.33198163,1.58535304,2.23263249,-0.02092026,-0.05076853,-0.16253109,0.95198181,0.02523004,0.30101036,-0.04986815
1759199267194,0.47676216,-1.43075953,-2.09684391,-0.01909621,-0.00416988,0.19803250,0.95205186,0.02511928,0.30098617,-0.04871956
1759199267204,-0.19585781,-0.65378218,-0.34010627,0.05287407,-0.05189246,0.07669108,0.95215110,0.02539687,0.30071374,-0.04831694
1759199267217,0.54542546,-0.17418779,-0.40808410,-0.06932278,-0.11263476,0.00138509,0.95239251,0.02494974,0.29998724,-0.04830800
1759199267228,-0.17267511,0.00650651,-0.86738049,-0.04109824,-0.17864299,-0.07756120,0.95268029,0.02472781,0.29902257,-0.04872683
1759199267238,0.11349810,0.02573281,-0.36283745,-0.01510753,-0.18649842,0.03358097,0.95298904,0.02465076,0.29807143,-0.04855557
1759199267249,-0.02185335,-0.43796885,0.20751668,-0.04176881,-0.09734518,0.03220096,0.95316795,0.02442521,0.29754577,-0.04838168
1759199267261,-0.33554940,-0.95184436,-0.74376398,-0.15101677,-0.06424977,0.15336327,0.95336038,0.02350401,0.29715384,-0.04744617
1759199267271,0.38724367,-0.12594435,1.86523494,-0.13933301,-0.22505673,0.25008434,0.95379722,0.02279341,0.29600605,-0.04617074
1759199267282,0.25622587,-0.02155750,0.83341406,-0.10033862,-0.09123641,0.16470658,0.95400733,0.02224656,0.29550882,-0.04527309
1759199267294,0.43660271,1.48080871,-0.23447572,-0.18661112,-0.08898711,-0.00755872,0.95418646,0.02118288,0.29500159,-0.04531617
1759199267304,-1.05813080,0.22748833,-1.47980895,-0.10753192,-0.13773379,-0.03376249,0.95441796,0.02060758,0.29426471,-0.04549680
1759199267316,0.58634560,-0.37656569,-0.10117263,-0.02204033,-0.15268135,-0.08876429,0.95466431,0.02048195,0.29339443,-0.04600276
1759199267327,-0.06549769,0.48743550,0.24814428,0.06163176,-0.13540154,0.00580173,0.95489111,0.02082709,0.29263618,-0.04597027
1759199267339,0.20690211,-1.93164760,-0.04869368,0.09097474,-0.05549219,-0.07271395,0.95495935,0.02136839,0.29230600,-0.04640292
1759199267349,-0.47618101,1.27963409,2.63633598,-0.07046153,-0.15785078,-0.24405915,0.95514833,0.02101608,0.29151675,-0.04762321
1759199267361,1.50936111,0.24409146,0.00848116,-0.04118032,-0.03050967,0.10052362,0.95524401,0.02075665,0.29132454,-0.04698991
1759199267372,-1.54592375,-0.73928923,-2.20392016,-0.00053906,-0.00381089,0.14101578,0.95528591,0.02075384,0.29130472,-0.04625663
1759199267383,-0.10664464,-0.10830544,2.48810634,-0.00511711,-0.04675665,0.05876096,0.95537877,0.02072621,0.29105223,-0.04593932
1759199267393,0.24959063,0.43745367,-0.09963001,-0.05280000,0.03381081,0.17560058,0.95537436,0.02043845,0.29123650,-0.04498230
1759199267406,0.29645518,0.23194786,-0.21986055,0.01207994,-0.02617828,0.07961943,0.95544418,0.02051214,0.29107682,-0.04449662
1759199267417,0.68396350,0.01933255,0.12819723,-0.05450164,-0.03564845,-0.06008971,0.95549483,0.02021238,0.29088075,-0.04482711
1759199267427,0.54453677,0.42215466,0.40983014,-0.18424174,0.03456368,-0.16056774,0.95542107,0.01926354,0.29105875,-0.04565404
1759199267438,-0.24732116,0.11592035,0.01052306,-0.09714150,-0.01941748,-0.00300165,0.95546382,0.01872440,0.29095099,-0.04567070
1759199267450,0.16666455,-0.56362420,0.08568076,-0.05819467,0.03569310,0.00001177,0.95540731,0.01838687,0.29115801,-0.04567063
1759199267460,0.53890321,-0.20017008,0.37522296,-0.16809403,-0.00561861,0.08444709,0.95545485,0.01748757,0.29112795,-0.04521884
1759199267472,0.27276554,0.55305789,-0.19892261,-0.05497449,0.05615918,0.12492007,0.95539637,0.01717421,0.29144805,-0.04450679
1759199267482,-0.43527216,0.90912039,-1.32269409,0.11309394,0.03410563,0.14161485,0.95536492,0.01777361,0.29162881,-0.04375623
1759199267493,-0.35193558,0.59510329,-0.34518017,0.13917537,-0.12632180,-0.00759678,0.95556381,0.01855299,0.29092141,-0.04379877
1759199267505,0.77660211,0.42858958,0.19641061,0.14940439,-0.04622641,-0.01995756,0.95562034,0.01938219,0.29066485,-0.04390954
1759199267516,0.30734245,0.34572661,0.53969332,0.04365258,-0.02433644,-0.21035057,0.95560177,0.01962883,0.29052735,-0.04509802
1759199267527,-0.01528067,-0.21748158,-0.18091470,0.08962907,-0.08684113,-0.25817702,0.95566734,0.02011282,0.29005841,-0.04649218
1759199267538,-0.73646347,0.48980074,-1.19035582,0.08222943,-0.05922917,-0.06297210,0.95574158,0.02057742,0.28972377,-0.04684797
1759199267549,0.12657459,-1.85821308,0.30674186,0.09507755,-0.06781432,-0.02646791,0.95583774,0.02110985,0.28934401,-0.04699619
1759199267561,0.39373287,0.85934092,0.27168591,0.06749763,0.01958104,0.06297340,0.95581295,0.02149459,0.28945562,-0.04663724
1759199267572,-1.21044285,-0.58920627,-0.41529924,0.06775593,-0.11331390,0.00460338,0.95599589,0.02187063,0.28882673,-0.04661169
1759199267583,0.36219527,-0.02084731,0.69574796,0.01284464,-0.01839187,0.08459128,0.95604833,0.02194256,0.28872373,-0.04613798
1759199267594,0.02774911,0.34520087,0.21292791,0.06583010,-0.07929739,0.13089950,0.95621032,0.02231450,0.28827570,-0.04539840
1759199267605,-0.24213325,-0.37441974,-0.39616470,0.11946584,-0.05733865,0.07237749,0.95630503,0.02294767,0.28797181,-0.04501480
1759199267606,42.03252073,19.82307728,-36.81969634,0.75885444,-0.49893959,0.47633277,0.95641288,0.02347887,0.28762255,-0.04468136
1759199267628,-2.72444950,-1.30653452,2.18812205,0.00067999,-0.02510760,-0.02742414,0.95648157,0.02348635,0.28734637,-0.04498303
1759199267638,0.28247183,0.28732148,-0.99840489,0.13353651,-0.39462905,-0.09627220,0.95703276,0.02415403,0.28537322,-0.04546439
1759199267640,31.22538328,22.54033461,-67.78677925,-1.72172006,1.70517429,-1.35016576,0.95660677,0.02277666,0.28673736,-0.04654452
1759199267650,-6.11794902,-3.99768324,9.69611817,0.26978938,-0.23676953,-0.03481235,0.95694103,0.02422003,0.28547064,-0.04673077
1759199267662,0.30060599,0.11815833,1.11410107,0.03598099,0.07506462,0.03876830,0.95682099,0.02442152,0.28589100,-0.04651367
1759199267672,0.54331237,0.25922894,1.38378616,-0.04786419,0.13859889,0.18360278,0.95665288,0.02416545,0.28663251,-0.04553139
1759199267683,-0.21192865,-0.31547141,-0.05109693,0.11815004,0.05322784,0.17934343,0.95659492,0.02481528,0.28692526,-0.04454500
1759199267695,-0.20852203,-0.30282642,-0.14043507,0.09532974,0.05072888,0.00135114,0.95649425,0.02535866,0.28721442,-0.04453730
1759199267706,0.26832029,0.39511735,-0.57513254,-0.00978318,0.04841477,-0.11948519,0.95638485,0.02530485,0.28748070,-0.04519447
1759199267717,0.19571919,0.19982841,-0.39983926,0.07706375,0.00766606,-0.19067841,0.95631141,0.02572485,0.28752248,-0.04623367
1759199267730,-0.27730165,0.45073651,0.50492815,0.01438740,-0.13997748,-0.04464453,0.95657381,0.02582052,0.28659163,-0.04653055
1759199267783,0.03952302,-0.10704052,0.00334509,-0.02014311,0.01143194,-0.01941009,0.95647305,0.02529177,0.28689172,-0.04704007
1759199267816,-0.20346238,0.09820286,-0.07343137,0.07581861,-0.14013550,-0.27374490,0.95690197,0.02655794,0.28455145,-0.05161161
1759199267839,-0.10805076,0.07073936,0.08878840,0.22710941,-0.16677782,0.29873268,0.95757609,0.02918105,0.28262517,-0.04816125
1759199267862,0.32315031,-0.12393200,0.55526450,-0.06099612,-0.12886262,-0.04361934,0.95800986,0.02847655,0.28113681,-0.04866505
1759199267886,-0.19370730,-0.22996472,-0.07235458,0.01865882,-0.05034152,0.11830216,0.95824630,0.02869579,0.28054529,-0.04727500
1759199267909,0.13529101,-0.02922021,0.63445701,-0.12209708,-0.03108700,0.10291374,0.95845043,0.02728556,0.28018624,-0.04608635
1759199267940,0.04576975,0.17005312,-0.40792854,0.02272713,0.00469846,0.03714370,0.95844654,0.02763897,0.28025930,-0.04550876
1759199267963,-1.14902368,1.14797095,1.11609932,0.23012783,0.01427051,-0.28065384,0.95815598,0.03031996,0.28042555,-0.04877838
1759199267973,-2.50833485,-0.42273251,4.21607699,0.38945066,0.24324849,-0.12217354,0.95770425,0.03226721,0.28164179,-0.04938925
1759199267996,0.78002465,-0.93837414,-1.32551998,0.18922944,0.13259992,-0.04800220,0.95715487,0.03442443,0.28315343,-0.04993647
1759199268017,0.60527024,-0.01920436,-1.03353071,0.06255071,0.14391532,0.00328794,0.95668898,0.03507496,0.28465015,-0.04990228
1759199268028,-3.25994873,-0.84252425,2.81307493,0.08920437,0.19815780,-0.07857506,0.95632326,0.03556558,0.28574002,-0.05033444
1759199268039,2.19932085,1.79908109,0.97023423,-0.04210623,0.28078720,0.25103371,0.95593376,0.03532979,0.28731243,-0.04892865
1759199268050,0.38674407,-1.82095444,-1.25708096,0.00936079,0.29228061,0.39971532,0.95555727,0.03538127,0.28891997,-0.04673022
1759199268062,-0.51168278,0.24672045,0.12756431,0.01162496,0.19851053,0.27372866,0.95528224,0.03544870,0.29007133,-0.04514259
1759199268074,0.33489075,-0.83634908,0.59365570,0.00820450,0.25488562,0.19057257,0.95486807,0.03549792,0.29160065,-0.04399915
1759199268084,-2.17154369,0.75255173,0.98331936,-0.14849692,0.31381397,-0.08935061,0.95438936,0.03474801,0.29318541,-0.04445037
1759199268095,0.62029168,0.34152828,-1.28866765,-0.14529165,0.31782725,0.02953446,0.95388236,0.03394164,0.29494935,-0.04428646
1759199268097,-121.94506220,44.81906826,153.98571352,0.45089124,1.15028584,1.56604393,0.95358121,0.03439254,0.29609963,-0.04272041
1759199268107,24.16932995,-10.84701113,-31.89551119,0.20103801,0.46194156,0.39417192,0.95290369,0.03540778,0.29843244,-0.04072985
1759199268118,0.11285913,3.34759994,3.21340292,-0.00445185,0.17679978,0.31558466,0.95267215,0.03538329,0.29940484,-0.03899413
1759199268129,3.09130747,-2.03898477,-1.90363636,0.11342833,0.35030770,0.39389686,0.95211237,0.03602416,0.30138408,-0.03676861
1759199268140,-3.64563578,0.17282223,-0.52062990,0.05562526,0.14402084,0.11861245,0.95187679,0.03632732,0.30216899,-0.03612218
1759199268151,0.87508314,0.19120797,-0.93395778,0.06518546,0.18268967,0.14524818,0.95156794,0.03669236,0.30319205,-0.03530879
1759199268162,-1.24977579,-0.18981716,1.18101425,-0.04726622,0.14791615,0.06480193,0.95132934,0.03643003,0.30401299,-0.03494914
1759199268174,1.63585466,0.17410501,0.62410834,-0.19981121,0.20697224,0.12637576,0.95102612,0.03531109,0.30517203,-0.03424143
1759199268185,-0.46898744,-1.30646501,-0.50284292,-0.08967024,0.17696850,0.27098410,0.95077951,0.03480894,0.30616305,-0.03272392
1759199268196,-0.03722651,0.22739665,0.38984041,-0.09941747,0.23827534,0.39603424,0.95044888,0.03426214,0.30747357,-0.03054573
1759199268207,0.02495221,-0.74795174,-0.63326478,-0.06124459,0.25429279,0.44640396,0.95006631,0.03390998,0.30893575,-0.02797891
1759199268218,-0.96202711,0.76864933,0.22141851,-0.16596064,0.28706425,0.21841140,0.94961825,0.03299720,0.31051461,-0.02677765
1759199268229,1.51821250,0.95483001,-0.02664721,-0.15139146,0.15006352,0.41933557,0.94944046,0.03217212,0.31133245,-0.02449227
1759199268241,-1.23045174,-1.46311876,-0.78708812,-0.09368268,0.16308556,0.23852548,0.94918496,0.03163344,0.31227019,-0.02312075
1759199268251,0.16451977,2.13423341,0.90077728,-0.31708170,0.16306138,0.23504250,0.94898043,0.02992120,0.31315073,-0.02185152
1759199268262,0.47165573,-1.90899063,-1.20493243,-0.12890653,0.15538955,0.33393262,0.94876060,0.02921221,0.31400537,-0.02001489
1759199268274,-0.24194221,0.36025010,-0.38725094,-0.14977355,0.18847252,0.35968952,0.94846877,0.02835102,0.31508908,-0.01794667
1759199268286,0.32275883,0.02165658,-0.21236681,-0.13662193,0.07699636,0.37540839,0.94838005,0.02753811,0.31554721,-0.01571299
1759199268296,0.27475541,-0.32329998,0.89378425,-0.12055902,0.04782012,0.48881903,0.94835540,0.02694135,0.31578392,-0.01329334
1759199268307,0.29817495,-0.17773221,-1.85131974,-0.11085383,0.09990979,0.37321856,0.94821464,0.02632611,0.31633842,-0.01122198
1759199268318,-0.64377951,0.30570205,-1.85787103,-0.14745497,-0.00028736,0.16743467,0.94824838,0.02550036,0.31633681,-0.01028434
1759199268329,0.87622045,1.24783220,-0.44090505,-0.04738663,-0.09696875,0.45927979,0.94846458,0.02523026,0.31578409,-0.00766645
1759199268340,-0.49269348,-2.51545762,0.04608312,0.11947937,-0.11772436,0.32292027,0.94866922,0.02586947,0.31515427,-0.00593882
1759199268351,0.90865925,1.43490704,-0.10691086,0.00991801,-0.08908878,0.33329936,0.94884161,0.02592452,0.31465982,-0.00408901
1759199268363,-0.26632975,0.11741687,-1.03330911,-0.05068288,-0.07376626,0.22878341,0.94899880,0.02562549,0.31422460,-0.00273919
1759199268374,-0.30297556,0.77857266,0.42630524,-0.13397452,-0.12283700,0.17174890,0.94923522,0.02491542,0.31357357,-0.00182892
1759199268385,-0.34763220,-1.90418171,-0.99816613,0.13525084,-0.19651998,0.22877535,0.94957948,0.02567283,0.31247305,-0.00054778
1759199268397,0.73792895,0.97084838,0.48921893,-0.08225021,-0.07693679,0.14650223,0.94974320,0.02518344,0.31201528,0.00032391
1759199268407,-0.92525145,-0.62887776,-1.22009926,-0.17278833,-0.12114689,0.18466068,0.94997251,0.02428494,0.31138532,0.00128415
1759199268418,0.71792873,-1.22413869,-0.64727621,-0.12924884,-0.09160589,0.27383345,0.95015057,0.02358053,0.31088606,0.00277654
1759199268430,-0.09693500,-1.16746678,0.57498595,-0.15273456,-0.12229989,0.28183883,0.95039775,0.02269467,0.31017672,0.00441120
1759199268441,0.64796483,-0.59774507,0.53305730,-0.25986584,-0.02340406,0.15682877,0.95046841,0.02126541,0.31004800,0.00527376
1759199268451,-0.14182838,1.83042944,-0.68944271,-0.28659592,0.01170307,0.20899097,0.95047419,0.01973212,0.31011061,0.00639186
1759199268464,-0.17567147,1.34332838,-0.99989641,-0.16782381,0.04581048,0.36851903,0.95038590,0.01870840,0.31039006,0.00863983
1759199268474,-1.07462289,-2.53748698,-2.89001426,0.16882344,0.07121649,0.31552412,0.95023689,0.01955251,0.31074614,0.01021745
1759199268485,1.21939105,2.61761438,1.78242012,0.00532528,-0.00196494,0.13259064,0.95023150,0.01958287,0.31073494,0.01097322
1759199268496,3.02749581,3.98917307,-0.58409237,0.01543720,-0.04988992,0.05128194,0.95031536,0.01966700,0.31046304,0.01125270
1759199268507,-2.51045458,-6.24808698,-2.11858856,0.16546879,-0.24457485,-0.39657552,0.95076180,0.02058535,0.30910565,0.00905171
1759199268518,-1.85022918,2.01173997,0.94350722,-0.21333974,-0.15325219,-0.61562650,0.95108630,0.01941198,0.30826276,0.00566576
1759199268530,5.27881407,0.77993106,0.24212776,-0.27899401,-0.10064389,0.04397763,0.95130539,0.01779382,0.30767903,0.00592083
1759199268541,-2.78602030,-4.76894062,-1.21356560,0.05917147,-0.23187950,0.12853641,0.95170612,0.01811926,0.30640369,0.00662778
1759199268552,2.25662216,3.15341914,-1.40679271,-0.12453113,-0.06925800,0.16251704,0.95183366,0.01744057,0.30602623,0.00751350
1759199268563,0.71075902,4.05213596,2.36223929,-0.06179147,-0.21793310,0.00887380,0.95223106,0.01709454,0.30480581,0.00756319
1759199268574,0.55046879,-0.87715453,-0.49616189,0.21177510,-0.23776990,0.01065043,0.95262301,0.01824871,0.30350996,0.00762124
1759199268585,0.69072767,0.25676975,-0.45440147,0.11050541,-0.22535585,-0.13907925,0.95302154,0.01887307,0.30223670,0.00683544
1759199268596,-0.42733842,-0.68771635,-1.56428343,-0.04787266,-0.29520368,-0.30569060,0.95357936,0.01859540,0.30052452,0.00506244
1759199268619,-0.97896533,-0.19504767,2.13226832,-0.08188115,-0.21991895,-0.27198193,0.95437731,0.01768243,0.29807242,0.00202984
1759199268630,2.34115564,0.85642903,-3.98733735,-0.25466857,-0.43917472,-0.45620044,0.95518329,0.01623082,0.29556913,-0.00057050
1759199268641,-0.28541643,-1.74984619,1.23577925,-0.12116269,-0.27557443,-0.41249308,0.95564090,0.01558866,0.29410858,-0.00275672
1759199268642,95.39267302,-18.54204282,-289.78128853,-0.84537005,-2.43709077,-3.97130687,0.95619842,0.01495463,0.29228077,-0.00573520
1759199268654,-12.46973565,3.99960192,40.02472994,0.00665122,-0.28427351,-0.35406849,0.95667739,0.01499254,0.29066041,-0.00775339
1759199268664,-0.33237318,0.61194898,0.63641789,0.21038568,-0.18372390,-0.20546751,0.95693510,0.01606551,0.28972342,-0.00880127
1759199268675,0.26145417,-0.35576516,1.38537313,0.17313153,-0.08939296,-0.23936558,0.95705327,0.01700907,0.28923622,-0.01010582
1759199268686,-0.31430077,-1.55157740,0.04067727,0.06059132,-0.02338339,-0.22770423,0.95707260,0.01735142,0.28910411,-0.01139234
1759199268697,-0.10534119,0.08895257,0.73358738,-0.09716760,0.02008971,-0.20649875,0.95703527,0.01682671,0.28921259,-0.01250744
1759199268708,-0.11731169,-1.99652903,-1.24890794,-0.13652734,0.13282766,-0.19895797,0.95680605,0.01605533,0.28996307,-0.01363155
1759199268719,-0.01048411,1.00353812,0.48012625,-0.22650710,0.06776029,-0.13709885,0.95670209,0.01480954,0.29033575,-0.01438559
1759199268731,0.75788138,-1.98956823,0.82612380,-0.06718011,-0.00485805,-0.15730198,0.95670243,0.01440982,0.29030684,-0.01532154
1759199268742,-0.55268677,3.67137381,0.26177338,-0.19505438,0.13116741,-0.39166868,0.95645076,0.01328826,0.29106106,-0.01757364
1759199268754,0.27625487,1.64036606,-1.25027927,-0.14311825,-0.00992280,-0.10747669,0.95646707,0.01249395,0.29100599,-0.01817013
1759199268764,0.43816137,-1.65240223,0.28419446,0.03415800,-0.07015783,-0.05421391,0.95657323,0.01267670,0.29063064,-0.01846018
1759199268775,2.41286453,-0.00043958,0.38000851,0.16106907,-0.03840602,-0.05891333,0.95661687,0.01352231,0.29042901,-0.01876947
1759199268786,-2.30226855,-1.02635920,-1.69571549,0.12527074,-0.12929310,-0.19113780,0.95679963,0.01420503,0.28972436,-0.01981117
1759199268797,0.89722087,1.12315193,-0.24233920,0.07810420,-0.13107000,-0.26904375,0.95699071,0.01466194,0.28895760,-0.02138508
1759199268808,-0.79422995,0.84788441,0.21975320,0.08598792,-0.23517190,-0.36658283,0.95732880,0.01513918,0.28765240,-0.02341961
1759199268820,2.65248168,-1.12330156,1.35188037,0.09371640,-0.18125994,-0.32644391,0.95757611,0.01565930,0.28664641,-0.02523138
1759199268831,-0.43982906,1.77844109,-0.51508111,0.02487736,-0.22795869,-0.29844726,0.95790068,0.01579488,0.28540403,-0.02685791
1759199268841,1.00930374,-1.50403773,-0.86426491,0.13842822,-0.31054229,-0.13315298,0.95836569,0.01654240,0.28372710,-0.02757694
1759199268853,-0.93146498,0.95591319,1.45081369,0.15282973,-0.36566903,-0.23960166,0.95892949,0.01742117,0.28162451,-0.02895465
1759199268864,1.68752206,-0.16284056,-0.23410897,0.13504236,-0.25471736,-0.28894414,0.95928929,0.01819091,0.28017262,-0.03060163
1759199268875,-1.89511520,1.98372780,-2.56389034,0.11772541,-0.15288688,-0.41692342,0.95944471,0.01883251,0.27933938,-0.03287386
1759199268886,-0.68014056,-1.94716167,1.15039042,0.17621568,-0.29373882,-0.41322880,0.95980694,0.01978408,0.27775319,-0.03510530
1759199268898,1.54282903,0.12955262,2.19757514,0.19048556,-0.12050293,-0.24716978,0.95993733,0.02093652,0.27702415,-0.03660068
1759199268908,1.47086037,0.08590950,1.71102522,0.08036141,-0.13258232,-0.32785200,0.96005565,0.02133832,0.27636124,-0.03823994
1759199268919,-0.45709653,-0.34668627,-0.72311418,-0.05010220,-0.08020260,-0.35499050,0.96011025,0.02105524,0.27590810,-0.04024563
1759199268931,-1.53921072,0.66716868,-0.36904155,-0.09311607,-0.08950294,-0.29549232,0.96019613,0.02052448,0.27539793,-0.04192994
1759199268942,-1.32193198,-1.02148033,-1.21950567,0.04356509,-0.03946138,-0.35779223,0.96016525,0.02076409,0.27518089,-0.04389780
1759199268953,-1.51359789,-0.99165552,0.13653206,0.15891695,-0.07301376,-0.27663342,0.96019062,0.02165403,0.27477201,-0.04544694
1759199268964,5.28775262,4.14588512,3.33541147,-0.20899099,0.29538127,-0.36257905,0.95966774,0.02053592,0.27635230,-0.04738674
1759199268976,-4.33105716,-3.07432591,0.34320315,0.16983890,0.03793586,-0.23192731,0.95951274,0.02153797,0.27657612,-0.04875511
1759199268986,1.01765212,2.09746085,0.59557683,0.01517862,0.21413411,-0.35168091,0.95909056,0.02161766,0.27770033,-0.05060144
1759199268998,-0.42363121,-0.00926426,-0.16582126,-0.01254552,0.13660038,-0.23349661,0.95876658,0.02153925,0.27855408,-0.05206079
1759199269008,-1.76022123,-1.31582032,-0.16293591,0.16615770,0.09577785,-0.24199172,0.95854633,0.02235342,0.27902339,-0.05324655
1759199269019,0.73268776,-0.61054297,0.78430021,0.06297551,0.19227699,-0.22005850,0.95816170,0.02269979,0.28008092,-0.05445687
1759199269031,-0.98806669,0.42125414,-0.18992910,-0.00319127,0.18636542,-0.25477043,0.95777079,0.02268176,0.28113388,-0.05589632
1759199269042,-0.04074576,-0.42515981,0.28938865,-0.03422035,0.17418332,-0.32419159,0.95737373,0.02248670,0.28212673,-0.05774422
1759199269053,0.32196078,2.57863867,0.77254878,0.04875143,0.15026391,-0.09823947,0.95709845,0.02274752,0.28293064,-0.05826980
1759199269064,-1.66553495,-1.34295128,0.29964325,0.22445656,0.11566737,-0.14417403,0.95682407,0.02401570,0.28358416,-0.05908438
1759199269076,1.19643922,0.71767871,-0.23322590,0.15995821,0.11121696,-0.23311391,0.95651145,0.02498345,0.28425702,-0.06049472
1759199269086,-1.66986550,1.20170164,1.45212065,0.29763731,-0.01885510,-0.30113634,0.95640413,0.02645676,0.28416369,-0.06198534
1759199269097,-0.24457934,-1.53895416,-0.16851486,0.29865847,0.07497095,-0.16972679,0.95616524,0.02815911,0.28459102,-0.06295279
1759199269108,-0.85602873,-1.19230268,0.02050779,0.28317678,0.09503822,-0.07041816,0.95594096,0.02968826,0.28510423,-0.06333305
1759199269119,-0.95390169,-0.48883876,0.56042142,0.03659673,0.24514846,-0.23576370,0.95543563,0.02989320,0.28647706,-0.06465332
1759199269170,0.25886474,0.04681561,-0.66856307,-0.00102130,0.04824124,0.03830005,0.95513175,0.02986711,0.28770962,-0.06367476
1759199269197,-0.27554230,0.91261198,2.45516617,0.27249904,0.36617454,0.38037534,0.95385513,0.03349135,0.29257975,-0.05861576
1759199269199,-42.34314104,197.32397047,373.62806046,0.50195673,1.77749968,-1.13664097,0.95334727,0.03389291,0.29400175,-0.05952508
1759199269221,3.24398981,-15.16440476,-29.68503969,0.10546004,0.23326972,0.20184140,0.95263990,0.03506352,0.29659104,-0.05728464
1759199269242,0.05386975,0.15382281,-0.15286726,0.06000216,0.09517171,0.13180065,0.95238582,0.03569654,0.29759510,-0.05589414
1759199269253,-0.59792216,0.00701164,0.63604987,0.13282075,0.18620301,-0.11674622,0.95200315,0.03642042,0.29860991,-0.05653041
1759199269264,0.68342572,1.44230086,-1.48601570,0.08634590,0.24585960,-0.08005216,0.95150769,0.03692122,0.30003589,-0.05699471
1759199269277,-0.67291558,-1.14631139,-0.03545306,0.12425658,0.14319597,-0.15417391,0.95113335,0.03770404,0.30093803,-0.05796601
1759199269286,1.41442992,-0.90351731,-0.53450935,0.13110697,0.19486991,-0.09232281,0.95079917,0.03830713,0.30183443,-0.05839069
1759199269298,-0.67807657,-0.11050117,-0.45404465,0.00770787,0.15258978,-0.16243903,0.95043990,0.03835415,0.30276523,-0.05938157
1759199269309,0.25499574,1.51604391,2.02273344,-0.01950257,0.15845121,-0.06047156,0.95016142,0.03825273,0.30358917,-0.05969602
1759199269321,0.13913963,-1.66564181,-2.18877372,0.06341678,0.04899440,-0.03046085,0.95004256,0.03862689,0.30387824,-0.05987574
1759199269331,0.62576359,0.02253350,-0.02647045,0.04975808,0.14893475,0.08338190,0.94981118,0.03888564,0.30465270,-0.05944215
1759199269333,15.42629128,-5.39358972,-48.79227972,0.23667026,1.04848333,-0.22587157,0.94950456,0.03908681,0.30554391,-0.05963414
1759199269343,-2.95144649,-0.01110261,7.34357413,-0.06323172,0.13037424,-0.10657926,0.94926464,0.03875800,0.30622186,-0.06018836
1759199269355,-0.28290933,-0.47276357,-0.23744238,-0.17556692,0.16093406,-0.00780127,0.94900575,0.03775727,0.30713918,-0.06023282
1759199269365,-0.01438907,-0.53603998,0.50849903,-0.11851293,0.10958083,0.03098285,0.94884989,0.03711730,0.30773092,-0.06006552
1759199269376,0.44434928,0.20622143,0.80584393,-0.07564641,0.18344628,0.04645644,0.94854903,0.03669368,0.30875822,-0.05980536
1759199269388,-0.13397258,0.33972374,-0.22203071,-0.04630970,0.10980673,-0.14576756,0.94830898,0.03643666,0.30936764,-0.06061437
1759199269399,-0.02692331,0.46174349,-0.48991876,-0.04853247,0.08309288,-0.09441045,0.94813038,0.03616003,0.30984127,-0.06115251
1759199269410,-0.18202171,0.00929563,-0.45125703,-0.02548258,0.03857416,-0.08530942,0.94803855,0.03602369,0.31004765,-0.06160892
1759199269432,0.06787570,0.10844578,0.57806074,-0.05440543,0.02775080,-0.00915974,0.94795199,0.03540619,0.31036262,-0.06171288
1759199269442,0.26169646,-1.34195657,-1.43431149,-0.13951677,0.13305631,0.08065761,0.94779089,0.03472954,0.31100794,-0.06132169
1759199269444,10.66438384,-118.04341451,-53.10234472,-0.36015054,0.80991266,1.21878464,0.94765992,0.03445942,0.31161537,-0.06040760
1759199269455,-0.73716060,16.77512039,8.33004058,-0.11694943,0.17635893,0.23359277,0.94744267,0.03381035,0.31259417,-0.05911116
1759199269465,-1.11621140,-0.09199555,-0.68961133,-0.07991815,0.10106678,0.10755414,0.94731500,0.03338279,0.31313487,-0.05853575
1759199269477,1.00093196,0.90864124,1.17005725,-0.16033769,0.13294079,-0.07759940,0.94707286,0.03248490,0.31387934,-0.05897030
1759199269488,-0.23783459,0.87611194,-0.43210958,0.05006888,0.06789357,-0.05723886,0.94691569,0.03276779,0.31426294,-0.05929370
1759199269499,-0.54683160,0.33633673,-0.53050923,0.11528328,0.07883338,-0.13579179,0.94670440,0.03339608,0.31469258,-0.06003377
1759199269511,0.04366327,0.09399306,0.12231450,0.07787968,0.06365812,-0.12777868,0.94651503,0.03385557,0.31506817,-0.06078766
1759199269521,0.33553759,-0.14048309,0.50239752,0.06823192,0.16882530,-0.10636418,0.94616404,0.03422061,0.31597138,-0.06135671
1759199269533,-0.21627729,-0.90619121,0.23643659,-0.05694444,0.17750405,-0.16926754,0.94577759,0.03389888,0.31697428,-0.06231307
1759199269543,0.16436995,-0.65115878,-0.13724295,-0.12158420,0.26654576,-0.11313362,0.94528148,0.03324840,0.31840030,-0.06291834
1759199269565,-0.14076787,0.11579510,0.14076497,-0.02742264,0.12602361,0.10503977,0.94490195,0.03294812,0.31978026,-0.06176815
1759199269576,0.42225177,0.43333127,0.06579759,0.20174749,0.20593859,0.23226652,0.94457366,0.03401739,0.32087173,-0.06053714
1759199269578,39.19633651,48.24289985,21.57995675,0.76481680,0.79262647,0.03406549,0.94430795,0.03470572,0.32158510,-0.06050648
1759199269588,-5.78589507,-6.69946067,-2.79996836,0.07181628,0.08800723,-0.17294413,0.94408011,0.03507917,0.32204273,-0.06140579
1759199269599,0.05929373,-0.18467251,-0.21380538,0.05984891,0.07478453,-0.35845804,0.94379450,0.03541133,0.32245779,-0.06339523
1759199269610,-0.02356559,-0.17161361,-1.01468613,-0.12590671,0.16066741,-0.22748111,0.94342636,0.03470625,0.32335753,-0.06466913
1759199269622,-0.49720412,-0.54448554,-0.29728803,-0.01574995,0.08551764,0.04620595,0.94328174,0.03461726,0.32384070,-0.06440806
1759199269633,-0.00877962,-0.89561722,0.15281292,-0.04676652,0.24194736,-0.00132523,0.94283275,0.03436005,0.32517141,-0.06441535
1759199269644,-0.10689428,-0.06009725,0.32708665,-0.13739107,0.24971360,0.02519858,0.94239467,0.03360440,0.32654484,-0.06427676
1759199269665,-0.24855168,-0.08080829,0.12841041,0.01746317,0.09533546,-0.04061656,0.94201329,0.03378689,0.32754109,-0.06470120
1759199269666,94.47220602,65.92033072,-17.46786838,-0.06682767,1.66808980,0.67001739,0.94166697,0.03374345,0.32862535,-0.06426569
1759199269677,-10.08648125,-6.54212379,1.74466042,0.07682092,0.11761115,-0.09703185,0.94137903,0.03418133,0.32929573,-0.06481877
1759199269688,0.05317233,-0.05171997,-1.02754109,0.01600298,0.11609745,-0.16528722,0.94109446,0.03426774,0.32992266,-0.06571132
1759199269699,-0.65391048,0.01432791,-2.67366672,-0.01440483,0.01878203,-0.11617596,0.94101415,0.03418636,0.33002878,-0.06636772
1759199269710,0.54369567,-0.32787568,2.31629849,-0.00745578,0.09255656,-0.13951172,0.94078250,0.03414535,0.33053784,-0.06713503
1759199269721,0.11631165,0.89560748,-0.04448404,-0.04271025,0.11789662,-0.13004505,0.94050667,0.03390617,0.33119806,-0.06786328
1759199269733,-0.32833872,-1.22449912,-0.20337044,0.06732103,0.06110878,-0.11597719,0.94032532,0.03428317,0.33154027,-0.06851276
1759199269744,-0.44863126,-0.32755619,0.03417884,0.05184244,0.12218259,-0.13507793,0.94002049,0.03457090,0.33221838,-0.06926244
1759199269755,0.19323248,0.94200058,-0.20945945,0.03068247,0.09337004,-0.09093680,0.93979562,0.03473965,0.33273192,-0.06976259
1759199269767,0.38758714,-1.35385341,-0.01369792,0.14385808,0.05974863,0.05031957,0.93966212,0.03558122,0.33308145,-0.06946822
1759199269777,-0.36159260,-0.10380386,1.27577495,0.03317890,0.00333757,-0.00283966,0.93964793,0.03575873,0.33309930,-0.06948341
1759199269789,0.91697154,0.75743400,0.23500380,-0.06787516,0.03467808,-0.03000829,0.93957682,0.03535487,0.33330564,-0.06966196
1759199269800,-1.19971591,-1.02558645,-0.37100317,0.01686936,-0.02825231,-0.04183468,0.93961103,0.03544681,0.33315166,-0.06988996
1759199269811,0.32719801,0.69384946,-0.43656211,-0.04268018,0.01093987,-0.01005120,0.93959425,0.03520993,0.33321238,-0.06994575
1759199269822,0.72451096,-0.76730417,0.82351833,-0.04833885,-0.02929454,0.06894618,0.93968686,0.03495132,0.33305565,-0.06957688
1759199269833,-0.11142341,-0.26822630,-0.15126708,-0.07495264,0.01180769,0.03174944,0.93969218,0.03452409,0.33312296,-0.06939591
1759199269844,-0.05174687,0.94680091,0.25210460,-0.11422376,-0.04333060,0.09251865,0.93983431,0.03390728,0.33288897,-0.06889631
1759199269855,0.08712506,-2.31292102,-0.70189081,-0.07751635,-0.01334957,0.00805138,0.93987763,0.03349257,0.33281755,-0.06885324
1759199269866,-0.68655857,2.55268740,0.36099335,-0.19220290,0.02013050,-0.16618790,0.93980487,0.03238740,0.33293330,-0.06980882
1759199269878,0.45655580,-0.78195886,0.46647113,-0.04214357,0.09707413,0.14674752,0.93967758,0.03214508,0.33349148,-0.06896502
1759199269889,-0.30296817,0.36870058,-0.06987264,0.15769551,0.08951571,0.11235124,0.93951341,0.03303606,0.33399724,-0.06833023
1759199269900,-0.02912854,0.44934578,0.21889691,0.01619586,0.09233775,-0.05512728,0.93930934,0.03312432,0.33450048,-0.06863068
1759199269911,0.27723136,0.46863215,-0.10158434,-0.07682574,0.13755449,-0.15548171,0.93900309,0.03271715,0.33522952,-0.06945473
1759199269922,-0.17713777,-0.16812757,-0.17375334,0.06884980,0.00746454,-0.11886681,0.93892517,0.03310271,0.33527132,-0.07012039
1759199269933,0.09762544,-0.33896786,-0.03010787,0.00261550,0.03217969,-0.17490046,0.93878787,0.03311722,0.33544992,-0.07109108
1759199269945,0.14583282,0.06447425,0.08300370,-0.04859023,0.04238552,-0.09150229,0.93866341,0.03282082,0.33570847,-0.07164925
1759199269955,0.47310971,0.02818918,-0.46113616,0.08261148,0.06105889,-0.00210515,0.93854008,0.03322975,0.33601071,-0.07165967
1759199269966,-0.17588511,0.27213962,0.43132018,0.02071776,0.01431913,-0.03922437,0.93849090,0.03334473,0.33609018,-0.07187736
1759199269977,0.14626079,0.27708944,0.57054210,0.00299621,0.06188253,-0.09962229,0.93832322,0.03336151,0.33643673,-0.07243525
1759199269988,0.09823529,0.13655113,0.24656918,-0.02296364,-0.01729755,-0.16095679,0.93829333,0.03323636,0.33634245,-0.07331246
1759199270000,-0.28209624,-0.06029568,-0.12628778,0.02232707,0.00659369,-0.17467135,0.93819447,0.03336697,0.33638103,-0.07433429
1759199270011,0.34795178,-0.01905957,-0.53318332,0.11032405,-0.06086152,-0.14179779,0.93823021,0.03396824,0.33604933,-0.07510709
1759199270023,-0.23217077,0.01398454,-0.45657987,0.09394697,-0.02600924,-0.13047575,0.93820276,0.03452722,0.33589458,-0.07588342
1759199270033,-0.02651714,0.80275740,-0.95862746,0.09228962,-0.14991542,-0.06627102,0.93843131,0.03499790,0.33513001,-0.07622140
1759199270044,0.12985968,-1.87948554,0.82414967,0.07957932,-0.05862715,-0.01292491,0.93852589,0.03544354,0.33480170,-0.07629378
1759199270055,0.33053027,0.65970393,0.13245634,-0.03610389,-0.06206938,0.04418540,0.93867885,0.03523956,0.33445100,-0.07604413
1759199270066,-0.98548258,0.07283703,0.24287150,0.01303395,-0.09416762,-0.09195028,0.93881561,0.03530929,0.33394721,-0.07653607
1759199270077,0.35414286,-0.63187804,0.18143662,-0.07491064,-0.00451142,0.10581594,0.93888775,0.03489353,0.33392217,-0.07594879
1759199270088,-0.33122824,-0.11844654,-0.02232845,0.14738485,-0.07348592,0.09394149,0.93904538,0.03571889,0.33351065,-0.07542272
1759199270099,-0.06744018,0.50953032,-0.06787019,-0.01895342,-0.05193466,0.02361964,0.93916011,0.03561559,0.33322760,-0.07529399
1759199270111,0.00028041,0.40062649,-0.37089536,-0.01077887,-0.06049815,0.00095942,0.93928735,0.03555308,0.33287672,-0.07528842
1759199270122,-0.35462593,-0.46052031,-0.40681982,0.01036322,-0.09014639,-0.18816307,0.93937562,0.03560904,0.33238992,-0.07630450
1759199270133,-0.73147139,-0.34710508,0.14274320,-0.17651399,-0.05923398,-0.27153125,0.93940539,0.03461173,0.33205525,-0.07783866
1759199270144,0.41477387,0.33975476,0.14893314,0.03676254,-0.01392569,0.23239713,0.93953002,0.03481393,0.33197866,-0.07656047
1759199270155,-0.39583037,-0.47960187,0.30988568,0.14123676,0.00991159,0.13459924,0.93954158,0.03558367,0.33203268,-0.07582691
1759199270166,-0.04804763,0.42392283,0.24247665,0.01764523,0.05912203,0.07609026,0.93945351,0.03568425,0.33236968,-0.07539319
1759199270177,-0.08538446,0.36622895,0.28396986,0.10462119,-0.03381160,0.02128954,0.93950712,0.03626489,0.33218202,-0.07527503
1759199270189,-0.32764435,-0.11545348,0.30640476,0.07581390,-0.01068714,-0.15671493,0.93943929,0.03670082,0.33212057,-0.07617614
1759199270201,0.38520678,0.20004453,0.19777764,-0.06112284,0.03517294,-0.02982077,0.93936188,0.03632186,0.33233864,-0.07636103
1759199270224,0.02820005,-0.23508442,-0.18752841,0.03490189,-0.01494316,0.01007387,0.93941528,0.03671451,0.33217053,-0.07624770
1759199270258,-0.02059070,-0.05870374,-0.01630417,-0.02446933,-0.00820039,-0.03160992,0.93943690,0.03629975,0.33203153,-0.07678349
1759199270279,0.07254565,-0.25881237,0.14874360,-0.01669129,0.01993379,0.14370472,0.93949355,0.03611865,0.33224782,-0.07522429
1759199270291,0.14891480,-0.22406218,0.39532825,-0.00430804,-0.00471042,0.00106624,0.93950419,0.03609474,0.33222167,-0.07521838
1759199270302,0.11226974,0.53513685,-0.06893169,-0.03904792,-0.03103379,-0.01931012,0.93956588,0.03587412,0.33204633,-0.07532748
1759199270312,-0.28438663,0.35411615,-1.38551465,0.04002448,-0.02106634,0.01112205,0.93960160,0.03608425,0.33193573,-0.07526909
1759199270333,-0.08030359,0.01778296,0.26307698,0.01361047,-0.04234327,-0.02378655,0.93972988,0.03622376,0.33150172,-0.07551290
1759199270345,0.39681273,-0.14336790,0.28342641,-0.02320561,0.02466246,0.01258093,0.93968807,0.03608104,0.33165339,-0.07543553
1759199270356,-0.02921503,-0.08971407,-0.14997007,-0.04406230,0.01786182,0.11104878,0.93971108,0.03584311,0.33174984,-0.07483586
1759199270366,-0.03359537,-0.36601814,-0.41484981,0.03076855,-0.02545975,0.10014490,0.93979301,0.03600310,0.33161745,-0.07431511
1759199270377,0.17042078,0.39289616,0.58305411,-0.01994812,-0.05389520,0.10448882,0.93994701,0.03589339,0.33132103,-0.07374042
1759199270388,0.18817334,0.08940697,0.25984670,-0.01058523,-0.03283660,0.02114877,0.94002199,0.03583517,0.33114043,-0.07362410
1759199270401,0.01846770,0.24322534,0.09144887,0.00300386,-0.04186001,-0.00722094,0.94011197,0.03585439,0.33087252,-0.07367032
1759199270411,-0.29742268,0.01538663,-0.99333235,0.06460560,-0.02566616,-0.12108897,0.94009727,0.03617419,0.33074548,-0.07426971
1759199270422,-0.29048989,0.09965738,-0.44807172,0.05872219,-0.04315647,-0.02370377,0.94015630,0.03648836,0.33051459,-0.07439652
1759199270433,-0.00934342,-0.00685658,0.19127817,0.07245424,-0.04856715,-0.01099227,0.94023116,0.03689410,0.33024261,-0.07445808
1759199270435,13.43871866,6.65869032,-6.43251198,-0.11356279,0.04678112,-0.00550345,0.94021874,0.03678054,0.33028939,-0.07446358
1759199270446,-1.96119428,-1.41713084,1.82149590,-0.06279223,-0.06745799,0.02861372,0.94037772,0.03642890,0.32991163,-0.07430335
1759199270457,0.13836076,-0.42030065,-0.11609869,-0.03598234,-0.03637641,-0.01606420,0.94044791,0.03623280,0.32971338,-0.07439090
1759199270468,-0.22362355,-0.30901467,0.19069648,-0.04908297,-0.05433477,-0.04096137,0.94054602,0.03596039,0.32941182,-0.07461823
1759199270479,-0.08962369,-0.07640325,0.34756840,-0.03323768,0.02171415,-0.02640536,0.94049751,0.03576927,0.32953668,-0.07477006
1759199270490,-0.17597092,0.23664825,0.11069891,-0.02458672,0.06002020,0.06429941,0.94041647,0.03563650,0.32986079,-0.07442285
1759199270512,-0.12068618,0.15878812,-0.22653418,-0.01015653,0.04028295,0.02548350,0.94029024,0.03552732,0.33029383,-0.07414890
1759199270522,-0.50622363,-0.13125497,0.03246374,-0.07574477,0.06554832,0.04042478,0.94020521,0.03514859,0.33062157,-0.07394678
1759199270533,0.25904278,-0.14330629,0.09517430,-0.03163370,0.04225077,0.03956053,0.94014386,0.03496512,0.33086662,-0.07371732
1759199270535,-3.14676542,-14.53692324,10.94756387,-0.13461682,0.11929895,0.13691945,0.94011890,0.03483723,0.33097996,-0.07358725
1759199270546,0.59340102,2.23186103,-2.03961549,-0.04474819,0.02460677,-0.06528525,0.94005155,0.03458888,0.33111653,-0.07394958
1759199270557,0.00653269,0.59850760,-0.36107265,0.00784417,0.01451190,0.08508511,0.94005842,0.03463124,0.33119489,-0.07349012
1759199270568,-0.23592801,0.21049791,0.13468276,0.07841601,0.04183477,0.01342575,0.93996544,0.03507037,0.33142916,-0.07341494
1759199270589,0.07781860,-0.02399068,0.12547140,0.00036943,0.00382940,-0.03387885,0.93992407,0.03507417,0.33146861,-0.07376389
1759199270590,-30.98219858,17.58619934,11.89533818,-0.41185893,0.17852933,-0.41106157,0.93986407,0.03476528,0.33160250,-0.07407219
1759199270602,3.78735500,-2.18738154,-1.67554027,0.01305635,-0.01215171,0.01135290,0.93989108,0.03484035,0.33153263,-0.07400691
1759199270622,0.19701927,-0.10052129,-0.01040490,-0.00569813,-0.00206169,0.01637768,0.93991334,0.03478337,0.33151202,-0.07384313
1759199270634,0.05065616,0.05331103,0.02045187,-0.00502687,0.00314620,0.04316183,0.93992799,0.03475346,0.33153073,-0.07358632
1759199270644,-0.30110005,0.08661238,-0.21345412,0.00873407,-0.04861027,0.08954074,0.94005295,0.03479932,0.33127553,-0.07311623
1759199270647,-6.46325196,-1.67730984,-7.57289852,0.19945776,-0.23925381,-0.03519161,0.94013079,0.03500875,0.33102431,-0.07315318
1759199270667,0.91768799,0.07368118,0.85232964,0.00398077,-0.01975008,-0.00321689,0.94019698,0.03504895,0.33082484,-0.07318567
1759199270669,-0.88212106,-3.45362324,-3.60325414,0.05380917,-0.18918362,-0.11834686,0.94024677,0.03509738,0.33065457,-0.07329218
1759199270680,-0.09411041,0.16383095,0.40293209,-0.00441824,-0.02652701,-0.00802390,0.94029686,0.03507242,0.33050470,-0.07333752
1759199270691,-0.11616346,0.03861555,0.17512281,0.01489588,-0.03946135,0.07789894,0.94040434,0.03515509,0.33028569,-0.07290518
1759199270702,0.42319225,-0.09518820,0.34015059,-0.00817702,-0.00229573,0.06082812,0.94043604,0.03511052,0.33027317,-0.07257367
1759199270713,0.23461255,0.14378462,0.00316222,-0.05349338,-0.01074638,0.05897659,0.94049322,0.03481364,0.33021353,-0.07224635
1759199270724,-0.03910117,-0.01430023,-0.45445966,0.04338241,-0.06193390,0.05130157,0.94062912,0.03505875,0.32986360,-0.07195649
1759199270745,-0.05140141,0.15755101,-0.01498923,0.03065988,-0.05199626,0.01459291,0.94081461,0.03537148,0.32933324,-0.07180765
1759199270746,17.23172343,-0.36522454,-20.66569345,0.23187060,-0.25205971,-0.22665483,0.94086743,0.03556857,0.32911899,-0.07200030
1759199270758,-2.61027293,-0.05928576,2.78868327,-0.03409707,-0.07402128,-0.14776283,0.94095742,0.03537421,0.32869707,-0.07284255
1759199270769,0.20986475,0.11322003,0.29675143,-0.00993581,-0.05988693,-0.04712840,0.94105525,0.03531907,0.32836470,-0.07310411
1759199270780,0.42492866,0.17495316,0.43333967,0.01509956,-0.03014102,0.02950605,0.94112132,0.03540061,0.32820194,-0.07294478
1759199270802,-0.16912339,-0.00918652,-0.02999256,0.00504764,-0.00450870,0.04998773,0.94118003,0.03545714,0.32815144,-0.07238492
1759199270812,0.31348479,-0.38725191,-0.39157601,0.02256360,-0.05602958,0.05168894,0.94128985,0.03556658,0.32787970,-0.07213423
1759199270813,23.49448810,-9.03255533,-26.80986323,0.03372388,-0.17920253,0.48710987,0.94135871,0.03559018,0.32775425,-0.07179325
1759199270825,-3.08951921,1.10263220,3.15936329,0.03518617,-0.05201960,0.03172290,0.94146806,0.03579074,0.32745774,-0.07161243
1759199270836,0.03393991,0.06388240,0.07542910,-0.03784299,-0.01223812,-0.03186441,0.94148618,0.03558071,0.32738982,-0.07178928
1759199270847,-0.09446436,0.12350638,0.00532605,-0.05626932,-0.03661977,0.00411633,0.94157183,0.03526279,0.32718292,-0.07176602
1759199270858,0.10965490,-0.10525521,-0.01475739,-0.02563872,-0.02537704,0.04307626,0.94164296,0.03512306,0.32704461,-0.07153125
1759199270869,-0.12310038,-0.50670049,0.17862864,-0.08280475,-0.01886524,-0.03865544,0.94167970,0.03466764,0.32694086,-0.07174386
1759199270901,-0.09957272,0.11670079,0.05536136,-0.04763486,0.00205652,-0.00623231,0.94168845,0.03390310,0.32697386,-0.07184389
1759199270903,20.94662264,-37.44144213,-16.89917016,0.05866750,-0.00031677,0.58840004,0.94173115,0.03396176,0.32697355,-0.07125549
1759199270913,-3.58533427,7.37009405,2.53515719,0.04395595,-0.02758526,0.02559787,0.94178323,0.03419253,0.32682872,-0.07112110
1759199270935,-0.09346791,0.05364282,0.16998954,0.02514636,-0.00704059,-0.00119687,0.94179845,0.03445908,0.32675409,-0.07113378
1759199270945,0.36443922,0.09203814,-0.32465328,0.02181576,-0.01454460,-0.01313036,0.94181569,0.03457471,0.32667701,-0.07120338
1759199270956,-0.15313747,-0.04885230,-0.08281760,0.03813951,-0.03956870,-0.01223754,0.94187948,0.03478829,0.32645542,-0.07127191
1759199270979,-0.11195049,-0.02439772,0.13178376,0.01432147,-0.02598249,0.01457449,0.94198573,0.03494726,0.32616702,-0.07111013
1759199270980,35.83497242,8.44408425,-18.23163738,0.17118522,-0.63509170,-0.01316940,0.94216622,0.03509276,0.32562719,-0.07112132
1759199271002,-2.86374524,-0.64366632,1.68886250,-0.00024399,-0.02717431,0.01204978,0.94227545,0.03509018,0.32533914,-0.07099360
1759199271013,0.42994813,-0.19680779,-0.52695093,-0.01647152,-0.06289405,0.04133616,0.94241656,0.03499876,0.32499008,-0.07076418
1759199271024,-0.00622261,-0.18735378,-0.30131302,-0.02590061,-0.07421822,-0.00275951,0.94256663,0.03485113,0.32456703,-0.07077991
1759199271036,-0.05451917,0.11114096,-0.19427753,-0.02819636,-0.08338578,0.01824831,0.94274855,0.03468618,0.32407923,-0.07067316
1759199271045,-0.13155381,-0.11689972,-0.30072149,0.02852567,-0.13298654,0.00214163,0.94296570,0.03482453,0.32343424,-0.07066277
1759199271058,0.01074009,0.10759816,0.27622470,0.02754811,-0.07413101,0.03060391,0.94312710,0.03499120,0.32298575,-0.07047762
1759199271070,-0.12717984,0.21601724,0.01060801,-0.01589011,-0.09109476,0.04541722,0.94333795,0.03489585,0.32243918,-0.07020511
1759199271079,-0.23829859,-0.39500076,-0.07787786,-0.00598727,-0.10084296,-0.01712067,0.94350155,0.03486652,0.32194505,-0.07028900
1759199271090,-0.02727359,-0.10027587,0.17880299,-0.05213902,-0.08174982,0.03562000,0.94367511,0.03458757,0.32150769,-0.07009844
1759199271102,0.00663710,0.15703606,0.00339180,-0.00141038,-0.09396564,0.13781782,0.94392205,0.03457932,0.32095799,-0.06929220
1759199271112,-0.38445845,0.15446125,-0.25704265,0.03972656,-0.15393800,0.08567416,0.94422170,0.03478789,0.32014982,-0.06884241
1759199271124,-0.23062627,0.27545162,0.00257847,-0.04292237,-0.17712938,0.05524718,0.94459204,0.03454538,0.31914904,-0.06853027
1759199271135,-0.35756252,0.04411182,-0.04901314,0.01823221,-0.20537719,0.02253889,0.94498875,0.03464839,0.31798865,-0.06840292
1759199271158,0.11784556,-0.04858230,0.26772733,0.00001599,-0.08746062,0.00817758,0.94534238,0.03464858,0.31695662,-0.06830643
1759199271168,-3.66677672,0.01890174,-2.95696622,0.14929851,-0.56100454,0.22520861,0.94633121,0.03539507,0.31415160,-0.06718038
1759199271179,1.31302540,-0.38177897,2.51353656,0.00444178,-0.25040094,0.19726775,0.94684828,0.03541883,0.31281195,-0.06612500
1759199271191,-1.51053952,-1.14282229,1.74697489,0.05286865,-0.20480892,0.14578548,0.94729458,0.03573076,0.31160358,-0.06526487
1759199271202,0.28102604,1.62665183,-0.38170649,-0.01421348,-0.22154851,0.07546951,0.94772206,0.03565329,0.31039614,-0.06485356
1759199271213,-0.08912903,-1.10857680,-0.09662198,0.03461291,-0.19572364,0.10310474,0.94810539,0.03584366,0.30931966,-0.06428648
1759199271226,-0.47477665,-0.04763787,0.42053525,0.00567985,-0.16491481,0.06205913,0.94847742,0.03588030,0.30825596,-0.06388620
1759199271235,-1.39018545,-0.40294140,1.10326079,-0.03018655,-0.18560059,0.18656266,0.94883184,0.03573540,0.30736508,-0.06299070
1759199271247,0.70674205,-0.79891457,0.20655760,-0.01620159,-0.12797363,0.24357449,0.94916821,0.03564144,0.30662283,-0.06157797
1759199271290,0.89764487,0.37865800,-0.38164652,-0.01534912,-0.03612446,0.08236200,0.94954776,0.03530836,0.30583893,-0.05979071
1759199271329,-2.43334517,-1.05743964,1.50183246,-0.15112610,-0.17792022,0.55075352,0.95137765,0.03236140,0.30236948,-0.04905102
1759199271348,-3.66459519,-1.14650109,1.41584724,-0.24827964,-0.23838335,0.76319630,0.95247089,0.03010206,0.30020020,-0.04210593
1759199271359,-3.97147933,-2.46446601,0.67193185,-0.11653159,-0.39196593,1.33634126,0.95347274,0.02945531,0.29802478,-0.03468924
1759199271381,5.10097095,2.21707993,-2.07016793,-0.08644434,-0.24418605,0.67930886,0.95459886,0.02848713,0.29528990,-0.02708098
1759199271402,1.68930923,0.56398417,-0.92121084,-0.07590682,-0.16210143,0.52039658,0.95527685,0.02770149,0.29361215,-0.02169487
1759199271413,-5.35295020,-2.49394049,0.69754235,-0.10439156,-0.35388470,0.80028895,0.95597914,0.02712734,0.29166579,-0.01729329
1759199271424,2.73373730,0.43975016,-0.61188427,-0.10290772,-0.29357448,0.70802149,0.95657915,0.02653047,0.28996305,-0.01318676
1759199271435,0.76833506,0.41543082,-0.57144493,-0.05951767,-0.31560026,0.69953381,0.95716306,0.02620015,0.28821147,-0.00930435
1759199271447,1.09109345,0.33162421,-0.23853690,-0.02309747,-0.33622347,0.67861370,0.95776090,0.02607081,0.28632862,-0.00550411
1759199271458,0.29183536,0.02579286,-0.77231733,-0.00097418,-0.30727448,0.60713758,0.95828265,0.02606540,0.28462325,-0.00213450
1759199271469,-1.43066236,-0.16635248,1.01285737,-0.07081605,-0.36056453,0.65436641,0.95888120,0.02567591,0.28264014,0.00146452
1759199271479,0.57883963,-0.42920591,0.29300778,-0.09518202,-0.33036851,0.67709121,0.95939675,0.02517145,0.28088919,0.00505310
1759199271520,1.49812918,0.93792347,-0.54789460,-0.03829550,-0.08074808,0.15837091,0.95987407,0.02439213,0.27924597,0.00827595
1759199271547,-5.63910879,-3.50366114,1.18008128,-0.43733541,-0.40832060,1.00489985,0.96139500,0.01842250,0.27367239,0.02199283
1759199271579,1.81594896,1.01495259,-0.99120045,-0.37908066,-0.22765049,0.55738497,0.96227627,0.01235721,0.27002998,0.03091099
1759199271603,0.60720000,0.72185051,-0.08164703,-0.40230874,-0.10506738,0.57312901,0.96243060,0.00765020,0.26880069,0.03761660
1759199271613,-13.39571117,-9.61817480,-3.51834863,-0.74779840,-0.20098663,1.15660468,0.96249079,0.00379904,0.26776561,0.04357312
1759199271635,6.11329295,3.57830499,0.24432153,-0.39330537,-0.13922716,0.54065551,0.96263589,-0.00054698,0.26622715,0.04954736
1759199271658,0.25367119,0.30684222,-0.21505939,-0.43609392,-0.04603188,0.52690739,0.96244031,-0.00545304,0.26570929,0.05547507
1759199271669,-2.93086274,-2.49471984,-2.21336840,-0.52381173,0.02734722,0.86667923,0.96209152,-0.00833401,0.26585970,0.06024180
1759199271691,2.11578051,1.85636945,1.02725068,-0.28817825,0.00138466,0.52876609,0.96166069,-0.01159042,0.26587535,0.06621686
1759199271702,2.03122237,2.72428929,-1.80807658,-0.50439009,0.17543247,0.91699710,0.96099527,-0.01436457,0.26684023,0.07126034
1759199271714,3.49939935,4.65717521,-3.85389655,-0.33926992,-0.04261880,0.64263357,0.96074660,-0.01634929,0.26659091,0.07501975
1759199271726,-8.23440338,-1.44072919,2.16464557,0.05887456,-0.58043311,-0.68229025,0.96206467,-0.01598427,0.26299222,0.07078955
1759199271736,11.29615035,-2.93241422,-8.32095560,0.92907287,-0.06623812,-0.81004767,0.96248488,-0.01161763,0.26268090,0.06698233
1759199271748,-4.47111455,-4.42317896,6.44444398,0.78661411,-0.49304300,-0.51920461,0.96354427,-0.00689794,0.25972265,0.06386710
1759199271759,-1.25623347,2.13514515,3.98980999,0.59856818,-0.01300022,-0.24165025,0.96367293,-0.00348611,0.25964854,0.06248969
1759199271770,11.30034755,1.92021242,-3.12978398,0.12967296,0.24657854,0.41585743,0.96315772,-0.00277290,0.26100473,0.06477691
1759199271780,-11.34939090,-2.10328195,4.18497463,-0.12370975,0.30258723,0.32237394,0.96263993,-0.00338527,0.26250253,0.06637266
1759199271791,5.13786179,4.36538966,-0.98585016,-0.41055868,0.63575478,0.33692514,0.96149885,-0.00572545,0.26612634,0.06829313
1759199271802,-3.39249835,-1.37277784,0.57926469,-0.55493933,0.47911643,0.60844172,0.96053571,-0.00866663,0.26866565,0.07151787
1759199271813,0.68313961,-3.65154243,0.20814659,-0.19907115,0.62060860,0.52486211,0.95933346,-0.00977148,0.27211003,0.07443086
1759199271816,-20.86050697,-36.32801297,-61.24648537,-0.18057870,2.49681076,2.07844414,0.95827937,-0.00998817,0.27510620,0.07692499
1759199271836,3.80392099,7.68174625,7.92232896,-0.27918999,0.13147300,0.17649191,0.95771317,-0.01283591,0.27644723,0.07872521
1759199271847,5.97588989,-4.43953227,-3.34486182,-0.03830465,0.65511145,0.44052580,0.95639150,-0.01305808,0.28024687,0.08128026
1759199271859,-9.55990811,5.78770926,5.69653396,-0.67028792,-0.02500073,0.52289679,0.95611799,-0.01684520,0.28010562,0.08423463
1759199271870,6.62218533,-0.49125607,-1.15916579,-0.68108247,0.19584630,0.59693243,0.95543970,-0.02055710,0.28117298,0.08748791
1759199271892,-1.36305539,-1.48246822,-0.92408396,-0.42924950,0.04600069,0.12504282,0.95505221,-0.02525738,0.28167669,0.08885713
1759199271903,-1.90443595,15.91260953,6.78013690,-2.45531282,-0.59399685,0.79073728,0.95514319,-0.03863884,0.27843941,0.09316664
1759199271914,6.77259921,-18.97128584,-2.96815914,-0.03784121,0.15547398,0.19531631,0.95477300,-0.03885075,0.27931006,0.09426042
1759199271926,-6.06772799,4.32926622,-1.91853171,0.14842338,-0.47984113,0.23655918,0.95552341,-0.03793795,0.27635904,0.09571525
1759199271937,2.57962600,-3.71076301,0.68479135,0.38657124,-0.00656551,0.33352640,0.95542862,-0.03577315,0.27632227,0.09758300
1759199271947,-0.21905288,0.54265512,0.19908830,0.17569936,-0.25829929,-0.02966290,0.95585717,-0.03487708,0.27500495,0.09743172
1759199271959,-2.50321182,2.15884252,0.56335818,0.08325276,-0.45362506,-0.24960669,0.95673473,-0.03441503,0.27248733,0.09604640
1759199271971,1.34642211,2.40917999,-0.85683223,-0.05271894,-0.38130637,-0.31104083,0.95760502,-0.03474979,0.27006603,0.09407129
1759199271993,0.19696763,-0.54625902,-0.28864421,-0.04185679,-0.17062548,-0.18895136,0.95832057,-0.03521231,0.26818062,0.09198338
1759199272003,-4.27104690,0.48190543,5.11905678,-0.21843932,-0.96534889,-0.25712895,0.95971178,-0.03628266,0.26345041,0.09072345
1759199272014,5.96208839,-1.96218849,-2.01234584,0.04997833,-0.35499900,-0.36651625,0.96041781,-0.03601778,0.26156892,0.08878091
1759199272025,-5.09040459,-3.84875183,-3.71608394,0.76256333,-0.55556131,-0.42193496,0.96161488,-0.03178555,0.25848555,0.08643918
1759199272036,-0.73992007,2.78009236,-0.63633597,0.50403612,-0.62028134,-0.31133788,0.96280658,-0.02891254,0.25494995,0.08466455
1759199272048,1.32178093,-0.37989247,1.50672743,0.35281229,-0.49296235,-0.23515912,0.96376905,-0.02679567,0.25199217,0.08325359
1759199272059,2.30860686,-0.47866659,0.70481573,0.26864247,-0.35383132,-0.14110590,0.96437131,-0.02534500,0.25008148,0.08249162
1759199272071,3.19331165,2.56423705,-3.02924551,0.24403550,-0.34280596,0.28978555,0.96477225,-0.02394180,0.24811035,0.08415789
1759199272082,-3.70731038,-4.85773571,6.48460198,-0.31001880,-0.62437578,0.54587470,0.96533872,-0.02564690,0.24467628,0.08716020
1759199272104,-0.02740755,1.55257302,-1.04995231,-0.22038931,-0.23455297,-0.07887850,0.96600247,-0.02808220,0.24208447,0.08628859
1759199272114,3.60516076,-0.09872074,-1.24956300,-0.27362145,-0.53579022,0.39999138,0.96647488,-0.02953240,0.23924478,0.08840855
1759199272125,-3.81917600,-2.35867474,-0.28907403,0.10829672,-0.26821995,0.01934994,0.96685725,-0.02892052,0.23772934,0.08851787
1759199272137,7.92626575,-8.44381047,-2.87830773,-0.01017415,-0.45713480,1.05477024,0.96692238,-0.02897699,0.23519224,0.09437185
1759199272148,-8.99323983,4.79136391,5.88896825,0.03974821,-0.41881322,0.57496730,0.96717041,-0.02876036,0.23290971,0.09750542
1759199272158,-1.28754985,9.40136974,-1.08944340,-0.14460892,-0.72030736,-0.04784625,0.96809277,-0.02953402,0.22905607,0.09724944
1759199272170,5.10405776,-4.28229276,-1.74298906,0.24791386,-0.41311341,0.03752056,0.96869747,-0.02804653,0.22657739,0.09747457
1759199272181,-4.50178453,1.30771605,2.93167884,0.32945973,-0.43905437,-0.25202141,0.96942793,-0.02628392,0.22422844,0.09612625
1759199272192,-0.39111139,0.92082158,-2.86507328,0.05037580,-0.34557682,-0.29925612,0.97005671,-0.02599678,0.22225866,0.09442049
1759199272204,-1.80394148,-4.74824461,-1.87061041,0.49201118,-0.15594933,-0.25295030,0.97046310,-0.02324152,0.22138534,0.09300397
1759199272214,-0.95574466,-0.36394606,-0.49485016,0.49405133,-0.27238799,-0.07958114,0.97087880,-0.02069715,0.21998254,0.09259413
1759199272226,1.27446168,0.26976383,0.07909637,0.50759056,-0.06825487,-0.11279156,0.97109063,-0.01772775,0.21958325,0.09193430
1759199272237,-0.77045369,-2.93203405,-0.85219128,0.98820483,-0.17356409,-0.51715115,0.97167474,-0.01209498,0.21859394,0.08898654
1759199272248,-1.41789061,-4.54753108,-0.70688570,1.28494257,-0.05525672,-0.60568742,0.97209372,-0.00522054,0.21829831,0.08574611
1759199272259,4.29581815,10.60751018,-0.48465696,0.60576135,0.08458030,-0.65747732,0.97232294,-0.00173741,0.21878465,0.08196561
1759199272283,0.52377998,1.19770603,1.40368288,0.12252767,0.01792859,-0.31600851,0.97258183,-0.00030384,0.21899441,0.07826831
1759199272293,-12.56787816,1.90506347,5.09943886,-1.22708383,-0.50142601,-1.21220273,0.97365765,-0.00686874,0.21631178,0.07178303
1759199272305,8.82262861,-4.58619019,-5.39531512,-0.50541485,-0.29530502,0.05734881,0.97399808,-0.00990123,0.21453995,0.07212712
1759199272315,-0.96748535,3.12625327,1.59457259,-0.71712487,-0.15598721,0.34093812,0.97399900,-0.01337928,0.21378342,0.07378067
1759199272327,-0.43633950,0.98013068,1.69058673,-0.64415258,-0.48244531,0.76059929,0.97420488,-0.01708316,0.21100936,0.07815412
1759199272339,2.34095688,2.12409495,2.97218993,-1.04292918,-0.36499094,0.58697489,0.97425842,-0.02344503,0.20878291,0.08173466
1759199272350,-3.97493567,1.00528677,5.46348153,-1.44832552,-0.89781177,0.87334259,0.97466812,-0.03148323,0.20380006,0.08658172
1759199272372,0.88000725,-0.61145798,-1.38975180,-0.21859676,-0.88247881,0.34971903,0.97620480,-0.03386594,0.19418104,0.09039365
1759199272382,-11.82607488,4.74601019,-8.59300068,0.14378414,-0.79628460,0.24690150,0.97691848,-0.03312545,0.19008017,0.09166520
1759199272393,2.87236082,-4.42861769,-11.37976993,0.51169078,0.53828460,0.33757842,0.97621623,-0.03015764,0.19320222,0.09362315
1759199272416,2.89703286,-1.24066626,4.99905167,0.59342687,0.23639331,-0.01372371,0.97587965,-0.02339258,0.19589711,0.09346670
1759199272427,-19.34939874,13.21367198,15.70596292,1.59264691,0.50020298,0.22701042,0.97540354,-0.01511081,0.19849816,0.09464716
1759199272439,13.23229306,-5.57134711,-7.05016175,0.13860955,0.34940953,0.25124665,0.97483011,-0.01426529,0.20062956,0.09617976
1759199272450,-1.15738390,-2.63527291,-3.94402166,0.34053292,0.42182222,0.08871036,0.97434554,-0.01246047,0.20286522,0.09664992
1759199272460,2.50390957,1.17472903,0.06480715,0.19621789,0.51832964,0.20925284,0.97365874,-0.01140089,0.20566420,0.09777989
1759199272482,2.48070259,-1.59073439,-0.01887921,0.11987784,0.13538373,0.09615718,0.97325444,-0.01009423,0.20713988,0.09882800
1759199272493,-10.05342378,4.76621436,2.54314322,0.46151225,0.26550171,0.25072291,0.97282843,-0.00757898,0.20858686,0.10019444
1759199272505,5.67325257,-3.75495212,-2.16569049,0.30879735,0.04567824,0.14248801,0.97269386,-0.00572620,0.20886093,0.10104937
1759199272516,1.02142214,0.80594327,-0.31736980,0.21151075,0.05334504,0.05453904,0.97260333,-0.00453116,0.20916233,0.10135752
1759199272527,1.49932927,1.11582309,-0.97018515,0.05954813,-0.12930669,0.08529754,0.97271038,-0.00419769,0.20843822,0.10183518
1759199272539,2.07115363,0.18368058,1.97605987,-0.09530208,-0.20209589,0.05464567,0.97292137,-0.00474092,0.20728627,0.10214666
1759199272549,1.95999283,0.64935314,3.58565260,-0.25074125,-0.31704052,0.09198058,0.97319409,-0.00595701,0.20574862,0.10259277
1759199272570,0.79668226,-1.60787943,-1.58984912,-0.11056455,-0.32208379,0.09199647,0.97380699,-0.00714558,0.20228622,0.10358173
1759199272581,-0.49220915,-2.84631184,-1.97326789,0.47777673,-1.67335504,0.24237762,0.97559284,-0.00444614,0.19283177,0.10495116
1759199272604,1.47912702,0.31044877,-0.43783290,0.12026800,-0.40018455,0.09284435,0.97637781,-0.00306907,0.18824965,0.10601423
1759199272615,-1.24227387,2.01285395,4.84631853,-0.18754052,-1.97716663,-0.02264437,0.97843948,-0.00410992,0.17727638,0.10588856
1759199272626,10.62676535,-3.21824116,1.43636288,-0.59400134,-1.12731459,-0.13098899,0.97959072,-0.00734723,0.17113251,0.10517467
1759199272638,-6.94077626,-0.73842153,-3.44667639,-0.36023494,-0.89413523,-0.14880777,0.98058142,-0.00949063,0.16581241,0.10428926
1759199272649,1.19385947,0.39504897,-0.21262983,-0.17089839,-0.67515650,-0.11335852,0.98124037,-0.01040493,0.16220032,0.10368279
1759199272660,-2.09588462,0.50239773,0.11469492,-0.02568648,-0.63995550,-0.06595323,0.98184694,-0.01054493,0.15871256,0.10332335
1759199272673,0.09495456,1.54904289,-0.12776931,-0.07189407,-0.49058773,-0.03869389,0.98237839,-0.01101224,0.15552374,0.10307184
1759199272684,0.85153760,1.19841374,0.07818511,-0.08852745,-0.69693746,-0.16696690,0.98305546,-0.01149029,0.15176028,0.10217022
1759199272705,-0.98617039,-0.59377143,-0.24856617,-0.04032065,-0.33942671,-0.07254364,0.98368155,-0.01191970,0.14814539,0.10139763
1759199272715,4.27600618,3.20601839,2.28975626,0.08794926,-1.23612822,-0.14747718,0.98473164,-0.01145357,0.14159391,0.10061600
1759199272739,-2.20126479,-1.37609581,-1.20696464,0.12678868,-0.30362176,0.06788869,0.98516690,-0.00998282,0.13807190,0.10140351
1759199272740,119.21166843,81.89707375,108.66873213,2.52753915,-6.25246165,2.65306849,0.98571110,-0.00770804,0.13244468,0.10379127
1759199272761,-10.16144309,-6.81700530,-8.63210865,0.00798168,-0.13305144,0.09657043,0.98579118,-0.00762423,0.13104764,0.10480526
1759199272772,-1.04097792,2.18206623,0.36619847,-0.04182193,-0.56633655,-0.02020771,0.98618011,-0.00783752,0.12815932,0.10470220
1759199272783,1.72226663,-2.99919690,-3.46577124,0.25538466,-0.39344433,-0.00353805,0.98647637,-0.00640737,0.12595604,0.10468238
1759199272794,-0.65173721,1.26905061,-0.30421280,0.31807328,-0.43770544,-0.14298527,0.98688438,-0.00461025,0.12348300,0.10387452
1759199272805,-0.46277407,-2.60625919,1.14003855,0.19089468,-0.24336498,0.05716017,0.98702215,-0.00356033,0.12214449,0.10418890
1759199272817,0.14405766,3.33302135,2.07599393,-0.25579856,-0.34276390,0.05764190,0.98722776,-0.00506954,0.12012219,0.10452899
1759199272828,-0.97674650,-2.12259958,-1.75875345,-0.39157304,-0.13051404,0.06943152,0.98726037,-0.00718404,0.11941741,0.10490392
1759199272839,-0.33444547,-0.96495367,0.22791181,-0.36801003,-0.07466167,0.08186191,0.98724489,-0.00924489,0.11899930,0.10536234
1759199272850,-0.80542992,-0.57012839,-1.27653242,-0.21670865,-0.17100010,-0.08417687,0.98739386,-0.01042595,0.11806735,0.10490358
1759199272852,-32.26914051,-47.99105543,-80.47040543,-1.12069246,-0.13780937,0.03721202,0.98739396,-0.01143458,0.11794332,0.10493707
1759199272872,3.13518535,4.48629019,6.71639501,-0.20464791,0.06379718,0.04579830,0.98724371,-0.01347082,0.11857811,0.10539276
1759199272884,0.42355332,-0.36157103,-0.32531290,-0.32290994,0.00935702,0.06945127,0.98715996,-0.01550516,0.11863706,0.10583031
1759199272895,-0.08706071,-2.79248943,-0.47207601,-0.32409630,0.03312867,-0.06249689,0.98714493,-0.01732010,0.11882258,0.10548032
1759199272897,-30.22145691,-166.08181788,-142.10533938,-2.27502309,1.11190006,-0.62688188,0.98707407,-0.01879886,0.11954531,0.10507285
1759199272907,2.23069393,22.55240693,17.67961699,-0.24647080,0.32914034,-0.13332488,0.98690890,-0.02011748,0.12130621,0.10435956
1759199272928,0.67288183,1.02172444,0.42186578,-0.07608686,0.23856683,-0.04904059,0.98663549,-0.02091639,0.12381116,0.10384464
1759199272939,-1.18958873,0.27711642,-1.72910964,-0.13200626,0.28636301,0.06045845,0.98640183,-0.02159622,0.12528593,0.10415600
1759199272950,0.62237674,-0.67442107,0.14901740,-0.01354011,0.22927204,0.12988161,0.98615480,-0.02167340,0.12659278,0.10489632
1759199272973,0.44568185,0.15765695,0.87508204,0.05207811,0.10903290,0.06922771,0.98592304,-0.02107971,0.12783576,0.10568552
1759199272984,-0.96933223,-2.33286416,-2.93299248,0.20388089,0.15067230,-0.00232309,0.98583688,-0.01991759,0.12869459,0.10567228
1759199273007,0.19877656,0.95798507,1.37189369,0.09740377,0.06758603,-0.07886636,0.98585343,-0.01883154,0.12944818,0.10479292
1759199273009,-9.83254428,64.08098333,-61.71900674,0.54696643,2.01991508,-0.45698566,0.98558140,-0.01812048,0.13207407,0.10419883
1759199273039,0.97976427,-5.27843366,5.69006305,0.04713747,0.00527315,0.08969563,0.98544274,-0.01742521,0.13215184,0.10552184
1759199273050,0.05351766,-0.90880285,-2.30153604,0.34809244,0.06826825,-0.01628277,0.98543350,-0.01544108,0.13254097,0.10542903
1759199273062,-0.72054945,-0.98935250,-0.35221160,0.32829184,0.05967896,-0.17965478,0.98552503,-0.01355340,0.13288413,0.10439602
1759199273072,2.18671443,0.34152970,0.70972928,-0.00596128,0.15084118,0.00054468,0.98541925,-0.01358410,0.13366096,0.10439882
1759199273083,0.19251485,-0.61646413,1.58572657,-0.19953107,0.17949406,-0.08997360,0.98532051,-0.01469150,0.13465715,0.10389947
1759199273095,0.39849246,-0.33971307,0.65918079,-0.31592941,0.17332261,-0.20224852,0.98527456,-0.01660287,0.13570575,0.10267587
1759199273107,0.86661535,0.46065491,-0.13467638,-0.44165144,0.12505409,-0.29216510,0.98530283,-0.01914237,0.13642481,0.10099592
1759199273113,4.50579956,-3.50235971,-3.64056685,-0.79527227,0.00026267,-0.67934088,0.98546787,-0.02164748,0.13642564,0.09885599
1759199273141,-1.78289063,1.08936563,0.75518092,-0.18324728,-0.04582330,-0.15072449,0.98570866,-0.02424042,0.13577724,0.09672324
1759199273143,474.74437290,-300.69515946,-151.21354372,-6.41050891,-1.60674616,-2.70650059,0.98594102,-0.02904831,0.13457218,0.09469337
1759199273162,-36.26324738,23.38974859,12.33966952,-0.24298664,-0.07975876,0.02241508,0.98595301,-0.03136883,0.13381049,0.09490743
1759199273185,-0.67923597,0.30045693,-0.15813846,-0.10438544,-0.02964918,0.01672221,0.98594172,-0.03257448,0.13346804,0.09510057
1759199273187,131.55883295,-38.78387366,-157.08791228,-1.23801850,0.61207735,-0.82121682,0.98590056,-0.03368870,0.13401891,0.09436148
1759199273208,-11.45530990,3.65277807,13.24047577,0.00448984,0.09813068,-0.02350785,0.98578515,-0.03364155,0.13504928,0.09411464
1759199273217,-0.16806307,2.26703132,-1.32913036,0.09570700,0.12910138,0.08300050,0.98567751,-0.03318216,0.13566897,0.09451305
1759199273239,-0.33241017,-0.67779203,0.39624408,0.11884801,0.03951519,0.04992874,0.98560888,-0.03189266,0.13609771,0.09505477
1759199273250,-0.69696657,0.99707847,-5.17216014,0.87731149,0.19947901,-0.01660900,0.98561030,-0.02724291,0.13715495,0.09496675
1759199273254,-7.34120577,-8.42768573,-17.71446491,2.01610499,0.23391706,-0.20336724,0.98569250,-0.02290828,0.13765787,0.09452951
1759199273285,1.30000280,0.50487385,4.17648292,0.20144558,0.05027207,0.05617299,0.98556540,-0.01974559,0.13844714,0.09541142
1759199273288,-36.71865122,-18.07062885,-155.62520333,3.26766923,0.06386997,-0.67081501,0.98569214,-0.01615115,0.13851740,0.09467353
1759199273329,1.72809659,0.99868593,8.21431510,0.07820712,-0.03738069,-0.03943649,0.98590432,-0.01452835,0.13774175,0.09385522
1759199273340,-3.30001357,0.07233923,-10.25489974,0.11236440,-0.28882849,-0.23803627,0.98625122,-0.01392159,0.13618207,0.09256982
1759199273362,1.15388705,-0.33565509,3.49208651,-0.07598774,-0.12242708,0.02232189,0.98640438,-0.01477645,0.13480477,0.09282094
1759199273375,-4.17784128,-1.81681557,-5.34349988,0.65407718,-0.06496484,-0.35766459,0.98672520,-0.01062306,0.13439224,0.09054977
1759199273425,1.39788590,0.69723226,2.16553075,0.04082013,0.14968372,0.05033955,0.98609987,-0.00959847,0.13814930,0.09181330
1759199273452,-2.62066816,2.42641875,0.67887050,-0.29856876,-0.05640218,0.43409509,0.98558971,-0.01367394,0.13737941,0.09773869
1759199273462,-6.54638032,-3.44146193,-16.04403659,1.08557507,0.20996152,0.40362793,0.98530093,-0.00824606,0.13842922,0.09975683
1759199273495,3.33903090,-0.53853321,3.48775618,0.07113653,0.19488186,0.03108682,0.98481465,-0.00710432,0.14155707,0.10025578
1759199273509,-2.26270114,0.26130006,1.42494283,0.13155421,0.04500373,0.00164133,0.98477465,-0.00619002,0.14186985,0.10026718
1759199273539,1.62489610,-0.70303472,0.59952394,-0.08719017,0.01852033,0.00714797,0.98471377,-0.00751531,0.14215136,0.10037583
1759199273551,-1.20502195,2.37328117,1.56230522,-0.64801565,-0.08270404,0.04365119,0.98472117,-0.01153300,0.14163859,0.10064647
1759199273562,0.18140406,-2.19417314,-1.63117859,-0.36718625,-0.20618955,-0.06231590,0.98489287,-0.01355253,0.14050455,0.10030373
1759199273574,1.36443252,-1.92799487,-2.02376690,-0.14396525,-0.18264351,-0.00252313,0.98503066,-0.01437313,0.13946348,0.10028935
1759199273584,-1.72520217,2.14444827,0.29996273,-0.20603255,-0.12305463,-0.02491243,0.98511967,-0.01546510,0.13881129,0.10015732
1759199273596,2.33827512,-1.84568314,-0.22653623,-0.12628480,-0.12253871,-0.07106040,0.98524960,-0.01619756,0.13810057,0.09974517
1759199273611,0.33889866,0.24807249,0.55487489,-0.12770563,-0.12351027,-0.06417545,0.98541246,-0.01716173,0.13716807,0.09926064
1759199273623,0.10231834,0.07288025,0.36519197,-0.17515924,-0.12962326,-0.05670548,0.98553984,-0.01824772,0.13636440,0.09890907
1759199273625,19.61137018,-33.88572124,-8.44511294,-0.68843713,-0.98025981,-0.84404782,0.98574632,-0.01893616,0.13538414,0.09806502
1759199273635,-3.86899855,6.20234965,1.81491487,-0.01069407,-0.27561450,-0.27852983,0.98605819,-0.01898749,0.13406119,0.09672808
1759199273648,-0.21177852,0.21330892,0.04077826,0.07065823,-0.18618032,-0.18869192,0.98635246,-0.01852468,0.13284171,0.09549214
1759199273662,0.11789305,-0.19652981,-0.15413497,0.12028191,-0.13309288,-0.24832996,0.98665966,-0.01768270,0.13191006,0.09375383
1759199273664,40.46079186,-71.56415710,-42.77224579,0.61111613,-0.89516890,-1.29523224,0.98696197,-0.01694936,0.13083586,0.09219956
1759199273676,-7.68102664,13.92448690,8.80952644,0.02319907,-0.20114325,-0.29162372,0.98727743,-0.01681365,0.12965917,0.09049356
1759199273689,0.85007933,0.37373187,0.16146511,0.05197027,-0.10601155,-0.35054386,0.98758185,-0.01647324,0.12896480,0.08819749
1759199273700,-0.79311502,-1.30345425,-0.40717924,0.11169991,-0.32825755,-0.42197458,0.98801431,-0.01588124,0.12722503,0.08596103
1759199273712,-0.81051208,0.21307624,-0.44262941,0.11558652,-0.40983073,-0.46247936,0.98857154,-0.01519350,0.12478654,0.08320928
1759199273722,0.88251344,-0.25076706,-1.92658502,0.25540435,-0.40755772,-0.54465062,0.98908066,-0.01389093,0.12270799,0.08043156
1759199273732,0.74591741,-0.17358907,0.49527312,0.15708361,-0.13941469,-0.34573063,0.98932133,-0.01308981,0.12199698,0.07866833
1759199273745,1.41699392,1.90347411,1.84222239,-0.12457158,0.13945535,-0.13556431,0.98926944,-0.01387461,0.12287555,0.07781428
1759199273755,-1.32924981,-1.99227106,1.45294837,-0.16342656,0.14333667,-0.29872843,0.98928473,-0.01469174,0.12359223,0.07632064
1759199273767,0.51944558,0.69423564,-0.00580641,-0.01171290,0.09294938,-0.27222220,0.98933807,-0.01476143,0.12414528,0.07470091
1759199273778,-0.21372647,-0.03174168,-0.84175468,0.00087832,-0.15252429,-0.17713233,0.98951612,-0.01475660,0.12330640,0.07372669
1759199273789,-0.34692391,0.31332763,0.37508418,-0.09189717,-0.18129153,-0.13501414,0.98969188,-0.01527582,0.12228210,0.07296386
1759199273799,1.81775209,-0.98067480,1.21270388,-0.08518940,-0.01375025,-0.16998340,0.98975918,-0.01572306,0.12220991,0.07207144
1759199273811,-0.83586056,1.70623189,0.64100052,-0.06538424,0.01531170,-0.22542791,0.98983645,-0.01610229,0.12229872,0.07076396
1759199273823,-1.61441383,1.36762758,0.07876833,-0.21856023,-0.10826922,-0.04308933,0.98991337,-0.01742458,0.12164369,0.07050327
1759199273835,0.32337487,0.28359742,0.97288660,-0.37741512,0.03717729,0.10130155,0.98980097,-0.01967020,0.12186489,0.07110601
1759199273845,2.67277224,2.41526730,1.11292472,-0.43406968,0.27476514,0.12328063,0.98954349,-0.02181885,0.12322498,0.07171625
1759199273867,-1.81481383,-1.05363945,-1.59741109,-0.05454399,0.05048063,0.02132701,0.98944283,-0.02242429,0.12378532,0.07195298
1759199273869,54.05530469,-48.43517149,-22.52258914,2.41974308,1.47011488,-0.45258342,0.98936323,-0.02048849,0.12496141,0.07159092
1759199273876,-10.96496079,7.38721150,1.65761008,0.32687586,0.33969950,-0.03237763,0.98924184,-0.01932808,0.12616734,0.07147598
1759199273897,-0.43493294,0.78036034,0.38280129,0.12548909,0.23736594,-0.02000306,0.98896488,-0.01802927,0.12862408,0.07126894
1759199273907,-0.44133564,0.83112511,-0.88310951,0.20409810,0.41102472,0.03019037,0.98868670,-0.01694755,0.13080251,0.07142895
1759199273909,51.99954567,-1.16655668,63.12929337,1.30440497,2.00705365,0.40157426,0.98838364,-0.01551270,0.13301027,0.07187069
1759199273940,-3.84222846,-0.20047859,-4.14418989,0.18085183,0.16815882,-0.00623945,0.98807746,-0.01271854,0.13560832,0.07177429
1759199273942,49.58720655,-123.81241417,-37.73314796,10.59500677,4.82821721,-2.13761022,0.98775928,-0.00477229,0.13922949,0.07017108
1759199273980,-1.90804355,4.94446631,1.60418535,0.04455547,0.02094932,-0.00317623,0.98771123,-0.00392796,0.13962648,0.07011089
1759199274007,0.42159084,0.34440623,0.40062304,-0.15992179,0.01828733,0.09363756,0.98757067,-0.00615088,0.13988067,0.07141245
1759199274018,2.22855083,1.30502764,4.77858312,-0.45300927,-0.49201307,0.31915211,0.98780104,-0.00861978,0.13719920,0.07315183
1759199274041,-1.27966071,-1.20881324,-2.17348016,-0.05051988,-0.13321443,0.13494159,0.98788896,-0.00918560,0.13570720,0.07466318
1759199274052,0.71133573,3.95735106,4.09034116,-0.61500352,-0.02380753,0.30505088,0.98774286,-0.01253737,0.13557745,0.07632570
1759199274074,-1.55982201,-0.57221218,-1.87733500,-0.21538293,-0.23705285,0.15573799,0.98793136,-0.01491735,0.13295801,0.07804661
1759199274084,-1.64187454,1.46951256,-3.07797383,0.31112260,-0.25106048,0.15622681,0.98806855,-0.01325284,0.13161484,0.07888242
1759199274096,1.22077154,-1.54050331,-0.99922884,0.57318634,-0.08325830,0.25936459,0.98804943,-0.00978507,0.13111113,0.08045158
1759199274107,-0.23433591,0.73649367,1.80241932,0.56157739,-0.10302093,0.35670680,0.98799098,-0.00680871,0.13056511,0.08234212
1759199274129,0.40840572,-0.86278073,0.75723024,0.12693949,-0.09339408,0.17335650,0.98797380,-0.00539333,0.12952377,0.08427505
1759199274141,-2.38866725,2.96230064,3.36900423,0.06349700,-0.37452168,0.45812672,0.98802623,-0.00503775,0.12742645,0.08684056
1759199274151,-1.10707856,-2.69236275,-2.11653931,0.07634211,-0.29568768,0.03264237,0.98821209,-0.00463695,0.12587409,0.08701193
1759199274163,1.14334619,-0.57508012,-1.23436625,-0.04927767,-0.17119307,0.05577843,0.98830649,-0.00491783,0.12489829,0.08732987
1759199274173,-0.28118839,1.81072118,0.13875343,-0.12120265,-0.11418102,0.06884594,0.98834858,-0.00558445,0.12427029,0.08770852
1759199274185,-0.34815741,-1.49641421,-0.04310175,-0.05820241,-0.17419302,0.11414004,0.98841193,-0.00591038,0.12329481,0.08834770
1759199274196,0.98351301,-1.48771970,-0.27221983,-0.02182608,-0.07743720,0.13371783,0.98839836,-0.00602933,0.12287278,0.08907647
1759199274207,0.95213750,0.33411175,0.62256374,-0.07802133,-0.03189338,0.09704341,0.98836812,-0.00647406,0.12269099,0.08962961
1759199274219,0.12070108,-1.52683262,0.23334391,-0.02164701,0.00485776,0.01656819,0.98835485,-0.00660177,0.12271965,0.08972737
1759199274230,-0.37253769,0.12758021,-0.04347081,-0.09788412,0.00072385,-0.09829736,0.98839874,-0.00713035,0.12272356,0.08919656
1759199274242,0.18778664,0.36806834,-0.35812355,-0.11592368,0.06297531,-0.18323696,0.98844585,-0.00783748,0.12310771,0.08807881
1759199274254,-0.14239566,0.70764909,0.35201958,-0.12404965,0.08975907,-0.25721928,0.98850876,-0.00858178,0.12364626,0.08653550
1759199274265,0.38678397,0.48631511,0.85434591,-0.02895679,0.11787851,-0.33819804,0.98858852,-0.00874394,0.12430638,0.08464159
1759199274277,0.19530142,-1.32780554,-2.00590611,0.12489832,0.05456861,-0.21877292,0.98866327,-0.00801328,0.12462561,0.08336177
1759199274278,-66.29419219,-50.15353713,1.46733228,0.86194096,0.99321135,-1.37598170,0.98866008,-0.00728063,0.12546984,0.08219218
1759199274297,6.80714326,5.36672872,-0.23682745,0.02923493,0.08936780,-0.08841702,0.98862502,-0.00701460,0.12628308,0.08138759
1759199274320,-0.11033537,0.06369971,-0.02788167,0.08299438,0.03140700,-0.05788474,0.98864007,-0.00603526,0.12665368,0.08070455
1759199274331,-1.61579923,0.11247283,1.50568209,0.53403309,-0.11868130,-0.09592449,0.98877504,-0.00320489,0.12602467,0.08019615
1759199274341,0.30068556,-0.88716286,-0.37060966,0.25105929,-0.22240204,-0.02329162,0.98893342,-0.00191193,0.12487930,0.08007620
1759199274353,1.26325485,1.48806282,-0.17196925,0.20123824,-0.26849032,-0.00225195,0.98912975,-0.00075481,0.12333548,0.08006325
1759199274365,0.28360797,0.14722995,-0.15872976,0.14530433,-0.27420567,0.00658419,0.98933059,0.00011702,0.12169025,0.08010275
1759199274376,0.33961035,-0.30022779,-0.31831380,0.09866273,-0.27322819,0.04049731,0.98950793,0.00069913,0.12007820,0.08034169
1759199274380,0.71111593,7.43152675,5.06517010,0.02594006,-0.76572427,0.23701714,0.98962132,0.00073933,0.11889133,0.08070906
1759199274400,-0.05224028,-1.31217022,-0.91898441,-0.01729776,-0.14760545,0.06219391,0.98974922,0.00056290,0.11738576,0.08134344
1759199274401,-33.55265665,44.13432958,8.60469014,0.28158393,-1.98830205,0.21386097,0.98990085,0.00076000,0.11599394,0.08149314
1759199274412,3.58735690,-5.79076674,-1.82403468,0.04906240,-0.15437160,-0.03251340,0.99001546,0.00103230,0.11513718,0.08131270
1759199274422,-0.19123001,-0.32594966,-0.78661897,0.07076453,-0.16234596,-0.08518923,0.99013502,0.00136136,0.11438227,0.08091657
1759199274436,0.38963565,-0.06811728,-0.06411326,0.02272629,-0.09191359,-0.02240908,0.99022603,0.00152839,0.11370671,0.08075186
1759199274450,0.26290630,0.10666856,-0.16612116,-0.00598175,-0.10200062,-0.02266364,0.99032074,0.00148652,0.11299270,0.08059321
1759199274455,1.44887123,-0.47820942,-5.83479285,0.03009879,-0.09922089,-0.06435268,0.99035951,0.00155725,0.11275953,0.08044198
1759199274474,-0.24861158,0.13776252,1.64803990,-0.03080371,-0.03175730,0.00240190,0.99039289,0.00126000,0.11245308,0.08046516
1759199274477,-6.36426003,-0.33589650,-26.81682053,-0.39111698,0.02363318,0.22084834,0.99036349,0.00069288,0.11248734,0.08078539
1759199274489,1.13969632,0.15694667,5.81387576,-0.03113222,0.03536232,0.08575450,0.99030124,0.00051698,0.11268714,0.08126991
1759199274503,0.06540726,0.31607159,0.22791828,0.07297843,-0.00466692,0.09661011,0.99024656,0.00104972,0.11265307,0.08197516
1759199274511,-0.12814131,7.56600320,-6.52968982,0.46251297,-0.10621430,0.29021628,0.99019843,0.00276102,0.11226008,0.08304896
1759199274530,0.37291902,-2.74405579,2.55637600,0.19126927,-0.03109937,0.11681861,0.99012925,0.00463546,0.11195531,0.08419378
1759199274533,25.30047741,19.80540269,-17.46867905,0.67750061,-0.28421483,0.97221055,0.99005259,0.00558396,0.11155741,0.08555488
1759199274545,-5.92970442,-4.95162005,4.67048991,0.01562412,-0.18369245,0.21361299,0.99006363,0.00567380,0.11050117,0.08678315
1759199274559,0.18000391,-0.22869382,0.22515694,-0.08030660,-0.12005198,0.08184381,0.99010974,0.00511165,0.10966081,0.08735606
1759199274566,0.65072986,-1.22232363,-2.36722002,-0.15723842,-0.15248312,0.00274754,0.99017832,0.00449056,0.10905850,0.08736691
1759199274586,-0.56155164,0.09077302,0.66150114,-0.05234168,-0.05591557,-0.02742401,0.99026220,0.00399070,0.10852451,0.08710501
1759199274598,-0.05084371,-0.36932132,-1.01041584,-0.01998727,-0.04543764,-0.06526231,0.99032742,0.00386978,0.10824961,0.08671017
1759199274600,18.81437853,-13.88788223,-60.81262403,0.10520551,0.00812515,-0.34492596,0.99035625,0.00397498,0.10825774,0.08636525
1759199274613,-2.52737801,2.18544486,10.38125986,0.01519229,-0.00431484,-0.04357474,0.99038358,0.00407373,0.10822969,0.08608201
1759199274624,0.29076874,0.81124548,0.34547639,0.05372326,-0.00440977,-0.06534794,0.99041761,0.00438264,0.10820433,0.08570626
1759199274633,0.22455482,-1.83965490,-1.55119923,0.12904251,-0.10887686,0.01338822,0.99046206,0.00495043,0.10772528,0.08576517
1759199274649,-0.01634889,0.15605483,0.71132777,0.01931644,-0.02385850,0.01118690,0.99047457,0.00510882,0.10752964,0.08585690
1759199274661,-0.33385109,0.03602558,0.60447781,-0.07518400,0.02511760,-0.11975665,0.99052086,0.00467275,0.10767532,0.08516231
1759199274666,2.40896100,3.00412210,-5.06322291,-0.38543954,0.20039795,-0.27053555,0.99052866,0.00365134,0.10820637,0.08444540
1759199274683,-0.92126647,-0.51915246,1.74495117,-0.04855996,0.05471455,-0.07192294,0.99053107,0.00324586,0.10866324,0.08384484
1759199274699,-0.19063748,0.15395927,-0.03956766,0.04178350,0.08392801,-0.04278772,0.99048582,0.00357386,0.10932207,0.08350896
1759199274701,-14.54135735,-0.00337305,-19.38089309,0.82890637,0.88290285,-0.12791481,0.99038173,0.00452711,0.11033741,0.08336185
1759199274712,2.78891147,0.98026542,2.63612527,0.14900446,0.32205626,0.00600666,0.99016647,0.00538388,0.11218924,0.08339639
1759199274722,-0.87613645,0.05758327,-0.08967908,0.31295949,0.18954405,-0.05979443,0.99007402,0.00694868,0.11313696,0.08309742
1759199274735,0.14966036,-0.24671614,0.74636757,0.26794533,0.33508839,-0.07536721,0.98986397,0.00858315,0.11518099,0.08263768
1759199274748,-0.51146152,-0.20399164,0.46710459,0.16286332,0.22400223,0.02616758,0.98965893,0.00969876,0.11671541,0.08281693
1759199274756,-2.07029503,-0.19216494,-0.39527807,0.29980201,0.66921125,0.05776407,0.98933880,0.01079304,0.11915803,0.08302777
1759199274772,0.70890664,-0.08174974,0.03742752,0.09794750,0.24839810,-0.08474553,0.98913667,0.01161090,0.12123216,0.08232014
1759199274786,-0.81998596,-0.08746938,-0.50651143,0.13490486,0.29477478,-0.18054959,0.98898153,0.01251476,0.12320715,0.08111046
1759199274790,-27.02987239,11.27033759,-19.65627185,0.27565898,0.98245347,-0.39807003,0.98879262,0.01306608,0.12517205,0.08031432
1759199274813,5.23533512,-1.43381860,3.36534670,0.09609742,0.12099007,-0.01536883,0.98860914,0.01420483,0.12660579,0.08013220
1759199274832,-1.10764197,-0.81241487,0.10420008,0.20985484,0.24000884,0.05550622,0.98825857,0.01610402,0.12877787,0.08063453
1759199274837,-16.30648275,13.84988188,-3.51321463,-0.00081193,0.68586585,0.70680826,0.98784295,0.01610175,0.13069829,0.08261359
1759199274859,4.90584723,-3.44526531,0.75316557,0.07265084,0.07627052,0.09204688,0.98763494,0.01689364,0.13152964,0.08361690
1759199274861,-99.53895393,-20.94910358,-91.08563414,0.51880610,0.89396550,0.97223150,0.98743427,0.01738651,0.13237891,0.08454052
1759199274871,17.30928699,3.95194306,15.68673802,-0.07777038,-0.07632778,0.03074117,0.98748074,0.01698210,0.13198200,0.08470038
1759199274902,0.52703927,-0.16079191,0.37003377,-0.01041496,-0.03381895,-0.00343883,0.98755799,0.01682067,0.13145781,0.08464708
1759199274904,-235.65540177,-133.22471291,-277.77281286,-2.52654756,-2.17458442,-1.30284377,0.98788742,0.01492576,0.12982687,0.08366994
1759199274944,8.68794250,4.93502112,10.29020910,-0.04636689,-0.08047216,-0.01419180,0.98813823,0.01398683,0.12819731,0.08338256
1759199274954,-7.02066520,-3.73064210,-11.67886573,-0.31009054,-0.58072238,0.03497395,0.98849790,0.01251390,0.12543888,0.08354869
1759199274977,2.03996421,1.53318811,3.61821764,-0.10191244,-0.10582188,0.00819016,0.98865913,0.01133171,0.12421134,0.08364369
1759199274988,-1.65405249,0.38852115,-2.95952526,-0.12447326,-0.00557320,-0.01557924,0.98867716,0.01067201,0.12418181,0.08356112
1759199275020,0.88555893,-0.08010952,1.39832281,-0.02118397,0.01238277,-0.00456057,0.98866169,0.01032565,0.12438426,0.08348656
1759199275023,-86.27314778,-7.26975650,-103.70525349,-0.17248641,-0.04027724,-0.14613887,0.98868853,0.01008417,0.12432788,0.08328196
1759199275065,5.96836421,0.46195296,7.07105097,-0.01887261,-0.00167978,-0.03522593,0.98875862,0.00968973,0.12429277,0.08254574
1759199275077,-1.36623756,-0.13884325,-2.29630668,-0.24184538,-0.17500548,-0.09112398,0.98894399,0.00827493,0.12326899,0.08201266
1759199275100,0.70151912,0.13271864,0.77714853,-0.05258037,-0.10295798,0.00223061,0.98909360,0.00767026,0.12208497,0.08203832
1759199275110,1.71474917,-0.51838954,0.93450636,-0.07498607,-0.19897072,0.02225350,0.98921755,0.00726909,0.12102048,0.08215737
1759199275133,-0.43255410,0.16747491,0.19893102,-0.07498885,-0.09922699,-0.00939476,0.98937142,0.00640671,0.11987937,0.08204933
1759199275143,3.24837818,-0.35452948,1.53604853,-0.00535851,-0.16145237,0.00326629,0.98946675,0.00638019,0.11908018,0.08206550
1759199275154,-0.09284913,0.40326568,0.34079338,0.06979229,-0.11495034,0.01165084,0.98953662,0.00677452,0.11843071,0.08213133
1759199275166,-0.20816501,0.06214144,0.12406574,0.08819731,-0.08319426,-0.00183168,0.98959055,0.00727724,0.11795650,0.08212089
1759199275177,-0.12178010,-0.39104727,0.15496942,0.06142074,-0.01949222,-0.03249797,0.98961719,0.00763655,0.11784247,0.08193077
1759199275188,1.26302957,-0.62318336,2.55081573,0.01425436,-0.04039403,-0.05920225,0.98966657,0.00770996,0.11763444,0.08162588
1759199275199,-1.23349201,0.39696011,-1.34834971,-0.00824562,-0.01448670,-0.09960225,0.98971992,0.00766585,0.11755694,0.08109301
1759199275211,-0.09999251,0.45909578,-0.19069954,-0.02889912,0.00759937,-0.10290400,0.98976661,0.00749101,0.11760291,0.08047044
1759199275233,-0.52033429,0.22432626,-0.40735220,0.00016726,0.00998517,-0.05187442,0.98979992,0.00749286,0.11771325,0.07989723
1759199275243,5.12357470,0.73223174,4.03913476,0.28793467,0.13393542,-0.07679209,0.98973528,0.00901891,0.11842311,0.07949023
1759199275254,-2.81320354,-0.70498548,-1.73520804,0.12950206,0.07039458,0.07019768,0.98965105,0.00973117,0.11881028,0.07987632
1759199275265,0.03793023,0.33299785,-0.04384143,0.04471633,0.04498497,0.05692631,0.98959354,0.00997711,0.11905769,0.08018941
1759199275287,-0.89618341,-0.18949784,-0.75154561,-0.00840883,0.01543629,-0.01020882,0.98958331,0.00988630,0.11922441,0.08007916
1759199275298,4.84458333,0.17643820,2.96890959,-0.02621786,0.00474633,-0.16318014,0.98965318,0.00974341,0.11925027,0.07918983
1759199275311,-2.79743575,-0.48136709,-1.59258220,-0.02380028,-0.05083376,-0.09448684,0.98974132,0.00959228,0.11892748,0.07858983
1759199275321,0.89746087,0.34198892,0.89997369,-0.09844830,-0.05160107,-0.03549162,0.98979497,0.00906066,0.11864883,0.07839818
1759199275332,-0.41616245,0.29826292,-0.50104630,-0.05474549,-0.08581594,-0.03076722,0.98986688,0.00876229,0.11818114,0.07823050
1759199275343,0.04681622,-0.64683639,-0.64967783,0.02203585,-0.06461116,0.02384528,0.98989862,0.00888679,0.11781608,0.07836522
1759199275354,-0.05426849,0.11121286,-0.44889339,0.06056843,-0.06324676,0.01284704,0.98993014,0.00920781,0.11748088,0.07843331
1759199275365,-0.52978227,-0.34355436,0.37510684,0.05232279,-0.07537694,0.02738067,0.98996552,0.00950343,0.11705500,0.07858801
1759199275368,34.80828635,-8.62589387,25.91145615,0.09100359,-0.29731992,-0.05163729,0.99001916,0.00963084,0.11663875,0.07851572
1759199275391,-5.11534135,1.10463875,-3.86717336,-0.03459225,-0.04280015,-0.03498625,0.99011183,0.00923648,0.11615083,0.07811688
1759199275392,186.23143682,-40.91937292,96.02072460,-1.06551763,-1.11540861,-0.80134763,0.99025388,0.00849062,0.11537004,0.07755594
1759199275403,-22.60522311,5.08180486,-11.92349482,-0.11275720,-0.11422318,-0.08055228,0.99036352,0.00788737,0.11475895,0.07712498
1759199275433,-0.82024656,0.16212525,-0.36398353,-0.02352977,-0.04696776,-0.04950998,0.99050520,0.00753442,0.11405443,0.07638233
1759199275436,94.71881722,-13.68299127,55.52379622,-0.86735206,-0.67982414,-0.17093613,0.99062196,0.00649360,0.11323864,0.07617721
1759199275468,-7.14280837,1.08942455,-4.29018762,0.02055900,-0.00811291,-0.01283114,0.99065070,0.00682666,0.11310721,0.07596934
1759199275478,3.42704281,-0.54561964,0.88190167,0.09418910,0.05297328,-0.00547118,0.99062012,0.00728348,0.11336413,0.07594281
1759199275489,-1.14930052,-0.00526725,0.50401995,0.00593895,-0.01604541,0.00955035,0.99062615,0.00731733,0.11327267,0.07599725
1759199275511,-0.72040197,0.19086744,-0.56108108,-0.03201667,0.00287854,-0.00656501,0.99063065,0.00696194,0.11330463,0.07592437
1759199275521,0.01540375,-0.26170727,-0.09513985,-0.14818381,0.13305020,-0.05549144,0.99058151,0.00623584,0.11395657,0.07565247
1759199275566,-0.18491707,0.08475543,-0.03568650,-0.00138861,0.02205918,-0.00271323,0.99052914,0.00620460,0.11445290,0.07559142
1759199275602,-0.14326271,0.00808066,-0.37243245,-0.01587906,0.07983367,-0.00336196,0.99036841,0.00591877,0.11588991,0.07553090
1759199275621,-0.71792739,0.10050376,-0.60452256,0.02625858,0.07397379,0.00767292,0.99027978,0.00616561,0.11658526,0.07560303
1759199275666,0.24145365,-0.06238153,0.35162456,-0.01893475,0.02204777,0.00296460,0.99021858,0.00573863,0.11708244,0.07566988
1759199275702,-0.31528500,-0.01691734,-0.38535159,-0.00232510,-0.00847896,0.01563249,0.99021531,0.00569666,0.11692939,0.07595205
1759199275712,-5.13305179,-1.60840156,-5.11304572,-0.15558424,0.03394123,0.05093261,0.99018057,0.00493430,0.11709571,0.07620162
1759199275745,1.60059755,0.41282199,1.67609082,-0.02396746,-0.03558274,0.00496599,0.99024560,0.00453763,0.11650681,0.07628380
1759199275799,0.22720005,0.00824536,0.22332565,0.00523071,-0.00087545,-0.01061754,0.99026981,0.00467913,0.11648313,0.07599660
1759199275809,-2.80390427,-3.64714382,-5.35318410,-0.39776592,0.00872629,-0.27496755,0.99037767,0.00267041,0.11652720,0.07460801
1759199275834,1.04488246,1.30538254,2.13879899,-0.01289846,0.04314583,-0.03342424,0.99034600,0.00250982,0.11706436,0.07419188
1759199275859,0.02928623,0.26636526,0.00974952,0.07376103,0.07661423,0.02749058,0.99020662,0.00341339,0.11800289,0.07452864
1759199275873,0.09723041,0.17149687,0.36756033,0.00156929,0.07116575,-0.03470814,0.99016416,0.00342469,0.11851528,0.07427874
1759199275889,0.22264925,0.07370131,0.19105303,-0.03260522,0.05791189,-0.02889437,0.99012725,0.00316711,0.11897279,0.07405048
1759199275897,0.07824332,-0.03162392,0.34314538,0.00247611,0.08727814,-0.05686311,0.99010188,0.00317714,0.11932626,0.07382018
1759199275907,0.12488592,-0.18187251,0.09796447,-0.00361387,0.09805291,-0.03060671,0.99005173,0.00315817,0.11984104,0.07365950
1759199275923,-0.03572557,0.00519226,-0.11703551,0.01564913,0.06954981,-0.01001308,0.98999171,0.00327945,0.12038005,0.07358189
1759199275926,1.71904122,2.91034549,4.89781791,0.14792183,0.34940912,-0.09225029,0.98993372,0.00351612,0.12093911,0.07343429
1759199275937,-0.56389941,-0.58528435,-1.11456999,0.04654864,0.07086450,0.00176716,0.98988616,0.00376283,0.12131469,0.07344366
1759199275956,0.11422186,0.03483613,-0.10094209,0.03676467,0.04874655,-0.00338425,0.98982971,0.00411577,0.12178266,0.07341117
1759199275959,8.05635419,9.30929350,11.04341613,0.22282725,0.27963205,0.07168372,0.98976858,0.00445001,0.12220210,0.07351870
1759199275970,-1.52309254,-2.07466358,-2.47616181,0.05474653,0.05234718,0.04996373,0.98971009,0.00475659,0.12249525,0.07379849
1759199275989,-0.31217345,-0.33927654,-0.30718347,0.01517062,0.04177963,0.00030235,0.98966050,0.00489920,0.12288798,0.07380134
1759199275992,1.48478835,1.47127969,8.79383368,-0.02245340,0.10268106,-0.00120655,0.98963978,0.00486215,0.12305740,0.07379934
1759199276003,-0.32166804,-0.43061482,-1.96054947,-0.03022094,0.08386290,0.01535581,0.98957682,0.00469593,0.12351865,0.07388380
1759199276022,-0.03403384,-0.04071596,-0.16731028,0.01217126,0.07085912,0.00053534,0.98949073,0.00481278,0.12419889,0.07388894
1759199276025,0.84923826,-0.27826613,12.64339041,0.16577764,0.52276674,-0.01829268,0.98938952,0.00506973,0.12500918,0.07386059
1759199276037,-0.77943690,0.10381600,-3.19773463,0.03910044,0.19279864,-0.03702528,0.98926571,0.00529065,0.12609849,0.07365139
1759199276056,-0.08320164,0.08059393,-0.31970217,0.04517324,0.14119079,-0.04710227,0.98912240,0.00572657,0.12746099,0.07319686
1759199276059,-7.33122319,11.22822271,11.57333499,0.32977077,1.05579173,-0.01078096,0.98892914,0.00618825,0.12893909,0.07318176
1759199276070,1.28769601,-1.86977262,-2.68420471,0.10196918,0.29907160,0.03353292,0.98869168,0.00675928,0.13061389,0.07336955
1759199276090,0.08068189,-0.18227257,-0.16828069,0.06338374,0.18438396,0.00910732,0.98843375,0.00739629,0.13246695,0.07346108
1759199276093,-37.03254965,28.13863517,19.35434579,0.15339537,1.71899511,0.02943707,0.98813921,0.00758803,0.13461570,0.07349787
1759199276103,5.05010492,-5.56190625,-3.58307785,0.01784021,0.41115335,-0.04845062,0.98785557,0.00768347,0.13681537,0.07323866
1759199276124,1.43827843,-0.69372754,-0.58284191,0.09028165,0.27533777,-0.08026429,0.98751870,0.00859532,0.13959628,0.07242799
1759199276126,-14.48896298,-24.45616573,-0.79639465,1.00798153,2.74139451,-0.53880124,0.98701032,0.01000649,0.14343423,0.07167367
1759199276137,-1.58100985,6.77395711,1.67254860,0.13834886,0.59171158,-0.13023951,0.98657968,0.01076049,0.14665906,0.07096387
1759199276158,3.04448358,0.66082792,-0.81138559,0.05166435,0.31813864,-0.03652895,0.98610574,0.01129522,0.14995179,0.07058579
1759199276160,-85.35384178,25.64469792,39.72595911,1.62549790,3.65313693,0.31674220,0.98543916,0.01308327,0.15397025,0.07093421
1759199276170,14.84719988,-6.36913264,-7.06811418,0.27731560,0.66108418,0.00403018,0.98487968,0.01451144,0.15737483,0.07095496
1759199276191,1.10737381,-0.94629312,-0.32065365,0.15195766,0.32132633,0.00164079,0.98430856,0.01610700,0.16074876,0.07097219
1759199276194,-122.92619389,87.41615794,27.04546095,0.84957406,2.60913538,-0.65259132,0.98387133,0.01704153,0.16361880,0.07025434
1759199276204,25.50065517,-16.99412411,-5.60619614,0.20753715,0.56531519,-0.07306894,0.98340460,0.01807922,0.16644538,0.06988900
1759199276224,1.73872912,-0.64284275,-0.37824987,0.06557540,0.28270375,-0.00091071,0.98289533,0.01875464,0.16935723,0.06987962
1759199276226,-24.19617786,-49.12372255,94.98848251,0.75795632,3.26025175,0.39953416,0.98237709,0.01939891,0.17212844,0.07021922
1759199276237,-0.78740361,6.91164614,-11.92034199,0.04413775,0.42780739,0.00560672,0.98194715,0.01964608,0.17452416,0.07025062
1759199276258,1.94876750,0.63626009,-1.03307512,-0.00774296,0.20955268,-0.00120045,0.98155231,0.01956400,0.17674542,0.07023789
1759199276261,-24.26602865,1.28163231,-3.60527705,0.56515586,2.16217612,-0.10492844,0.98111673,0.02018567,0.17912382,0.07012247
1759199276271,6.33399280,-1.56193214,1.67415796,0.06027876,0.53486806,-0.02890008,0.98062386,0.02049008,0.18182490,0.06997653
1759199276290,-1.26838369,0.02537035,-0.18383696,-0.02913521,0.25261001,-0.03865931,0.98019230,0.02020310,0.18431311,0.06959573
1759199276293,-10.62532954,45.27678420,34.10820880,-0.24703056,2.09218521,-0.00043252,0.97968357,0.01988196,0.18703295,0.06959517
1759199276304,1.94378504,-8.95885650,-7.72571245,0.01702889,0.46666641,0.05597452,0.97916151,0.01997647,0.18962295,0.06990583
1759199276325,1.71422632,-0.87837188,-0.26779248,0.04587247,0.29836993,0.04302422,0.97851355,0.02045354,0.19272600,0.07035328
1759199276327,-79.44360663,-71.23184893,135.71966872,1.04895211,3.67089133,0.62924431,0.97787630,0.02129271,0.19566271,0.07085668
1759199276337,8.85293401,12.22375577,-19.51740448,-0.03571047,0.47855159,-0.01427467,0.97736068,0.02109808,0.19827081,0.07077888
1759199276358,1.37349948,-0.62005004,-0.25298284,-0.02585655,0.27245830,0.00138064,0.97678909,0.02083047,0.20109076,0.07079317
1759199276360,-35.62349340,-61.23013111,64.19906150,0.29256583,2.53984462,-0.35642042,0.97628226,0.02112303,0.20363060,0.07043675
1759199276371,6.27930202,10.45926358,-11.22817701,-0.05337770,0.43040825,-0.10482745,0.97585382,0.02084280,0.20589025,0.06988640
1759199276391,-0.22386511,0.19971459,-0.72542046,-0.02774144,0.20664382,-0.05804135,0.97546285,0.02056539,0.20795668,0.06930599
1759199276393,-5.74824265,18.25679565,35.01448942,-0.00366840,1.69622043,-0.38950929,0.97507677,0.02056117,0.20990734,0.06885805
1759199276404,2.25727966,-3.29741492,-7.34129274,0.14549712,0.39677463,-0.06326501,0.97460324,0.02137595,0.21212928,0.06850377
1759199276424,0.74972270,-0.46629183,0.04847244,0.07544630,0.26927631,0.00220965,0.97398565,0.02214173,0.21486243,0.06852620
1759199276426,-57.84256864,-62.63517285,165.99746760,0.13271747,2.18369854,-0.21868555,0.97356112,0.02226118,0.21682776,0.06832938
1759199276437,7.88867767,11.69282336,-23.70578810,-0.11661027,0.37121999,-0.11020561,0.97315000,0.02160233,0.21892515,0.06770672
1759199276458,0.05694758,-0.43666385,-1.33303209,-0.06688241,0.20855768,-0.07811965,0.97274512,0.02093016,0.22102116,0.06692162
1759199276460,46.07884470,-19.20393327,43.72513154,-0.39832456,2.13728941,-0.31393318,0.97219485,0.02045217,0.22358590,0.06654490
1759199276472,-9.66340303,3.33496266,-7.37234950,-0.05297540,0.30521641,0.01687585,0.97177157,0.02013432,0.22541720,0.06664615
1759199276507,-0.08244463,-0.11060701,-0.75014471,-0.00777473,0.08752560,-0.01458784,0.97143722,0.01999904,0.22694015,0.06639232
1759199276508,301.57718577,-35.06972020,391.37849706,-0.44875935,6.94112293,-1.29875779,0.97043552,0.01970735,0.23145188,0.06554813
1759199276551,-9.08439010,1.20118255,-11.78913076,-0.01309261,0.08092401,-0.00321538,0.97003115,0.01942716,0.23318365,0.06547932
1759199276583,0.93526680,0.01472202,0.75923626,-0.06196816,0.31775762,0.02230062,0.96877829,0.01842638,0.23831544,0.06583948
1759199276615,-0.75374461,-0.27804297,-0.16046090,-0.05742747,0.20550592,-0.03598252,0.96802912,0.01751902,0.24156243,0.06527095
1759199276651,0.32363678,0.08430252,-0.11765161,0.03633901,0.10374233,0.03318167,0.96750142,0.01818221,0.24345573,0.06587652
1759199276684,-0.07320472,0.38924708,0.10988746,-0.00979366,0.16891379,0.00189294,0.96679243,0.01801964,0.24625970,0.06590794
1759199276695,1.25933529,-0.19869962,1.92038909,0.30266048,0.68463211,0.11926261,0.96578631,0.01962374,0.24988825,0.06654003
1759199276729,-0.91777617,0.06907536,-1.02359238,0.08244108,0.16988680,0.00013290,0.96499550,0.02104172,0.25281030,0.06654232
1759199276738,-1.63435842,0.22275145,5.14636767,0.42535909,0.51071171,0.02527624,0.96436101,0.02289204,0.25503190,0.06665227
1759199276761,1.72314979,0.46824522,-1.55657852,0.08059810,0.09373598,0.10454449,0.96396554,0.02382697,0.25611923,0.06786499
1759199276796,-0.72193696,-0.76838151,-0.25597259,0.05955029,-0.00046775,0.01871268,0.96391910,0.02485124,0.25611119,0.06818685
1759199276798,50.64921296,-12.01056343,-28.83839782,0.23224920,-0.05539393,-0.14627241,0.96393719,0.02507187,0.25605856,0.06804789
1759199276827,-3.04655778,0.80071121,1.87076647,-0.08190118,-0.00715946,-0.04511717,0.96404335,0.02385564,0.25595225,0.06737790
1759199276832,7.10969957,-7.12626809,5.86911243,-0.62066233,-0.10310541,-0.09621048,0.96414870,0.02252122,0.25573057,0.06717104
1759199276850,-1.33862316,1.61281900,-1.50412551,-0.03587095,-0.05210747,-0.00134700,0.96428571,0.02218762,0.25524597,0.06715852
1759199276866,-0.18858339,0.24533064,-0.41854309,0.01491043,-0.03221752,0.03253885,0.96433181,0.02230392,0.25499467,0.06741232
1759199276895,-0.15547272,-0.00133807,-0.22926835,0.00738395,-0.03391982,0.02960168,0.96442982,0.02241173,0.25449944,0.06784450
1759199276897,51.70435019,-1.50032239,-100.58188121,-0.16266143,-1.87930878,0.77410253,0.96478457,0.02228160,0.25299600,0.06846379
1759199276928,-2.58350619,0.06341910,5.13541170,0.01451020,-0.10535899,0.01632731,0.96519461,0.02251013,0.25133659,0.06872094
1759199276930,75.42487987,-65.34987027,-84.98797883,-0.25680119,-2.65688558,-0.88032066,0.96572483,0.02233037,0.24947677,0.06810472
1759199276963,-3.18079984,2.67232007,3.50770810,-0.08011477,-0.11472210,-0.02204498,0.96627033,0.02100047,0.24757239,0.06773877
1759199276965,23.73060771,-20.26178468,-17.10211984,-0.76826260,-0.73795435,0.25291443,0.96644839,0.02027062,0.24687133,0.06797904
1759199276997,-1.47100326,1.24481225,0.95983339,-0.05919236,-0.06144872,0.04428733,0.96666968,0.01931762,0.24588200,0.06869207
1759199276998,-28.71018760,-27.08454627,-127.93843475,0.31630996,-0.22785120,0.30661545,0.96669051,0.01953904,0.24572251,0.06890670
1759199277029,1.17050998,1.30777439,5.82852896,-0.00853657,0.00961410,0.02147649,0.96663226,0.01940843,0.24586960,0.06923529
1759199277031,5.06645920,9.02621761,-10.22041131,-0.67851369,-0.43304939,0.32131817,0.96674262,0.01866206,0.24539325,0.06958874
1759199277064,-0.17859802,-0.62727578,0.84375399,-0.05843906,-0.05492988,0.01966676,0.96696830,0.01769197,0.24448141,0.06991521
1759199277066,90.67230914,-38.17944801,-80.25270708,-2.33996850,-2.64643936,0.88017408,0.96745054,0.01593700,0.24249658,0.07057534
1759199277097,-4.29742666,1.71533402,3.54541163,-0.02544643,-0.16635388,-0.02063642,0.96812288,0.01554258,0.23991810,0.07025547
1759199277099,4.51718607,-10.20593028,-44.52259310,-0.01779681,-1.28043131,-0.20380757,0.96853692,0.01552033,0.23831756,0.07000071
1759199277130,-0.45543838,1.02983707,3.76676754,0.00956510,-0.14520003,0.02842370,0.96905527,0.01566907,0.23605970,0.07044270
1759199277132,15.17067577,21.22988739,-51.51486546,0.53049425,-2.46009251,0.62758597,0.96948902,0.01609346,0.23409163,0.07094477
1759199277160,-0.81119841,-1.19981912,2.96959066,0.00237489,-0.16492841,0.05172965,0.96999695,0.01612719,0.23174964,0.07167933
