UnixTime(ms),Ax,Ay,Az,Gx,Gy,Gz,QuatW,QuatX,QuatY,QuatZ
1761620016881,0.00000000,0.00000000,0.00000000,0.00000000,0.00000000,0.00000000,0.97623169,0.15481459,-0.14218503,0.05279725
1761620016885,3.15536687,3.98762432,-15.07040895,0.08750577,-0.06711439,0.19339704,0.97615481,0.15501147,-0.14233604,0.05323239
1761620016895,-0.33472499,-1.52429407,3.89215107,0.04374681,-0.03731067,0.08465236,0.97607050,0.15522802,-0.14252073,0.05365142
1761620016906,-0.02225512,-0.28720780,0.42563868,0.04311283,-0.05721489,0.01964634,0.97597837,0.15547161,-0.14284399,0.05376243
1761620016918,-0.06623226,0.14262025,0.30971109,0.01792082,-0.06081812,0.01071310,0.97590669,0.15557555,-0.14319674,0.05382456
1761620016929,-0.05977243,-0.06142731,-0.26425705,0.01074454,-0.05334343,0.00827042,0.97585066,0.15563572,-0.14349546,0.05387088
1761620016940,0.27660748,-0.55499878,0.16804505,0.00095822,-0.00386191,0.02600481,0.97583846,0.15564113,-0.14351728,0.05401780
1761620016952,0.10865710,-0.34927330,0.10414935,-0.05870992,0.02617222,0.04425735,0.97589864,0.15531236,-0.14337072,0.05426564
1761620016963,-0.01060284,0.14359474,0.44945382,-0.06520883,0.04763075,0.01124914,0.97599316,0.15494393,-0.14310160,0.05432920
1761620016974,0.14190471,0.35896289,0.10456136,-0.03042960,0.03102849,-0.02757131,0.97605479,0.15477200,-0.14292629,0.05417342
1761620016986,0.10320743,0.20415783,0.07965945,0.00688103,-0.00736284,-0.01952952,0.97604870,0.15481053,-0.14296752,0.05406406
1761620016997,0.10682864,0.21274349,0.05548154,0.01412181,-0.01006825,-0.00478468,0.97602920,0.15489032,-0.14302441,0.05403702
1761620017008,-0.36561191,0.03415638,-0.29820424,0.05253739,-0.00812659,-0.01339149,0.97597907,0.15518979,-0.14307073,0.05396069
1761620017019,0.35727294,-0.12660631,0.33160795,0.06556671,0.03461217,0.03050299,0.97593990,0.15555368,-0.14287863,0.05412998
1761620017030,-0.12013530,-0.14472186,0.05575264,0.02983347,0.05256458,0.03003088,0.97594697,0.15572075,-0.14258427,0.05429816
1761620017042,0.34972113,0.06438480,0.31931060,0.02099309,0.07320096,0.03651622,0.97597661,0.15583831,-0.14217435,0.05450265
1761620017054,-0.09320349,0.18844370,0.15016118,0.04669367,0.07276266,0.02700509,0.97598651,0.15612548,-0.14172686,0.05466873
1761620017064,0.75657130,-0.11515024,-0.34947909,0.12242383,0.10434835,0.03337609,0.97595434,0.15674372,-0.14119990,0.05483728
1761620017075,-0.07372382,0.05055341,0.11372780,0.08836842,0.09229009,0.00492898,0.97594788,0.15723416,-0.14068769,0.05486463
1761620017086,0.17739478,-0.00519899,0.31122852,0.05385633,0.09790661,-0.01080693,0.97598153,0.15753576,-0.14013941,0.05480412
1761620017098,0.06869458,-0.06756076,0.15038170,0.03570210,0.11726152,-0.02219191,0.97604966,0.15773390,-0.13948861,0.05468095
1761620017109,-0.16363786,-0.07079886,-0.14345227,0.00616157,0.11431901,-0.02110534,0.97614279,0.15776872,-0.13884271,0.05456171
1761620017120,0.07468669,-0.15100715,-0.07468669,-0.00515693,0.11320740,-0.04499720,0.97625244,0.15773958,-0.13820308,0.05430747
1761620017131,0.05959296,-0.28892310,0.08274516,-0.06408088,0.14059761,-0.03472325,0.97643068,0.15738393,-0.13742277,0.05411476
1761620017142,0.00000000,-0.07982117,-0.06192188,-0.10350521,0.15855360,-0.05764865,0.97666421,0.15680948,-0.13654279,0.05379481
1761620017154,-0.36430997,0.28580507,-0.04082135,-0.09558619,0.19746514,-0.09468416,0.97693300,0.15627419,-0.13543699,0.05326458
1761620017165,-0.00000000,0.09764632,-0.10643687,-0.06327015,0.21093017,-0.12804911,0.97719145,0.15591988,-0.13425578,0.05254750
1761620017176,-0.03490017,0.08464370,-0.14554406,-0.02885472,0.22047291,-0.14216520,0.97742642,0.15575974,-0.13303216,0.05175848
1761620017187,-0.21585126,-0.26494640,0.04440830,-0.04126636,0.21318594,-0.15126859,0.97767160,0.15552658,-0.13182766,0.05090382
1761620017198,-0.08209425,-0.35734887,0.13587052,-0.08459749,0.22626658,-0.13635180,0.97795123,0.15506130,-0.13058319,0.05015388
1761620017209,-0.26001006,-0.37531090,0.10284289,-0.11144077,0.24283992,-0.13648223,0.97826947,0.15443723,-0.12922329,0.04938958
1761620017220,0.05321843,-0.35257212,-0.04561580,-0.12015763,0.28384979,-0.11941232,0.97861761,0.15376434,-0.12763373,0.04872087
1761620017232,-0.51697906,0.11249521,-0.04561580,-0.14505342,0.30464999,-0.10850415,0.97899592,0.15295205,-0.12592769,0.04811325
1761620017243,-0.42377785,-0.24485079,-0.14512940,-0.15201641,0.35681513,-0.10166814,0.97940757,0.15210835,-0.12394736,0.04754899
1761620017254,-0.45667385,0.06434070,0.06192188,-0.15628493,0.41466257,-0.09676241,0.97985626,0.15124097,-0.12164599,0.04701196
1761620017265,-0.68007396,-0.21074744,0.79649374,-0.14628125,0.45697328,-0.08207564,0.98032674,0.15040717,-0.11904124,0.04654413
1761620017276,-1.99017483,0.03855788,4.77219491,-0.17850125,0.48596847,-0.09558927,0.98081802,0.14943434,-0.11639271,0.04602317
1761620017287,-0.14601590,-0.08435228,-0.12128022,-0.17188376,0.48786206,-0.12199924,0.98132070,0.14846319,-0.11363629,0.04533387
1761620017299,0.37098328,-0.29925447,-0.92238938,-0.20775935,0.49985175,-0.10099954,0.98183739,0.14731013,-0.11086211,0.04477332
1761620017310,1.26939849,-0.56092513,-4.52029706,-0.19864036,0.50824595,-0.09898502,0.98234140,0.14620768,-0.10804135,0.04422396
1761620017321,-0.47800700,0.16105297,0.02219147,-0.25381348,0.48907317,-0.09750727,0.98287361,0.14478632,-0.10530254,0.04367792
1761620017332,0.23568163,-0.09051885,0.21287373,-0.23922696,0.53934180,-0.11351275,0.98341689,0.14344665,-0.10228222,0.04304225
1761620017343,-0.46360732,0.23337822,-0.38845058,-0.22399513,0.50484460,-0.12794148,0.98391111,0.14221468,-0.09950558,0.04233857
1761620017354,0.23777526,0.36861487,0.29331499,-0.15472644,0.51595445,-0.12865758,0.98435849,0.14134047,-0.09659044,0.04161165
1761620017365,-0.04123559,0.12280773,0.15877756,-0.13295724,0.51604826,-0.10238077,0.98476481,0.14060256,-0.09372637,0.04104344
1761620017377,-1.11977884,0.21324616,0.30835185,-0.11182329,0.49020966,-0.10022237,0.98513463,0.13997635,-0.09098119,0.04048219
1761620017388,0.23973995,-0.24080682,0.15328429,-0.12554401,0.50967950,-0.09636989,0.98551233,0.13927958,-0.08815247,0.03994734
1761620017399,0.24136648,-0.04549166,0.19780545,-0.15858799,0.49350501,-0.09721869,0.98590261,0.13839149,-0.08538884,0.03940292
1761620017410,0.85149493,-0.44368493,-0.38013166,-0.16100744,0.47316003,-0.12863173,0.98628314,0.13748985,-0.08273915,0.03868258
1761620017421,-0.03884506,0.05989713,0.31160492,-0.20084208,0.40609280,-0.19391670,0.98666253,0.13638521,-0.08050564,0.03761604
1761620017433,0.48297172,0.24299282,0.03999932,-0.16891313,0.29527522,-0.19495365,0.98699700,0.13534640,-0.07868969,0.03641707
1761620017443,0.28245817,-0.04331271,0.17274686,-0.19066589,0.29443477,-0.25255594,0.98728929,0.13439307,-0.07721752,0.03515429
1761620017455,0.27342186,0.21938509,-0.09569031,-0.13223169,0.21501120,-0.20889817,0.98752834,0.13363935,-0.07599196,0.03396357
1761620017465,-0.08968795,0.04391210,0.01912129,-0.15325232,0.19924832,-0.19444389,0.98775139,0.13283477,-0.07494590,0.03294274
1761620017476,0.34874908,-0.26332605,0.31251343,-0.17280438,0.17879919,-0.15574110,0.98797897,0.13189299,-0.07397145,0.03209395
1761620017488,0.12080515,0.14835488,0.15302915,-0.20692761,0.16574788,-0.11473721,0.98822268,0.13073420,-0.07304326,0.03145142
1761620017499,0.18246320,0.07994644,-0.13684740,-0.20172729,0.14477552,-0.07924096,0.98844507,0.12960452,-0.07223252,0.03100767
1761620017510,-0.18156640,0.30967293,-0.28793084,-0.15554109,0.13782233,-0.05164649,0.98862878,0.12871016,-0.07144004,0.03071071
1761620017521,0.02442965,-0.32526338,-0.06602986,-0.10767140,0.15057415,-0.00996745,0.98876564,0.12812335,-0.07061941,0.03065638
1761620017532,-0.08052685,0.55230391,0.02755240,-0.04259794,0.16163180,0.00860860,0.98885842,0.12788693,-0.06972235,0.03070416
1761620017543,0.00678073,0.10871958,0.11972435,-0.04070281,0.14555701,0.01495337,0.98894240,0.12765900,-0.06890723,0.03078790
1761620017555,-0.10643687,0.15989288,0.21287373,-0.03102483,0.11957567,-0.01021557,0.98901302,0.12748526,-0.06823761,0.03073069
1761620017566,0.14699535,0.07594781,0.22170244,-0.04135445,0.08305545,0.00943698,0.98907265,0.12725574,-0.06777665,0.03078307
1761620017577,-0.12287499,0.20590893,0.47971931,-0.04985331,0.06313209,0.02480488,0.98912836,0.12697656,-0.06742311,0.03092198
1761620017588,0.03109916,0.04246331,0.21258002,-0.04738383,0.08732394,0.03506116,0.98918889,0.12671358,-0.06693846,0.03111657
1761620017599,0.08514258,-0.05986588,-0.03096094,-0.03977417,0.08402652,0.03419679,0.98924261,0.12649284,-0.06647212,0.03130636
1761620017610,0.32633373,-0.15119639,-0.39846357,-0.04657216,0.06646785,0.02159973,0.98929751,0.12622970,-0.06609657,0.03142840
1761620017621,0.03640883,-0.02881276,0.20185281,-0.05360020,0.05863979,0.00594708,0.98935553,0.12593490,-0.06577406,0.03146111
1761620017633,0.11393115,0.04450223,0.02756618,-0.01228568,0.03905465,-0.01087080,0.98938096,0.12586549,-0.06555340,0.03139969
1761620017644,0.07301850,0.16014858,0.10014357,-0.00634584,0.03140185,0.00460626,0.98939616,0.12583027,-0.06537912,0.03142525
1761620017655,0.06966211,0.09639011,0.06192188,0.00806062,0.03033363,0.00384559,0.98940091,0.12587501,-0.06521076,0.03144659
1761620017666,0.03130093,0.12678547,0.00260270,-0.00366352,0.03947854,0.00942711,0.98941638,0.12585449,-0.06498968,0.03149939
1761620017677,0.03814134,-0.22875570,0.10499425,0.01353604,0.03670543,0.01138797,0.98941815,0.12592894,-0.06478780,0.03156202
1761620017688,0.13525080,0.04585805,-0.05486077,-0.00468287,0.03164790,-0.00213533,0.98943360,0.12590248,-0.06460899,0.03154995
1761620017700,0.08457088,0.01150172,-0.09338456,-0.02280007,0.01058583,-0.02096174,0.98945744,0.12577480,-0.06454971,0.03143257
1761620017711,0.13750587,0.16124965,-0.00619269,-0.02529363,-0.00575478,-0.02318068,0.98947709,0.12563568,-0.06458136,0.03130507
1761620017722,0.08542595,0.08075638,-0.17638109,-0.00758298,-0.00355533,-0.03741705,0.98948779,0.12559322,-0.06460127,0.03109554
1761620017733,-0.04270951,0.05389873,0.02626151,-0.01015928,-0.01402608,-0.01985403,0.98949332,0.12553684,-0.06467912,0.03098535
1761620017744,0.07273871,0.13700472,-0.14766917,-0.01886317,-0.00317720,-0.00499319,0.98950642,0.12543120,-0.06469691,0.03095739
1761620017755,-0.06082107,0.08030281,-0.13684740,-0.01257105,-0.00087233,-0.00863823,0.98951654,0.12536080,-0.06470180,0.03090901
1761620017766,-0.00428477,-0.00036174,-0.08445149,0.00102243,0.01603983,-0.01166062,0.98952366,0.12536648,-0.06461278,0.03084430
1761620017778,-0.51085549,0.41240938,-0.37153127,-0.00023279,0.01267228,-0.01435727,0.98953089,0.12536519,-0.06454244,0.03076461
1761620017789,-0.27253043,-0.09630430,-0.04986232,-0.00852265,0.02690709,-0.02424359,0.98955096,0.12531746,-0.06439176,0.03062885
1761620017800,0.07602633,-0.19790605,-0.03041053,-0.01269425,0.02177785,-0.04430276,0.98957554,0.12524637,-0.06426981,0.03038075
1761620017811,0.36081933,-0.30615177,0.17387884,-0.02592465,0.01561498,-0.04416902,0.98960686,0.12510249,-0.06418315,0.03013562
1761620017822,0.02322070,0.01378729,-0.03096094,-0.00006176,0.02010986,-0.04033248,0.98962093,0.12510215,-0.06407154,0.02991177
1761620017833,-0.17534001,0.11584384,-0.09602605,0.00695571,0.01841354,-0.02670898,0.98962718,0.12514110,-0.06396842,0.02976220
1761620017844,-0.01658622,0.07806968,-0.11983542,-0.00176357,0.02648895,-0.02099242,0.98964141,0.12513131,-0.06382141,0.02964569
1761620017856,-0.16602507,0.01433413,0.04273913,0.00062053,0.02886540,-0.02717054,0.98965593,0.12513479,-0.06365976,0.02949354
1761620017867,-0.15619913,-0.02898840,-0.10902490,0.01045947,0.02505492,-0.02413991,0.98966165,0.12519441,-0.06351695,0.02935594
1761620017878,-0.15749982,-0.30083918,0.04733601,0.02645272,0.02606027,-0.02897990,0.98965722,0.12533725,-0.06337622,0.02919945
1761620017889,-0.04024783,0.05217047,0.07648470,0.02456472,0.00483156,-0.02493368,0.98964553,0.12547604,-0.06334892,0.02905857
1761620017900,-0.06667442,0.22123011,0.09459560,0.01850062,0.00786608,-0.02864168,0.98963990,0.12557964,-0.06330487,0.02889818
1761620017911,0.01970887,0.21169904,-0.06693850,0.03327744,-0.00331927,-0.02809211,0.98962018,0.12576101,-0.06332296,0.02874508
1761620017922,-0.02678359,0.10639218,-0.14772823,0.03613587,0.00037225,-0.01288605,0.98959667,0.12596337,-0.06332088,0.02867292
1761620017934,-0.09069098,0.08455287,0.01267006,0.03066289,-0.00100125,-0.00210769,0.98957458,0.12613661,-0.06332654,0.02866101
1761620017945,-0.07797907,-0.14191795,-0.03975677,0.03192777,-0.00071053,0.00712781,0.98955080,0.12631222,-0.06333044,0.02870021
1761620017956,-0.12081275,-0.11508270,-0.01935216,0.00464709,0.00099065,-0.00697663,0.98954896,0.12633824,-0.06332490,0.02866114
1761620017967,-0.07602633,-0.15098354,0.06082107,-0.00452382,-0.00059591,-0.00276675,0.98955243,0.12631291,-0.06332823,0.02864565
1761620017978,-0.38282086,0.08285362,0.06811959,-0.01764289,-0.00074379,0.00093942,0.98956440,0.12621587,-0.06333232,0.02865081
1761620017989,-0.01759144,0.01578172,-0.08049844,-0.00977704,-0.00085848,0.00034268,0.98957096,0.12616161,-0.06333709,0.02865272
1761620018000,0.06345004,-0.05115681,-0.00457540,-0.00282171,-0.00154037,0.00545217,0.98957154,0.12614566,-0.06334579,0.02868352
1761620018012,-0.01041164,-0.02617038,-0.19658826,-0.00461003,-0.00349570,0.01584220,0.98957101,0.12612008,-0.06336519,0.02877145
1761620018023,0.01280804,-0.03181890,-0.03095847,0.00479305,0.01058477,0.02841283,0.98956674,0.12614692,-0.06330592,0.02893056
1761620018034,-0.05936484,0.05447968,-0.06164544,-0.01885756,0.01701627,0.05914714,0.98957646,0.12604226,-0.06321148,0.02925882
1761620018045,-0.01548047,0.02781647,-0.15480469,0.01130721,0.02825126,0.03131086,0.98957332,0.12610502,-0.06305468,0.02943260
1761620018056,-0.10828615,0.00943266,0.06246488,0.00106939,0.02457111,0.01853724,0.98957822,0.12611100,-0.06291709,0.02953641
1761620018067,0.11700194,-0.06115952,-0.09398856,-0.01912297,-0.00032159,-0.00215625,0.98959198,0.12600487,-0.06291887,0.02952444
1761620018078,-0.00376798,-0.01441167,-0.08585605,-0.01746970,-0.00658302,-0.02151036,0.98960580,0.12590617,-0.06295606,0.02940291
1761620018090,0.10071807,0.23029503,-0.00269120,0.01010561,-0.02449615,-0.03156465,0.98959510,0.12596276,-0.06309324,0.02922615
1761620018101,-0.11245363,0.23853293,0.08894955,0.02316129,-0.01313582,-0.00396590,0.98957491,0.12609015,-0.06316549,0.02920433
1761620018112,-0.12567327,0.23177495,0.12581400,0.02593512,-0.00700171,0.01770531,0.98955117,0.12623409,-0.06320435,0.02930260
1761620018123,0.00691771,-0.06543466,0.03123244,0.01448194,0.00446973,0.03265911,0.98953699,0.12631518,-0.06317932,0.02948549
1761620018134,-0.03813251,-0.13115215,-0.02830454,0.00380419,0.00414205,0.04754922,0.98952762,0.12633687,-0.06315571,0.02975652
1761620018145,0.04346307,-0.20577045,-0.05422125,-0.00237732,-0.01352764,0.02792138,0.98952004,0.12632403,-0.06322876,0.02990729
1761620018157,0.06341453,-0.03791063,0.09584792,-0.01476128,-0.02527137,-0.00649319,0.98952266,0.12624063,-0.06337154,0.02987061
1761620018168,0.02596061,0.20707482,-0.10918526,0.01023726,-0.03324423,-0.00368776,0.98950420,0.12629745,-0.06355605,0.02985014
1761620018179,0.01362995,0.93494303,-0.48519869,0.03748658,-0.04230978,0.00916607,0.98946058,0.12650737,-0.06379298,0.02990147
1761620018190,0.04292660,-0.06876833,0.08275686,0.03440041,-0.03883394,0.01383382,0.98942028,0.12669657,-0.06400657,0.02997756
1761620018201,0.06857596,-0.56343574,0.16403913,0.01246568,-0.02680037,0.01222789,0.98939935,0.12676700,-0.06415799,0.03004664
1761620018212,0.16802474,-0.72323032,0.27152469,-0.02839484,-0.04228739,0.01878568,0.98940111,0.12660941,-0.06439269,0.03015090
1761620018223,0.01102724,-0.21490709,-0.01410939,-0.03448940,-0.02896224,0.01958607,0.98941189,0.12641627,-0.06455487,0.03026059
1761620018235,-0.00689641,-0.13325720,0.02899305,-0.03070233,-0.02365193,-0.00752183,0.98942622,0.12624741,-0.06468496,0.03021922
1761620018246,-0.00495648,-0.16622244,-0.02702300,-0.05777441,-0.02881589,-0.00380246,0.98945782,0.12592098,-0.06484777,0.03019773
1761620018257,0.04719488,-0.07739700,0.05945596,-0.05280749,-0.02683767,-0.00694539,0.98948647,0.12562790,-0.06499672,0.03015919
1761620018268,-0.03499951,-0.00436638,0.04630072,-0.01994693,-0.02316031,-0.00586151,0.98949312,0.12551620,-0.06512642,0.03012636
1761620018279,-0.03054122,0.06636031,0.12554272,0.00013921,-0.02126315,0.00104198,0.98948514,0.12551697,-0.06524336,0.03013209
1761620018290,-0.03422008,0.13677212,-0.04725630,0.00814256,-0.02415360,-0.00841034,0.98947175,0.12556297,-0.06537983,0.03008457
1761620018302,0.13294516,0.17185504,-0.07562265,-0.02206427,-0.01029782,-0.00909168,0.98948515,0.12543941,-0.06543750,0.03003366
1761620018313,-0.10020899,0.17133037,-0.18972151,-0.03700623,-0.01764847,-0.00326197,0.98950505,0.12523588,-0.06553457,0.03001572
1761620018324,-0.04278239,-0.11456317,0.00197024,-0.04254494,0.00052021,-0.00138376,0.98953533,0.12499975,-0.06553168,0.03000804
1761620018335,-0.12527222,0.12238698,0.00191778,-0.03936284,0.00961258,-0.00472508,0.98956752,0.12477932,-0.06547785,0.02998158
1761620018346,0.01803751,0.06384830,-0.04837647,-0.00247797,0.01715100,-0.00112157,0.98957574,0.12476557,-0.06538266,0.02997535
1761620018357,-0.09487228,0.15504847,-0.02529927,-0.00203024,0.01215730,-0.00632001,0.98958280,0.12475410,-0.06531397,0.02993965
1761620018368,0.03465981,0.12939314,0.08767699,0.01374611,0.01109965,0.00366810,0.98957663,0.12483039,-0.06525237,0.02996000
1761620018379,0.02322070,0.19374775,0.23220704,0.01346388,0.00879081,0.00499033,0.98956958,0.12490511,-0.06520358,0.02998770
1761620018391,-0.01548047,-0.03688706,0.06192188,0.00751512,0.00884399,0.01308955,0.98956534,0.12494682,-0.06515449,0.03006035
1761620018402,-0.06301282,-0.19930372,-0.12246404,0.00245387,0.01509248,0.01245590,0.98956704,0.12496056,-0.06506998,0.03013010
1761620018413,0.06842370,-0.17889946,-0.24328426,-0.00648057,0.02144626,0.01723914,0.98957657,0.12492427,-0.06494988,0.03022664
1761620018424,-0.09834245,-0.17544460,0.12135582,-0.03158843,0.03096397,0.01803562,0.98960689,0.12474896,-0.06477803,0.03032674
1761620018435,-0.03870117,-0.13230964,-0.03096094,-0.01847151,0.02085596,0.01266277,0.98962522,0.12464644,-0.06466228,0.03039702
1761620018446,0.02938315,0.09640918,-0.02876672,-0.01689808,0.01655550,-0.00048792,0.98964327,0.12455181,-0.06456957,0.03039428
1761620018458,0.00760263,0.08944973,0.00000000,0.00064993,0.01407060,0.01800729,0.98964485,0.12455545,-0.06449077,0.03049512
1761620018469,-0.03041053,0.03456822,0.03041053,0.02207582,0.02050604,0.01269014,0.98963457,0.12467907,-0.06437594,0.03056619
1761620018480,-0.17691965,-0.21092356,0.12218513,0.00749984,0.03007032,0.03384936,0.98963434,0.12472070,-0.06420905,0.03075405
1761620018491,-0.10595742,0.05461182,0.00054794,-0.00043020,0.02821064,0.01420954,0.98964241,0.12471829,-0.06405107,0.03083363
1761620018502,0.12315009,-0.03229611,0.06192690,-0.02432524,0.03156396,0.02293802,0.98966654,0.12458450,-0.06387747,0.03095979
1761620018513,0.13967605,0.06543027,-0.17028516,-0.03328378,0.02338498,0.00854825,0.98969666,0.12439978,-0.06374768,0.03100723
1761620018524,0.04306259,-0.00708703,0.25689529,-0.04334884,0.02148983,0.00749451,0.98973390,0.12415485,-0.06362626,0.03104957
1761620018536,0.00260291,0.06393614,-0.01383653,-0.01051787,0.01999769,0.01419474,0.98974588,0.12409648,-0.06351527,0.03112835
1761620018547,0.05951971,0.18138338,0.09054668,-0.00094936,0.02349031,0.03479636,0.98974883,0.12409116,-0.06338373,0.03132321
1761620018558,-0.05231569,0.19661686,0.04796181,0.01469375,0.00727105,0.03424162,0.98973515,0.12417271,-0.06334337,0.03151325
1761620018569,-0.03096094,0.30815809,0.13932422,0.01149383,0.02459770,0.03366318,0.98972991,0.12423651,-0.06320686,0.03170008
1761620018580,-0.00109587,0.10129032,0.07287569,0.03281458,0.02290586,0.03314079,0.98970904,0.12442027,-0.06307858,0.03188567
1761620018591,-0.11597220,0.08335722,0.11822409,0.00874393,0.01647274,0.02419736,0.98970447,0.12446836,-0.06298798,0.03201876
1761620018602,0.22385637,-0.34043975,-0.04413304,0.00023256,0.00917781,0.02244154,0.98970349,0.12446967,-0.06293613,0.03214555
1761620018613,0.24293481,-0.23917928,-0.03347939,0.01437268,0.01660269,0.01278989,0.98969707,0.12454872,-0.06284481,0.03221590
1761620018625,-0.07964317,-0.01620404,0.01765322,0.01386029,0.00736309,-0.00725254,0.98969118,0.12462703,-0.06280321,0.03217492
1761620018636,0.10774681,-0.01272558,-0.02219324,0.02733833,0.00645012,0.00290790,0.98967381,0.12477876,-0.06276742,0.03219106
1761620018647,0.09438224,0.06611423,0.05671153,0.02253355,0.00156417,0.01501781,0.98965571,0.12490495,-0.06275866,0.03227516
1761620018658,-0.01008995,0.02194002,-0.05722245,0.01760707,-0.00003735,0.02182941,0.98963940,0.12500267,-0.06275886,0.03239631
1761620018669,0.13158399,-0.06675952,0.01548047,0.01269685,0.00743716,0.04201053,0.98962545,0.12507314,-0.06271759,0.03262947
1761620018680,0.03924603,-0.06356182,0.05657455,0.01829325,0.00947182,0.03627557,0.98960914,0.12517558,-0.06266454,0.03283261
1761620018692,0.05328322,-0.00722084,-0.14996705,0.04104844,-0.00077278,0.00414523,0.98957926,0.12540340,-0.06266883,0.03285562
1761620018703,0.04602675,-0.06685052,0.05739646,0.01134045,-0.00558241,-0.02074532,0.98957308,0.12546690,-0.06270010,0.03273945
1761620018714,0.00000000,0.17913705,-0.07602633,-0.01105560,-0.03130868,-0.03179255,0.98957568,0.12540499,-0.06287542,0.03256141
1761620018725,0.10836329,0.19256209,0.06523912,-0.00294249,-0.05587810,-0.06516905,0.98956983,0.12538866,-0.06318555,0.03219972
1761620018736,0.04465691,0.20639480,-0.06465663,0.03442546,-0.03268734,-0.00773700,0.98953509,0.12558144,-0.06336860,0.03215639
1761620018747,-0.01409828,0.08079518,0.06523912,0.01769778,-0.02459846,0.01027683,0.98951201,0.12567967,-0.06350512,0.03221343
1761620018758,-0.04644141,-0.11791764,-0.06192188,0.00133354,-0.01593709,0.01918469,0.98950192,0.12568707,-0.06359357,0.03231990
1761620018770,0.13932422,-0.10001835,0.12384375,-0.02599341,-0.01731707,0.01110246,0.98951203,0.12554280,-0.06368968,0.03238152
1761620018781,-0.15922994,-0.16567064,0.11316955,-0.04540307,-0.01932751,-0.00028439,0.98953802,0.12528174,-0.06380081,0.03237989
1761620018792,0.03587669,-0.20891061,0.01828734,-0.04439586,-0.02482142,-0.02376356,0.98956412,0.12503978,-0.06393609,0.03225038
1761620018803,0.05423123,-0.00662186,0.07303139,-0.01679317,-0.01604942,-0.03761077,0.98957680,0.12494742,-0.06402436,0.03204352
1761620018814,-0.04838039,0.03260061,-0.11887754,0.01458730,-0.02826438,-0.02999720,0.98956165,0.12502910,-0.06418264,0.03187553
1761620018825,0.03801317,0.17082167,0.06082107,0.03233560,-0.00989867,-0.01602006,0.98953804,0.12521018,-0.06423807,0.03178582
1761620018837,-0.03041053,-0.02660922,-0.03041053,0.03424096,-0.00106981,-0.00123594,0.98951360,0.12540193,-0.06424406,0.03177890
1761620018848,-0.08458652,-0.06734551,0.16889156,-0.00537897,0.00535411,-0.00601898,0.98952032,0.12537235,-0.06421462,0.03174579
1761620018859,-0.06803278,-0.14596580,-0.10999312,0.00240560,0.02320345,-0.00495093,0.98952799,0.12538594,-0.06408352,0.03171782
1761620018870,-0.07034709,-0.27972943,0.29070404,0.00658174,0.02635973,-0.01578757,0.98953563,0.12542247,-0.06393722,0.03163020
1761620018881,0.03870117,-0.08320752,0.21672657,-0.01298173,0.02618860,-0.03764363,0.98956080,0.12535042,-0.06379187,0.03142128
1761620018892,-0.02322070,-0.04910211,0.07740235,-0.00696944,0.01129238,-0.02359874,0.98957388,0.12531174,-0.06372920,0.03129031
1761620018904,0.01929347,0.19996212,-0.29413438,0.01244886,0.00724798,-0.00515230,0.98956825,0.12538581,-0.06368608,0.03125965
1761620018915,-0.02279905,0.05444075,-0.13706414,0.02886475,0.03040513,-0.00792423,0.98956032,0.12554312,-0.06352037,0.03121646
1761620018925,-0.06666971,0.07601096,-0.05319578,0.00663569,0.02314957,-0.01244055,0.98956549,0.12557630,-0.06340462,0.03115426
1761620018936,0.00881905,0.11823520,-0.08028381,-0.00334355,0.03020615,0.00892904,0.98957711,0.12555758,-0.06323547,0.03120426
1761620018969,0.03271998,0.00837116,-0.14971698,-0.00491065,0.00532808,0.00285539,0.98959121,0.12547827,-0.06314942,0.03125038
1761620018972,-2.06244446,-0.70136680,16.87296664,0.00465485,0.13356225,-0.01105957,0.98960527,0.12548619,-0.06292236,0.03123158
1761620018983,0.88675302,0.01879973,-4.40916782,0.00707182,0.00826814,0.01494584,0.98960037,0.12552720,-0.06287441,0.03131826
1761620018995,-0.01417471,0.09678667,0.01417471,0.00557531,0.00128961,0.01405147,0.98959416,0.12555954,-0.06286693,0.03139976
1761620019008,-0.08379817,0.13444947,-0.19473896,0.00389288,-0.00522134,0.00606483,0.98958739,0.12558543,-0.06290165,0.03144009
1761620019020,-0.04507760,-0.00078624,0.09434847,-0.00004117,-0.00355570,-0.00216769,0.98958652,0.12558519,-0.06292192,0.03142774
1761620019031,-0.00483958,-0.12289083,0.07217892,-0.03362627,-0.00597072,-0.00083340,0.98960803,0.12540025,-0.06295475,0.03142315
1761620019042,0.03277795,-0.08419835,-0.17568979,-0.00596819,-0.01374537,-0.01288561,0.98960970,0.12536593,-0.06303379,0.03134906
1761620019054,0.09635394,0.04849602,0.04887889,0.01136685,-0.00371752,-0.00702704,0.98960141,0.12543072,-0.06305498,0.03130901
1761620019065,0.00373463,0.11182206,0.04134765,0.02857165,-0.01585841,0.00419593,0.98957471,0.12559072,-0.06314379,0.03133250
1761620019076,0.01307017,0.04585396,-0.18498292,0.02681092,-0.01787716,0.00155195,0.98954875,0.12574220,-0.06324479,0.03134127
1761620019088,0.19618358,-0.05441156,0.12806158,0.01568011,-0.00362851,-0.00061698,0.98953617,0.12583158,-0.06326548,0.03133775
1761620019099,-0.11339766,-0.06785830,-0.16586894,0.01105139,-0.01483376,-0.01139904,0.98952461,0.12589568,-0.06335151,0.03127164
1761620019110,0.03381861,-0.26366719,0.19766846,-0.00659621,-0.00639165,-0.00689173,0.98952823,0.12585874,-0.06338730,0.03123305
1761620019122,-0.05579596,-0.07036698,0.01629715,-0.00584926,-0.00807551,-0.01208289,0.98953179,0.12582452,-0.06343455,0.03116236
1761620019133,0.06568005,0.06764940,-0.02155653,-0.00303573,-0.01562658,-0.01581995,0.98953113,0.12580783,-0.06352049,0.03107535
1761620019144,-0.04136084,0.16384648,-0.03602396,0.02072232,-0.01426290,-0.00209485,0.98951126,0.12592594,-0.06360179,0.03106341
1761620019156,0.07338214,0.16121139,-0.05870571,0.06599822,-0.01261200,0.00513938,0.98945777,0.12630213,-0.06367368,0.03109271
1761620019167,-0.02201464,0.28848355,-0.01467643,0.03926991,-0.01717494,-0.00716985,0.98942415,0.12652597,-0.06377158,0.03105184
1761620019179,0.06783385,-0.10276772,-0.02640020,0.03231614,-0.02418304,0.00153080,0.98939055,0.12671502,-0.06391305,0.03106079
1761620019190,0.09434100,0.01093766,0.18868200,0.00096364,-0.02047560,0.00187383,0.98938241,0.12672022,-0.06402362,0.03107091
1761620019201,0.16376226,-0.16734045,-0.01226028,-0.01000599,-0.02858828,0.00410514,0.98937856,0.12666519,-0.06418085,0.03109349
1761620019213,-0.12245801,-0.10154285,-0.15893486,-0.01784667,-0.02126076,-0.01133221,0.98938618,0.12655722,-0.06430948,0.03102493
1761620019224,0.01843651,0.02507918,0.08757340,-0.00906715,-0.03153381,-0.02073835,0.98938479,0.12650554,-0.06448922,0.03090672
1761620019236,-0.03483360,0.11982644,-0.13933440,0.00480638,-0.02910428,-0.00944318,0.98937181,0.12653365,-0.06465948,0.03085148
1761620019367,-0.04259650,-0.00479080,-0.03384379,0.00220385,-0.00228121,-0.00070300,0.98934585,0.12667338,-0.06480411,0.03080691
1761620019402,0.53152161,-0.07355253,0.29173594,0.00841529,-0.13976830,0.02189291,0.98912801,0.12683832,-0.06754357,0.03123601
1761620019405,34.09794509,4.18443986,-0.89828036,-0.39971411,-1.43159115,-0.13423558,0.98907116,0.12631869,-0.06940464,0.03106150
1761620019453,-2.08823700,-0.13720589,-0.20306428,-0.00105150,-0.06595912,0.00392796,0.98895741,0.12629308,-0.07101074,0.03115715
1761620019475,0.20566646,-0.11342532,0.01609532,-0.03080287,-0.12915681,-0.00944055,0.98890112,0.12595579,-0.07242501,0.03105377
1761620019498,-0.02995237,-0.20345755,0.03637132,-0.01683780,-0.10082547,0.02074056,0.98883294,0.12576300,-0.07357946,0.03129125
1761620019517,-0.06937008,0.05838061,0.01070789,-0.01937304,-0.09840570,0.03923317,0.98877601,0.12558380,-0.07448971,0.03165416
1761620019564,-0.15803317,0.06351081,-0.02329082,0.00103459,-0.03593894,0.01247729,0.98869836,0.12560847,-0.07534686,0.03195174
1761620019568,20.90184660,-18.05840567,1.13620804,-0.45907278,-0.68838771,0.19733669,0.98869615,0.12475919,-0.07662037,0.03231682
1761620019619,-1.57651785,1.32786052,-0.11856764,-0.01705980,-0.02962872,-0.00440240,0.98869578,0.12432502,-0.07737443,0.03220478
1761620019621,27.04263125,13.41126415,-18.12019014,0.19305815,-0.67756932,0.09231536,0.98861117,0.12452773,-0.07808587,0.03230171
1761620019647,-1.98403525,-0.99113128,1.50022189,-0.03158084,-0.04235066,-0.00132539,0.98861982,0.12411244,-0.07864278,0.03228428
1761620019705,-0.04831297,-0.03563735,0.01041196,-0.01400524,-0.01662192,0.00286933,0.98862957,0.12370489,-0.07912648,0.03236778
1761620019717,2.00971669,-1.58118644,0.96424600,-0.06806382,-0.20054886,0.00375663,0.98858360,0.12330331,-0.08030972,0.03238994
1761620019735,-0.79800133,0.78745705,-0.60916539,0.01090976,-0.07237184,0.00815374,0.98851808,0.12339823,-0.08093936,0.03246088
1761620019778,-0.18691652,0.04955191,-0.00906226,-0.01402281,-0.02418034,-0.00059938,0.98851335,0.12309463,-0.08146286,0.03244790
1761620019782,12.80650989,-9.69504861,-3.37237924,-0.05404782,-0.43692279,-0.15994783,0.98846974,0.12299735,-0.08224932,0.03215999
1761620019811,-1.44407277,1.13845652,0.26142408,-0.00339398,-0.06711884,0.00160780,0.98839233,0.12294729,-0.08323932,0.03218371
1761620019842,-0.07052780,0.00467507,0.06371266,-0.02958803,-0.04754548,0.02309742,0.98837515,0.12248719,-0.08397866,0.03254287
1761620019844,89.09073677,-82.44626677,-30.06584776,-1.36633541,-1.00482164,0.89080039,0.98841766,0.12139412,-0.08478251,0.03325551
1761620019869,-5.60382899,5.23052466,1.85760574,-0.03765938,-0.06073644,0.02788221,0.98839832,0.12092715,-0.08553565,0.03360125
1761620019902,-0.10750855,0.15232112,0.07186540,-0.01406295,-0.02907415,0.00737962,0.98838069,0.12069230,-0.08602118,0.03372449
1761620019924,0.37105121,-0.09563845,-0.16745911,-0.04465212,-0.09096328,-0.02215227,0.98836142,0.12020559,-0.08701268,0.03348303
1761620019950,-0.31567391,-0.00444685,0.05236641,-0.03022174,-0.04739452,-0.01381609,0.98836076,0.11981271,-0.08762881,0.03330342
1761620019951,24.03858340,-40.67662031,-28.07209016,-0.16972128,-0.34742715,-0.08419511,0.98835442,0.11966844,-0.08792413,0.03323186
1761620020003,-0.88981576,1.40947437,0.97054144,-0.00172007,-0.00967740,-0.00811312,0.98834462,0.11962432,-0.08817235,0.03302376
1761620020027,-0.09511280,0.14663906,-0.27250350,-0.02747001,0.01811383,0.02675719,0.98839325,0.11929331,-0.08795408,0.03334618
1761620020058,-0.04754799,0.08556936,0.25943293,0.01307876,0.01233671,-0.01394471,0.98839303,0.11949865,-0.08776039,0.03312725
1761620020091,-0.01990815,0.30461776,0.16440062,0.00979653,-0.04202404,-0.08403525,0.98835750,0.11965882,-0.08844749,0.03175327
1761620020114,-0.00070689,0.37044464,0.45732559,0.08733131,-0.01157849,0.09628799,0.98818875,0.12065440,-0.08857948,0.03285096
1761620020129,0.03977476,0.57165660,0.66148316,0.22522943,-0.03720798,0.06393762,0.98793491,0.12237740,-0.08886412,0.03334008
1761620020152,0.11969256,-0.79566656,-0.48856435,0.09918209,-0.04310812,-0.01111399,0.98775333,0.12351304,-0.08935771,0.03321282
1761620020174,0.01251976,-0.40803498,-0.16661751,0.04416327,-0.02804336,0.01030310,0.98765942,0.12400546,-0.08967039,0.03332770
1761620020187,-0.10240314,-0.15347945,0.78256224,0.05910943,-0.05775349,0.04734863,0.98757224,0.12436602,-0.09002269,0.03361653
1761620020208,0.10743343,-0.21874583,-0.56656029,-0.00243284,-0.02175019,0.01969880,0.98754708,0.12433999,-0.09025542,0.03382731
1761620020218,0.14377772,-0.39145967,0.22247752,0.00877322,-0.03481478,0.00732924,0.98752324,0.12438605,-0.09043819,0.03386579
1761620020230,-0.05043130,0.24645718,-0.29006887,0.01561188,-0.04234465,0.01883244,0.98748653,0.12447426,-0.09067744,0.03397219
1761620020241,-0.08134777,0.15823654,0.01216767,-0.05540885,-0.00921938,-0.00456945,0.98752299,0.12415289,-0.09073091,0.03394569
1761620020252,0.01285368,-0.07260491,0.02484567,-0.05792384,-0.01281771,-0.02338093,0.98755989,0.12384299,-0.09079949,0.03382060
1761620020264,-0.03307564,0.24970930,0.01367300,-0.02619921,-0.01052418,-0.04742487,0.98758290,0.12368973,-0.09086105,0.03354316
1761620020274,-0.23865424,0.87648874,0.37927393,0.07826334,-0.02119057,-0.08783181,0.98753666,0.12410061,-0.09097231,0.03308205
1761620020285,0.06538265,0.56934220,-0.23314742,0.13647575,-0.05296811,-0.03754767,0.98741997,0.12486488,-0.09126893,0.03287178
1761620020297,-0.02404638,0.38206848,0.05771131,0.15641761,-0.02375060,-0.01925417,0.98729579,0.12577210,-0.09140668,0.03276010
1761620020320,0.04591429,-0.52831180,-0.21260508,0.05963347,-0.00906261,0.00950319,0.98719314,0.12646981,-0.09151271,0.03287129
1761620020330,-0.15041156,1.33554757,1.23835081,0.10178972,-0.01340811,0.00537573,0.98712577,0.12694313,-0.09157506,0.03289629
1761620020331,-5.83359042,38.25375284,40.82990104,0.26213564,-0.25868631,0.19118268,0.98708087,0.12712663,-0.09175614,0.03303012
1761620020341,0.75925868,-6.51299503,-6.08742495,0.01578738,-0.02371059,0.00473023,0.98705866,0.12720635,-0.09187588,0.03305400
1761620020353,-0.01852717,-0.04249784,0.11392396,0.04572931,-0.03332708,0.01113694,0.98700520,0.12746701,-0.09206584,0.03311749
1761620020364,-0.01719073,0.00484135,-0.04725974,0.06932596,-0.04281462,0.00206405,0.98692764,0.12787950,-0.09232059,0.03312977
1761620020376,0.00263447,-0.01585258,-0.10666692,0.08354464,-0.02417211,0.02071675,0.98684687,0.12836824,-0.09246200,0.03325096
1761620020396,0.04658332,-0.18581875,-0.23540269,0.03772523,-0.00909077,0.01350754,0.98678464,0.12874549,-0.09255291,0.03338603
1761620020398,-9.42645430,13.71852936,27.00563462,0.36440950,-0.08747548,0.15779923,0.98672041,0.12912812,-0.09264475,0.03355172
1761620020410,1.41313039,-2.69495916,-4.44695780,0.05772950,-0.00655597,0.04476603,0.98666507,0.12945718,-0.09268212,0.03380689
1761620020464,0.08018031,-0.04280965,-0.19003244,0.00940371,-0.00242395,0.00306704,0.98662250,0.12971249,-0.09274793,0.03389016
1761620020475,-1.74904394,-0.03898356,4.38871631,0.06233722,-0.03694979,0.03631605,0.98654941,0.13006469,-0.09295670,0.03409535
1761620020488,1.28883181,0.11304291,-1.81266337,0.02407309,-0.01299959,-0.00457331,0.98652246,0.13021756,-0.09303925,0.03406631
1761620020510,0.07625082,0.05512166,-0.80653762,0.01560761,-0.01838163,0.01022625,0.98647598,0.13039236,-0.09324512,0.03418084
1761620020543,0.05676553,-0.03269004,-0.20294962,0.00571268,-0.00790727,0.00828179,0.98644669,0.13048576,-0.09337441,0.03431625
1761620020545,-6.33085175,23.64452006,35.93048189,0.36729136,-0.31191661,0.16841869,0.98636259,0.13085305,-0.09368632,0.03448467
1761620020588,0.31547843,-1.11361639,-1.71979288,0.00865658,-0.01376296,-0.00038809,0.98631039,0.13103787,-0.09398016,0.03447638
1761620020623,-0.11121146,0.04876848,0.06059835,0.01288380,-0.01474782,0.00480478,0.98625169,0.13126785,-0.09424341,0.03456215
1761620020644,0.03458374,-0.27354969,0.10466243,-0.00073748,-0.02484372,0.00944045,0.98622441,0.13126014,-0.09450303,0.03466080
1761620020680,0.10675601,-0.07605284,-0.14581291,-0.02215200,-0.01755478,0.01086775,0.98624017,0.13086141,-0.09481901,0.03485642
1761620020682,38.22147848,-84.75320004,39.00792865,0.44765021,-0.57622843,0.47865344,0.98613455,0.13121953,-0.09528000,0.03523934
1761620020735,-1.12959587,2.62353155,-1.19155226,-0.01867510,-0.01671647,-0.01430983,0.98617051,0.13072930,-0.09571880,0.03486371
1761620020755,0.15835140,-0.19723795,-0.02915945,-0.08150713,-0.01549187,-0.02730802,0.98627381,0.12990608,-0.09587527,0.03458790
1761620020767,0.24226727,0.06359686,0.35346003,-0.04012646,-0.05940689,-0.02935611,0.98627706,0.12965529,-0.09624656,0.03440442
1761620020790,-0.07566646,0.23319896,-0.06523394,0.01622345,-0.05924156,-0.01468317,0.98619428,0.12983618,-0.09690711,0.03424070
1761620020834,-0.08072665,-0.00850317,-0.04103459,-0.01529746,-0.01998737,0.00860199,0.98618864,0.12950040,-0.09734583,0.03442952
1761620020858,0.26443245,-0.38822609,0.33432664,-0.05350578,-0.10804262,-0.00748585,0.98614687,0.12885566,-0.09864774,0.03433931
1761620020861,17.98755408,-12.42626657,20.84403515,-0.13431806,-0.93944918,-0.05871432,0.98603047,0.12864747,-0.10010389,0.03424831
1761620020912,-1.18121079,0.93060082,-1.34272391,-0.00732310,-0.05636462,0.01146036,0.98589581,0.12845816,-0.10156091,0.03454456
1761620020934,0.33745031,-0.02234360,0.63888497,-0.04062753,-0.19584095,0.00885527,0.98572546,0.12800923,-0.10372496,0.03464241
1761620020968,-0.16400280,0.06376795,-0.23114948,0.00970792,-0.10841241,0.01916883,0.98549750,0.12817378,-0.10556255,0.03496732
1761620021003,0.02354828,0.10769114,0.04719526,0.11037392,-0.12633205,-0.00013820,0.98501074,0.13008325,-0.10774809,0.03496493
1761620021023,0.05337719,-0.13671653,0.33951476,0.12250145,-0.19375513,-0.01399278,0.98462800,0.13134501,-0.10974377,0.03482080
1761620021038,0.06254951,-1.47378432,0.30813865,0.00886183,-0.17728857,-0.01075698,0.98447287,0.13141148,-0.11107343,0.03474012
1761620021060,-0.18269942,0.59703127,-0.71002881,0.11414010,-0.08853795,-0.02397172,0.98421073,0.13263278,-0.11202079,0.03448363
1761620021086,-0.10030122,0.19274004,-0.20628914,0.02326451,-0.03881230,-0.03137320,0.98412690,0.13293405,-0.11252341,0.03407734
1761620021095,0.21634971,-0.94429444,1.02753127,-0.13753983,-0.09537803,0.00036809,0.98416334,0.13227386,-0.11298122,0.03407911
1761620021121,-0.12820289,0.17576555,-0.32083052,-0.04679228,-0.02821432,0.00665731,0.98419973,0.13166556,-0.11334801,0.03416566
1761620021133,0.04062067,-0.74346432,0.46405561,-0.10935050,-0.07206719,-0.00860886,0.98423853,0.13102039,-0.11377321,0.03411486
1761620021143,0.03402451,0.05865683,0.30730811,-0.05861725,-0.11125602,0.00728545,0.98421124,0.13072145,-0.11434061,0.03415202
1761620021154,0.13730050,0.51467146,-0.22234360,-0.01550822,-0.05640846,0.01738587,0.98418418,0.13063925,-0.11463958,0.03424416
1761620021168,-0.14543644,0.40227283,-0.43908616,0.01576297,-0.05463007,0.02940260,0.98411582,0.13075274,-0.11503291,0.03445586
1761620021183,-0.10273718,0.16650144,0.00604336,0.01823426,-0.02542457,0.03613067,0.98406848,0.13088221,-0.11521343,0.03471239
1761620021185,-3.62776505,-6.26231314,27.39241672,-0.15086852,-0.30924864,0.23939335,0.98404504,0.13073888,-0.11550721,0.03493981
1761620021201,0.40710473,0.66714130,-3.09665956,-0.01840398,-0.03128378,0.03277684,0.98402499,0.13058521,-0.11576843,0.03521350
1761620021214,-0.02872043,-0.36443507,0.14332329,-0.03130072,-0.04354282,0.04091438,0.98400932,0.13038489,-0.11604711,0.03547535
1761620021216,5.12667549,-25.07524412,24.13481078,-0.32662984,-0.19755376,0.43464196,0.98401406,0.13000926,-0.11627429,0.03597519
1761620021234,-0.56499491,3.27355056,-3.15682277,-0.02683788,-0.02321814,0.04657621,0.98400605,0.12977443,-0.11647745,0.03638273
1761620021245,0.20540973,-0.41329813,0.41807474,-0.01192511,-0.03766269,0.07204611,0.98397458,0.12970705,-0.11669025,0.03678979
1761620021248,2.40190367,-8.67571065,10.78265934,0.01217065,-0.07940856,0.06081349,0.98395396,0.12972592,-0.11681333,0.03688405
1761620021260,-0.54400101,2.47229310,-2.86141587,-0.03804195,-0.02433590,0.01903516,0.98396246,0.12949576,-0.11696056,0.03699922
1761620021271,-0.14930337,-0.16248296,0.00562926,-0.05252128,-0.04191176,0.00914023,0.98397120,0.12920427,-0.11719317,0.03704995
1761620021282,0.19741801,-0.22494150,-0.04367783,-0.05867206,-0.02372725,0.01862447,0.98399390,0.12888451,-0.11732249,0.03715145
1761620021310,-0.13090697,0.33320013,-0.26743663,-0.02114321,-0.01055778,0.00824446,0.98401033,0.12859379,-0.11746766,0.03726481
1761620021321,0.94811748,-0.80266831,1.46490302,0.00214296,-0.04408455,-0.01284479,0.98398198,0.12860579,-0.11771453,0.03719288
1761620021322,43.00049371,-20.95570824,52.30611681,0.09262106,-0.45031283,-0.42920677,0.98394705,0.12867062,-0.11802975,0.03689243
1761620021333,-5.99452427,3.87997854,-7.89754785,-0.02452569,-0.04950347,-0.03558546,0.98393966,0.12854186,-0.11828964,0.03670561
1761620021344,0.14705182,0.01405642,-0.01730021,0.01756421,-0.02976892,0.00210198,0.98390839,0.12863408,-0.11844593,0.03671665
1761620021354,0.04024922,-0.11438270,0.07076786,-0.00796112,-0.01847418,0.01509447,0.98389869,0.12858989,-0.11854846,0.03680042
1761620021365,0.09599938,-0.00524109,0.11999923,-0.02447663,-0.02082296,-0.00847019,0.98390421,0.12845527,-0.11866299,0.03675383
1761620021378,-0.01433019,-0.06509653,0.16284310,-0.03595926,-0.01936465,-0.04940704,0.98392957,0.12823772,-0.11878014,0.03645492
1761620021388,0.20840785,-0.28861823,0.12956264,-0.03139895,-0.06538126,-0.05314714,0.98391994,0.12807444,-0.11912013,0.03617856
1761620021399,0.94844154,-0.06470712,0.74529391,-0.01074102,-0.06698793,-0.05156180,0.98389382,0.12801644,-0.11948186,0.03590012
1761620021410,-0.51923169,-0.20013228,-0.91400547,0.00525828,-0.10674049,-0.04713016,0.98382681,0.12804589,-0.12007961,0.03563619
1761620021422,-0.26301732,-0.18307141,0.06717349,-0.01398473,-0.10622542,-0.05218386,0.98377102,0.12796198,-0.12071696,0.03532309
1761620021433,0.46008046,-0.01835801,0.46952085,-0.03557225,-0.10783828,-0.04478333,0.98373337,0.12777167,-0.12129389,0.03508350
1761620021444,-0.00670086,-0.73624627,-0.36268414,-0.02898450,-0.11509774,-0.03022151,0.98368030,0.12760790,-0.12194420,0.03491275
1761620021454,0.15685017,0.17570530,0.37463385,-0.07350979,-0.11807943,-0.06108986,0.98366458,0.12722198,-0.12256411,0.03459203
1761620021466,-0.20044249,0.24769178,-0.34077214,-0.05427824,-0.11683549,-0.03938359,0.98362827,0.12690445,-0.12324760,0.03436163
1761620021477,0.30670452,-0.00924845,0.29110938,-0.05614593,-0.10854385,-0.02583369,0.98359747,0.12659003,-0.12385545,0.03421696
1761620021489,0.11845974,-0.17431330,-0.02935286,-0.04346243,-0.10010374,0.00858954,0.98355561,0.12634230,-0.12442604,0.03426592
1761620021499,0.13728388,-0.06141083,-0.23719122,-0.03020681,-0.09635178,0.02195623,0.98350873,0.12618673,-0.12492225,0.03437900
1761620021510,-0.13092396,-0.06162145,-0.21072524,-0.04729053,-0.09564032,0.00772795,0.98347395,0.12592900,-0.12544349,0.03442112
1761620021521,-0.07223765,0.01889254,0.28369940,-0.05883016,-0.06598406,-0.03508747,0.98347576,0.12559367,-0.12581960,0.03422112
1761620021533,-0.24521896,0.30237370,-0.51879376,-0.05191870,-0.09872328,-0.05750159,0.98345168,0.12528475,-0.12640700,0.03387898
1761620021545,0.04230351,0.60065235,0.52847737,-0.04961979,-0.07843172,-0.03878502,0.98343720,0.12499199,-0.12686975,0.03365015
1761620021556,0.42222549,-0.58890611,-0.42639740,0.00083308,-0.06908737,0.00930175,0.98338765,0.12499641,-0.12723591,0.03369945
1761620021567,-0.35303646,0.14787305,0.08387218,0.01106859,-0.05831209,0.02462146,0.98333371,0.12505729,-0.12755663,0.03383487
1761620021578,0.31526424,-0.26341805,0.12610569,0.03634696,-0.01900740,0.04445732,0.98328625,0.12525719,-0.12766117,0.03407938
1761620021588,-0.17734965,0.51491837,0.17303855,-0.01088180,-0.03713027,0.02401054,0.98326318,0.12519843,-0.12786167,0.03420904
1761620021600,0.02786920,0.05175446,-0.24563622,-0.00559311,-0.03610115,0.02926913,0.98323489,0.12516683,-0.12806564,0.03437441
1761620021611,0.03926269,-0.07641935,0.22353388,0.01706222,-0.04250981,0.01484603,0.98318713,0.12526579,-0.12831220,0.03446052
1761620021622,0.04313661,-0.58796979,0.00056388,0.01544708,-0.08914711,-0.01506134,0.98311640,0.12534921,-0.12879360,0.03437919
1761620021633,0.11028887,0.27996462,0.01105291,-0.01086833,-0.09436516,-0.02345800,0.98306294,0.12529215,-0.12928901,0.03425603
1761620021644,-0.14194203,-0.26792672,-0.01425710,-0.02180245,-0.09372853,-0.00138032,0.98300864,0.12516787,-0.12982327,0.03424817
1761620021656,-0.43187225,0.28869366,-0.26839518,-0.00452459,-0.10475060,-0.01532635,0.98293209,0.12514073,-0.13045177,0.03415621
1761620021667,0.39981716,-0.39957443,0.35157747,0.00441611,-0.07772435,0.00182152,0.98287291,0.12516457,-0.13087148,0.03416604
1761620021678,0.02451993,0.07160978,0.40426446,-0.00122403,-0.08875363,0.01174352,0.98280883,0.12515809,-0.13134187,0.03422828
1761620021688,-0.32440735,0.01640164,0.18628433,-0.00349207,-0.07469403,0.00133079,0.98275651,0.12513905,-0.13174896,0.03423554
1761620021700,0.14306152,0.26161007,0.40811243,0.01297702,-0.08671672,-0.02350276,0.98268535,0.12521302,-0.13224324,0.03410157
1761620021711,0.57433226,0.11981025,-0.41107571,0.05396273,-0.12442138,-0.01832191,0.98255634,0.12551522,-0.13294000,0.03399897
1761620021722,0.03884439,0.15538094,0.23636312,0.10506558,-0.16299966,0.04486688,0.98235392,0.12608782,-0.13382835,0.03424349
1761620021734,-0.18062340,0.17816468,-0.44599792,0.12416500,-0.15468556,0.01275609,0.98213409,0.12681419,-0.13473326,0.03431812
1761620021745,0.01109407,0.11687684,0.39236041,0.12674110,-0.15590079,0.01452435,0.98191339,0.12754295,-0.13562969,0.03440163
1761620021755,0.43241589,-0.73335593,0.26415231,0.15947082,-0.17170141,0.02599134,0.98168139,0.12835625,-0.13650537,0.03453419
1761620021766,-0.17187874,-0.05009810,-0.00500839,0.11666937,-0.15426863,0.01370437,0.98147438,0.12900377,-0.13736156,0.03461025
1761620021778,-0.60179846,0.23424424,-0.01104217,0.04735361,-0.14482477,0.00298725,0.98131569,0.12928552,-0.13822327,0.03462802
1761620021789,-0.09335917,0.22810248,0.05394085,0.04006845,-0.14451690,-0.04162763,0.98118969,0.12949388,-0.13897475,0.03441156
1761620021800,-0.27778852,0.49501184,-0.50177380,0.08630685,-0.09888787,-0.04810013,0.98105659,0.12997719,-0.13952853,0.03414220
1761620021811,0.34727392,0.15160839,0.12702278,0.12935686,-0.08027690,-0.00316451,0.98089834,0.13069512,-0.13997406,0.03412463
1761620021822,0.14706446,-0.43998397,0.23220704,0.14182114,-0.07767900,0.02186703,0.98072729,0.13148223,-0.14040518,0.03424599
1761620021833,-0.38348778,-0.78343830,-0.35602241,0.13473911,-0.10151205,-0.03117057,0.98055036,0.13223677,-0.14097365,0.03407144
1761620021845,-0.17598610,0.26023019,0.84520503,0.02916611,-0.09767496,-0.07196301,0.98046189,0.13240302,-0.14153040,0.03366125
1761620021855,0.16213806,0.03615614,0.23279489,0.00129857,-0.13854527,-0.03258046,0.98035963,0.13240996,-0.14227161,0.03348694
1761620021867,-0.37966686,0.11328690,-0.46799975,0.03141788,-0.14739075,-0.04110369,0.98022112,0.13258905,-0.14311174,0.03325265
1761620021878,0.02517576,0.20829207,0.17939312,0.06577621,-0.10584079,-0.02163815,0.98008505,0.13296726,-0.14372032,0.03312823
1761620021889,0.12228786,0.05527427,0.00027920,0.10902647,-0.10196975,0.01223107,0.97992033,0.13356145,-0.14427606,0.03319489
1761620021900,-0.42602646,-0.29287793,-0.33465536,0.11803499,-0.11255608,-0.03230447,0.97974311,0.13422245,-0.14490637,0.03301399
1761620021912,-0.28146919,0.23145430,0.32753699,0.04794054,-0.10187246,-0.06659473,0.97963034,0.13450051,-0.14549723,0.03262774
1761620021922,-0.23488408,0.10330666,0.62460102,-0.05046561,-0.11662115,-0.10530090,0.97959451,0.13424061,-0.14609783,0.03208544
1761620021930,0.36643228,0.52631475,2.05056128,-0.10361035,-0.16063823,-0.11743654,0.97957259,0.13386243,-0.14668416,0.03165680
1761620021960,-0.21872510,0.21343137,-1.34742144,-0.01671072,-0.04378306,-0.01558156,0.97951596,0.13361260,-0.14733872,0.03142385
1761620021990,0.03210737,-0.03992714,0.33349837,0.02836398,-0.05705556,0.00951121,0.97932155,0.13404374,-0.14820596,0.03156842
1761620022001,0.70408128,0.94978918,7.45023050,0.08765468,-0.22012476,0.11715692,0.97904798,0.13453022,-0.14942766,0.03221864
1761620022012,-1.12954558,-0.44285389,-4.99455461,0.06304173,-0.10190173,0.00266064,0.97891774,0.13486749,-0.14997283,0.03223288
1761620022034,0.08040374,-0.21391431,-0.92254442,0.04935185,-0.06058099,0.02499080,0.97873053,0.13541283,-0.15064225,0.03250903
1761620022045,-0.33802272,0.24724552,0.24398732,0.07591529,-0.08172678,0.04556563,0.97859008,0.13584555,-0.15110809,0.03276875
1761620022058,0.24601211,-0.38505109,-0.23909843,0.07482099,-0.04333880,0.06088795,0.97846365,0.13633937,-0.15139413,0.03317061
1761620022069,-0.10174248,-0.09916955,0.52342214,0.07359070,-0.05635735,0.08882519,0.97835019,0.13671836,-0.15168437,0.03362806
1761620022079,0.27756046,-0.02679563,0.57744919,0.05659562,-0.06449183,0.11221330,0.97824001,0.13700417,-0.15201005,0.03419474
1761620022090,0.00973180,0.38801170,-0.49120847,0.07632352,-0.05713322,0.06802773,0.97812240,0.13741250,-0.15231572,0.03455869
1761620022101,0.19495320,0.02497772,-0.20660990,0.09711133,-0.06361938,0.07869544,0.97797330,0.13796118,-0.15267517,0.03500332
1761620022113,-0.10965932,0.02753496,-0.27069164,0.12658909,-0.07390402,0.05191034,0.97778689,0.13871438,-0.15311489,0.03531218
1761620022123,0.28793154,-0.48945375,0.63854710,0.14056602,-0.09563609,0.08430028,0.97758897,0.13944533,-0.15361220,0.03575054
1761620022134,-0.17728114,0.30092372,-0.12696962,0.04938293,-0.08727481,0.05326418,0.97746274,0.13971940,-0.15409658,0.03604616
1761620022145,0.35605080,0.22228987,-0.10836329,0.03156772,-0.09948225,0.05958758,0.97733822,0.13989460,-0.15464870,0.03637687
1761620022157,0.22588907,-0.07627616,-0.05333989,0.07759367,-0.10307946,0.06988165,0.97715770,0.14036016,-0.15526718,0.03679616
1761620022169,0.14734613,0.12020586,-0.36819116,0.12468713,-0.14135338,0.04578763,0.97691075,0.14108958,-0.15609410,0.03706402
1761620022180,0.34997637,-0.34666300,-0.19229884,0.12211408,-0.15442114,0.07201722,0.97665325,0.14178563,-0.15697430,0.03747452
1761620022191,0.26003168,0.03982750,0.24997692,0.09512959,-0.15566240,0.04596929,0.97644165,0.14228031,-0.15778374,0.03771356
1761620022202,-0.41242947,0.44999585,-0.63568111,0.01631542,-0.14577581,0.02018692,0.97628632,0.14237494,-0.15862924,0.03783064
1761620022213,0.48212081,-0.61583344,0.83972606,0.07118370,-0.14056191,0.04109607,0.97609967,0.14275577,-0.15938125,0.03805050
1761620022223,0.17287696,-0.28516293,0.14100866,0.11159847,-0.17524661,0.02732249,0.97586445,0.14332492,-0.16027501,0.03818985
1761620022235,-0.28488383,0.13210185,-0.35992639,0.08143630,-0.15767646,-0.00530942,0.97564552,0.14379725,-0.16118953,0.03815905
1761620022245,0.93219670,-0.48104398,0.56673668,0.07250629,-0.19286763,0.02368659,0.97541881,0.14417428,-0.16219244,0.03828222
1761620022258,-0.42682765,0.17709415,-0.53168591,0.03359482,-0.16431079,0.00113289,0.97521941,0.14438089,-0.16320295,0.03828919
1761620022268,-0.06421324,0.23622857,-0.05862948,0.02653027,-0.19738287,-0.05168277,0.97503013,0.14452416,-0.16426882,0.03801011
1761620022279,0.24528660,0.31095187,0.39245857,0.06571532,-0.17790467,-0.05726773,0.97482713,0.14487902,-0.16522951,0.03770086
1761620022345,-0.28587850,-0.01900198,-0.41772511,0.00861091,-0.02392206,-0.00483807,0.97465687,0.14516318,-0.16601893,0.03754120
1761620022374,1.62477794,-0.68030635,1.51916074,-0.06193476,-0.28821408,-0.14587292,0.97414306,0.14425583,-0.17024127,0.03540417
1761620022405,-0.72268939,0.42455989,-1.12904931,-0.06113429,-0.11959686,-0.04468723,0.97398475,0.14332354,-0.17206512,0.03472268
1761620022448,-0.13463342,0.09701622,-0.14812815,-0.02066021,-0.12195327,-0.03052948,0.97360905,0.14288244,-0.17466882,0.03407088
1761620022483,0.16121061,-0.00161977,-0.07587626,-0.00068370,-0.09284123,-0.01882438,0.97332458,0.14287027,-0.17632140,0.03373581
1761620022522,-0.13503086,-0.02575564,-0.05330386,-0.01762847,-0.07852122,-0.06948205,0.97314146,0.14252475,-0.17786041,0.03237396
1761620022552,0.37690872,0.16546279,-0.02216364,0.04176851,-0.06465812,-0.01646752,0.97288252,0.14314502,-0.17882059,0.03212942
1761620022594,-0.33476691,-0.23022398,-0.07578186,-0.02717804,-0.04225121,0.01375240,0.97279433,0.14258107,-0.17969730,0.03241478
1761620022627,-0.12539312,0.22369871,-0.15798572,-0.02643804,-0.02280164,-0.03603818,0.97280827,0.14214352,-0.18007467,0.03181835
1761620022637,5.64829185,-2.30868810,-0.61078322,0.13115594,-0.05912972,0.06171098,0.97264246,0.14281898,-0.18037919,0.03213616
1761620022670,-1.75896634,0.59227472,0.07790446,-0.04143998,-0.02897644,-0.04711854,0.97267878,0.14214350,-0.18085150,0.03136813
1761620022703,-0.17059496,0.14951598,0.05762596,0.01134075,0.00810154,-0.02599408,0.97269003,0.14233119,-0.18071742,0.03093792
1761620022714,0.41072351,-0.59568969,-0.84296067,-0.01755518,0.01358187,-0.04780888,0.97272668,0.14223376,-0.18064204,0.03067258
1761620022737,-0.26826288,0.12629249,0.25267449,-0.03557533,0.00917260,0.00893287,0.97280375,0.14181931,-0.18053518,0.03077665
1761620022747,0.57563543,-0.77571319,-0.85763069,-0.03215481,0.00421378,-0.02537298,0.97283571,0.14165532,-0.18051369,0.03064725
1761620022787,-0.35916528,0.28010945,0.34484589,-0.02198384,-0.00087097,-0.00736309,0.97290070,0.14121784,-0.18053102,0.03050072
1761620022818,0.65771165,-0.32649443,-0.50084695,-0.05285869,-0.01973649,-0.02850185,0.97297476,0.14041439,-0.18083102,0.03006750
1761620022826,2.11623638,-0.79529659,-2.85312103,-0.09083775,-0.07156210,-0.07281507,0.97298374,0.14001016,-0.18114947,0.02974347
1761620022848,-1.34866292,0.30284025,1.37397245,-0.05588294,-0.00201889,-0.01783467,0.97307220,0.13940663,-0.18117127,0.02955085
1761620022870,0.01014272,0.23796589,0.05105714,-0.05548347,-0.01878232,-0.05658394,0.97313996,0.13879353,-0.18137882,0.02892560
1761620022881,0.41520654,0.53436970,-0.51885741,-0.04608925,-0.06709309,-0.05088231,0.97311618,0.13854696,-0.18173777,0.02865338
1761620022893,0.33785337,0.49298294,0.50811480,0.03662588,-0.04392860,-0.02266196,0.97304152,0.13876122,-0.18199475,0.02852081
1761620022904,-0.26621470,-0.38974462,0.11408379,0.02609909,-0.02364430,0.00075344,0.97299291,0.13891651,-0.18213543,0.02852529
1761620022915,-0.43120973,-0.55006444,0.01140548,0.00007704,-0.02059091,-0.01601397,0.97297456,0.13891692,-0.18224662,0.02843882
1761620022926,-0.58970634,0.43649504,0.05601701,-0.02780788,0.00326219,-0.01560922,0.97300024,0.13877510,-0.18222999,0.02835921
1761620022937,-0.12683332,-0.08632102,-0.05836577,-0.00429667,-0.01123584,-0.02903766,0.97299638,0.13874954,-0.18229684,0.02818644
1761620022949,-0.02290810,0.03133585,0.04506306,-0.02631229,0.00826979,-0.01753704,0.97302918,0.13860087,-0.18225011,0.02808735
1761620022959,0.00887976,-0.05806767,-0.26118731,-0.01868309,0.01350841,-0.00817402,0.97305767,0.13850279,-0.18217919,0.02804444
1761620022971,0.01391799,0.06893756,0.06644719,-0.03221889,0.01129782,0.00371039,0.97309688,0.13831108,-0.18211197,0.02806651
1761620022982,-0.04808442,0.09419637,-0.27830679,0.00151221,0.01726313,-0.01184227,0.97311534,0.13831940,-0.18201703,0.02800138
1761620022993,-0.00597493,0.09796899,0.11501750,0.00940659,0.01997327,0.02653763,0.97312456,0.13837255,-0.18190418,0.02815132
1761620023004,0.00917869,0.43081491,-0.25796216,0.02130560,0.02899905,0.02777016,0.97313334,0.13849079,-0.18174323,0.02830544
1761620023014,0.04128836,-0.08571608,-0.30716435,0.05024608,0.02114170,0.00818306,0.97311627,0.13873951,-0.18163858,0.02834595
1761620023026,-0.14228191,-0.11924880,0.34325700,0.01359279,0.01300782,-0.02535114,0.97312320,0.13881631,-0.18156509,0.02820272
1761620023037,-0.19430033,-0.27999265,0.11650227,-0.00515105,0.01141694,-0.07739484,0.97315221,0.13878695,-0.18150001,0.02776157
1761620023049,-0.20020154,0.06927761,-0.08910068,0.04789523,0.05206988,-0.02602224,0.97317331,0.13906714,-0.18119540,0.02760934
1761620023060,0.07093445,-0.29263409,-0.18067066,0.00847879,0.08845153,-0.01041426,0.97325872,0.13911377,-0.18070892,0.02755206
1761620023070,0.09766404,-0.29090362,0.25265986,-0.09595962,0.11036091,0.02985146,0.97342855,0.13862438,-0.18014608,0.02770430
1761620023081,-0.01640307,-0.05623042,0.12777126,-0.05797287,0.06712257,0.01448495,0.97354392,0.13829393,-0.17976348,0.02778686
1761620023093,0.00472490,0.07183717,0.02312715,-0.02308367,0.03715818,-0.01213723,0.97360471,0.13816005,-0.17954796,0.02771647
1761620023104,-0.13064645,0.02921508,-0.13526978,-0.02825518,0.01361430,-0.03269036,0.97364380,0.13801171,-0.17947649,0.02754484
1761620023115,0.03244501,0.16223749,0.21616737,-0.03067549,0.02816958,-0.02953848,0.97370445,0.13783225,-0.17931169,0.02737204
1761620023127,-0.01317115,0.12562282,-0.12079830,-0.00324093,0.03239282,0.00689531,0.97373994,0.13781378,-0.17912705,0.02741135
1761620023137,0.05304742,0.28543017,-0.02849655,-0.04465670,0.02330984,-0.00429510,0.97379731,0.13757487,-0.17900235,0.02738837
1761620023148,-0.04997412,-0.09699218,0.03680633,-0.01588025,0.01352998,-0.01520144,0.97382463,0.13749070,-0.17893064,0.02730780
1761620023159,0.15191007,-0.19605977,0.28509883,-0.01437267,0.01966536,-0.00723300,0.97385853,0.13740734,-0.17881658,0.02726585
1761620023171,-0.07134882,-0.22320530,0.06462233,0.00633552,-0.01166513,0.00455444,0.97384002,0.13744440,-0.17888482,0.02729249
1761620023183,0.10168880,-0.00888899,0.05387655,-0.02813601,-0.01314067,-0.01473831,0.97385113,0.13728544,-0.17895906,0.02720922
1761620023194,0.10047735,-0.03708121,0.16583153,-0.01273542,0.00079326,-0.00043238,0.97386245,0.13721157,-0.17895446,0.02720671
1761620023204,0.25357210,-0.23272613,0.11310410,-0.01153568,-0.01357886,0.01349513,0.97385596,0.13715158,-0.17902507,0.02727689
1761620023215,0.02645177,-0.07935530,0.03526902,-0.01659527,-0.01784841,-0.00405914,0.97385164,0.13706529,-0.17911789,0.02725578
1761620023226,-0.28649264,0.18256751,-0.01962652,-0.02947181,-0.03612973,-0.03438665,0.97384268,0.13689435,-0.17932744,0.02705634
1761620023238,-0.06527778,0.17062095,-0.02411870,-0.03549734,-0.00299538,-0.01529179,0.97386989,0.13669557,-0.17934421,0.02697070
1761620023249,0.01564562,0.21025506,-0.01107426,-0.00966590,-0.01977373,-0.00082855,0.97385687,0.13663999,-0.17945791,0.02696594
1761620023261,-0.16660937,0.43133544,0.12596204,-0.00103381,-0.01297557,-0.00822595,0.97384537,0.13663410,-0.17953187,0.02691905
1761620023272,-0.03646058,0.12996720,0.04603403,-0.01218986,-0.00107339,0.00716052,0.97385266,0.13656644,-0.17953783,0.02695879
1761620023283,0.07387926,-0.01821855,0.12891864,-0.01734615,-0.00142738,0.01426806,0.97386267,0.13646844,-0.17954589,0.02703941
1761620023294,0.06640079,-0.43440814,0.02022713,-0.05682402,-0.01387276,0.02667733,0.97388826,0.13615590,-0.17962219,0.02718613
1761620023316,-0.04137843,0.02044292,0.07487526,-0.00766455,-0.00223894,-0.00358942,0.97389661,0.13607159,-0.17964682,0.02714665
1761620023317,33.52224214,-25.76097354,-28.40502788,-0.39102232,-0.08272203,-0.05454248,0.97392315,0.13581743,-0.17970059,0.02711120
1761620023338,-2.02603810,1.53892020,1.88701977,-0.00585487,-0.01197154,-0.01312906,0.97391250,0.13575683,-0.17982450,0.02697531
1761620023339,22.71004153,-14.35454533,6.30254331,-0.16046778,-0.08597402,-0.11411068,0.97391973,0.13563648,-0.17988898,0.02688973
1761620023351,-3.14738796,1.94942491,-0.74612536,0.00394385,-0.00542637,0.00400338,0.97391059,0.13565817,-0.17991882,0.02691175
1761620023361,-0.05240177,0.05514799,-0.11479925,-0.00893423,-0.00533772,0.00194709,0.97391168,0.13561037,-0.17994738,0.02692216
1761620023372,0.00307200,-0.04499875,0.03363032,0.00271038,-0.00043682,0.00758890,0.97390817,0.13562460,-0.17994967,0.02696200
1761620023383,-0.09830147,0.16066534,-0.14898511,-0.00261006,0.00140061,-0.00047631,0.97391192,0.13560920,-0.17994141,0.02695919
1761620023395,-0.04228801,-0.02575954,-0.13805793,-0.00091204,0.00734221,0.00082411,0.97392025,0.13560401,-0.17989956,0.02696389
1761620023406,0.00051148,-0.00679419,-0.08812010,0.01076534,0.01601488,-0.00881530,0.97392936,0.13566160,-0.17981388,0.02691673
1761620023448,0.00418930,0.00937101,0.08658211,-0.00035562,0.00132099,0.00070781,0.97393520,0.13565401,-0.17978568,0.02693184
1761620023477,0.09722736,-0.17692058,0.18762446,-0.02006323,-0.01424943,-0.02141842,0.97394576,0.13537112,-0.17998659,0.02662984
1761620023505,-0.00993169,0.11154481,-0.02127574,0.01701891,-0.00288184,0.00311614,0.97390291,0.13561534,-0.18002795,0.02667456
1761620023565,-0.03107995,0.03276651,-0.04623170,0.00163682,-0.00265052,0.00258523,0.97387921,0.13566452,-0.18010760,0.02675224
1761620023597,0.26113441,-0.01965305,0.16941033,0.02749101,-0.03710061,-0.02019272,0.97371922,0.13609751,-0.18069193,0.02643421
1761620023629,-0.05103461,0.10655835,-0.11628610,0.01194213,-0.00705916,-0.00438505,0.97367272,0.13629157,-0.18080664,0.02636295
1761620023667,-0.13835530,-0.08657172,0.00929471,-0.02526687,-0.00250856,-0.00209900,0.97373218,0.13581023,-0.18085443,0.02632297
1761620023708,0.01431647,0.05752769,0.00547381,0.00363667,-0.00662812,-0.00697901,0.97370101,0.13588333,-0.18098765,0.02618269
1761620023718,0.78692906,-1.08300692,1.02543361,0.04169993,0.00348509,0.01665053,0.97367176,0.13610017,-0.18096953,0.02626927
1761620023750,-0.14965278,0.18718772,-0.23214875,0.01707523,-0.01289359,0.00176920,0.97359343,0.13637679,-0.18117841,0.02629793
1761620023783,-0.11932279,0.13314278,-0.09993908,0.02172615,-0.01206845,-0.00218129,0.97350914,0.13672658,-0.18137271,0.02626281
1761620023794,-0.08498853,0.52519853,0.16894689,0.03832261,-0.00964483,0.02089584,0.97346458,0.13694693,-0.18142817,0.02638296
1761620023806,-0.10723474,0.03295427,-0.15974279,0.05053309,-0.00481484,0.01373865,0.97341594,0.13724003,-0.18145609,0.02646265
1761620023818,0.19227305,-0.33220035,-0.15356179,0.02276768,0.01036642,0.00458825,0.97340723,0.13738119,-0.18139182,0.02649110
1761620023829,0.04373124,-0.13408858,0.00389618,0.02450606,0.00679436,0.02450223,0.97339192,0.13751229,-0.18135547,0.02662218
1761620023839,-0.04499272,-0.14381345,-0.11948617,-0.01929971,-0.00627956,0.00747628,0.97339894,0.13741193,-0.18138813,0.02666106
1761620023850,0.04088110,-0.20819880,0.35912475,-0.01383731,0.00579106,-0.00414845,0.97341593,0.13733721,-0.18135685,0.02663866
1761620023861,0.08990869,-0.15309609,0.00904925,-0.02011983,0.00214106,0.00720934,0.97343264,0.13722655,-0.18134508,0.02667831
1761620023872,0.02786484,-0.06812396,0.07402479,-0.03634620,0.00123607,-0.00801054,0.97346355,0.13702483,-0.18133822,0.02663385
1761620023884,0.11011618,0.00565300,-0.05833884,-0.01456306,0.00164146,-0.01816945,0.97347994,0.13694110,-0.18132878,0.02652938
1761620023895,-0.23081047,0.24489252,-0.13170130,-0.00403319,-0.01467577,-0.02453872,0.97347117,0.13691750,-0.18141463,0.02638583
1761620023906,0.01556112,0.08966590,-0.17312587,0.02276812,-0.02620326,-0.02407571,0.97343026,0.13704273,-0.18155875,0.02625341
1761620023917,0.21280336,0.10258403,0.20492175,0.01848322,-0.02293199,-0.01841844,0.97339514,0.13714438,-0.18168488,0.02615211
1761620023928,0.03940803,0.02229017,-0.14186891,0.01534701,-0.02039217,-0.00757761,0.97336342,0.13722879,-0.18179703,0.02611043
1761620023940,-0.06662346,-0.00317551,0.03212870,-0.01390524,-0.01475575,-0.00120392,0.97335891,0.13714675,-0.18188409,0.02610333
1761620023952,-0.01689335,-0.16925278,-0.06871486,-0.01460043,-0.01205644,0.01101563,0.97335598,0.13705988,-0.18195583,0.02616887
1761620023963,-0.18509863,-0.01911793,0.09234319,-0.01469905,-0.01738751,0.00753294,0.97334850,0.13698050,-0.18204972,0.02620955
1761620023974,-0.08385254,0.11457160,-0.02064063,0.00623622,-0.01727706,0.01781130,0.97332302,0.13701511,-0.18214561,0.02630840
1761620023985,0.04644141,0.15794916,0.04644141,0.02536836,-0.01680051,0.02952889,0.97328129,0.13715591,-0.18223885,0.02647229
1761620023997,-0.12169816,0.07649034,0.17533219,0.05082237,-0.00554314,0.01155464,0.97323186,0.13745068,-0.18227100,0.02653930
1761620024008,-0.05781780,-0.02784051,-0.04931897,0.04532719,-0.01096973,0.03114315,0.97317923,0.13770678,-0.18233298,0.02671526
1761620024019,-0.06468620,-0.00428031,-0.08147278,0.02194066,0.01210491,0.03651120,0.97316927,0.13782526,-0.18226761,0.02691242
1761620024029,-0.00943074,-0.09578097,-0.40206395,0.01256652,0.01042656,0.03507796,0.97316503,0.13789186,-0.18221235,0.02709834
1761620024039,-0.31587009,0.08727363,0.16615079,0.03019593,0.02541421,0.02115648,0.97316446,0.13804133,-0.18208655,0.02720306
1761620024050,0.08932487,0.01784308,-0.17689827,0.07307295,0.02122421,0.03697934,0.97312350,0.13844323,-0.18196982,0.02740645
1761620024062,-0.29931563,0.23470920,0.00798006,0.05062902,0.02710645,0.00511877,0.97311011,0.13873941,-0.18181125,0.02743639
1761620024073,0.14915366,-0.08087310,0.01220348,0.02423500,0.00884320,0.05129676,0.97309137,0.13887876,-0.18176040,0.02773135
1761620024085,0.10313137,-0.13594045,-0.07919961,0.00630421,0.03668284,0.05541712,0.97311579,0.13891407,-0.18155498,0.02804168
1761620024096,-0.02411128,-0.17305819,0.06211274,0.00283867,0.01067895,0.02947472,0.97311998,0.13893025,-0.18149411,0.02820969
1761620024107,-0.02351737,-0.04563971,-0.08660587,-0.00865888,0.02121483,0.03938910,0.97314202,0.13888305,-0.18137848,0.02842436
1761620024118,-0.16830766,0.11564420,-0.06395691,0.02590839,0.03899759,0.04202090,0.97315532,0.13903073,-0.18115620,0.02866388
1761620024129,-0.01623080,0.21370867,0.14711957,0.06699701,0.04661785,0.03065308,0.97314569,0.13938582,-0.18090912,0.02882634
1761620024140,-0.11406022,0.24734348,-0.10498894,0.03849780,0.01910432,-0.01487174,0.97313728,0.13959755,-0.18080405,0.02874455
1761620024151,0.11822409,0.11699259,0.18915854,0.01004721,0.01051952,0.03259391,0.97313479,0.13965281,-0.18074619,0.02892381
1761620024162,0.01405468,-0.28545273,-0.23736787,0.00769185,-0.00161568,0.04870334,0.97311864,0.13969627,-0.18075532,0.02919899
1761620024174,0.11222201,-0.18543935,0.04124144,-0.05513464,-0.00150036,0.05513666,0.97315412,0.13936822,-0.18076425,0.02952705
1761620024186,-0.10596023,-0.09764612,-0.04316685,-0.04825169,0.00692302,0.03444138,0.97319625,0.13908354,-0.18072340,0.02973025
1761620024196,-0.16050824,-0.01205479,0.01519413,-0.05301909,0.03287888,0.02974329,0.97326005,0.13881844,-0.18055901,0.02987897
1761620024206,0.05618836,-0.09935610,0.03429018,-0.03029328,0.01249314,0.02477834,0.97329118,0.13865789,-0.18049279,0.03001030
1761620024218,0.08905571,-0.11686509,0.06493509,-0.01715979,0.02195088,0.00522258,0.97332834,0.13855750,-0.18036438,0.03004085
1761620024230,-0.09056736,-0.06999377,-0.02786688,-0.05370543,-0.00746317,0.00351385,0.97336429,0.13824333,-0.18040804,0.03006140
1761620024241,0.06096221,-0.15763998,0.00727716,-0.02909899,0.01273959,0.01522602,0.97339830,0.13807892,-0.18033606,0.03014743
1761620024263,0.14413028,0.11772657,0.03663304,-0.00973762,0.01485255,0.00242499,0.97344312,0.13797132,-0.18017194,0.03017423
1761620024265,-27.31852582,-41.86859198,-43.04528176,-0.12871175,0.20564297,0.10401380,0.97348291,0.13787478,-0.18001771,0.03025224
1761620024298,1.31034453,1.91130466,1.97746794,-0.00088897,0.00703885,-0.00121088,0.97350686,0.13786025,-0.17990262,0.03023244
1761620024308,-0.38429867,-1.44498747,-0.82692604,-0.08703491,0.03375818,-0.01187548,0.97360140,0.13742507,-0.17973383,0.03017306
1761620024319,0.33969722,0.92425376,0.63210479,-0.00177045,0.01923421,-0.00010871,0.97362232,0.13741534,-0.17962805,0.03017246
1761620024329,0.12888696,0.18907974,0.09335757,-0.01039164,0.00025871,-0.04557466,0.97363809,0.13735922,-0.17962665,0.02992636
1761620024342,0.06671329,0.11387551,0.04272452,-0.00707263,-0.01653419,-0.02875380,0.97363088,0.13731572,-0.17972833,0.02974952
1761620024352,0.04551998,0.04798751,-0.12759930,-0.04948424,-0.02660679,-0.03121319,0.97364653,0.13705841,-0.17986669,0.02958722
1761620024363,0.16566529,0.03807469,-0.09761066,-0.00419225,-0.01612996,-0.01439203,0.97363578,0.13703535,-0.17995540,0.02950806
1761620024405,-0.05788207,0.04156377,0.06300311,-0.00178645,-0.00535674,-0.00451544,0.97362316,0.13699792,-0.18006763,0.02941346
1761620024432,0.16859876,0.03805199,-0.16302332,-0.02668091,-0.04005222,-0.01173856,0.97357824,0.13663640,-0.18061033,0.02925440
1761620024452,-0.39998210,-0.12358618,0.30739043,-0.04283944,-0.02657337,-0.01073248,0.97359222,0.13620586,-0.18087740,0.02914654
1761620024462,-0.00344186,0.01137790,-0.28083704,0.02212895,-0.02008661,-0.01646907,0.97356021,0.13631761,-0.18097883,0.02906337
1761620024485,0.11416029,0.01701095,0.03598889,-0.00504663,-0.01295820,-0.00057076,0.97354107,0.13626033,-0.18112591,0.02905690
1761620024496,-0.11835709,-0.14970171,0.08399535,0.01296141,-0.01285936,-0.01335720,0.97352050,0.13633032,-0.18119535,0.02898477
1761620024518,0.04723241,0.04830377,0.01189455,0.00575521,0.00204074,0.00033439,0.97351557,0.13639536,-0.18117229,0.02898855
1761620024529,0.17177735,-0.23315280,0.26754093,0.00323944,-0.00350001,0.01190488,0.97350791,0.13641236,-0.18119067,0.02905105
1761620024541,0.02500267,0.15051489,-0.15542198,0.00706157,-0.00176067,0.01385703,0.97349691,0.13645720,-0.18120185,0.02913904
1761620024552,-0.33696708,0.28216064,-0.07084195,0.01392815,0.00794569,0.01638982,0.97349180,0.13653102,-0.18115973,0.02922590
1761620024563,0.02111676,0.04468954,-0.17339533,0.02354690,0.00760185,0.03163999,0.97347616,0.13666053,-0.18111792,0.02939992
1761620024574,-0.07596452,0.01924664,0.01308195,0.02091567,0.00843640,0.02015833,0.97346548,0.13677348,-0.18107237,0.02950878
1761620024585,0.02984738,-0.06484677,0.00563158,0.01579468,0.01083067,0.01411473,0.97346193,0.13686193,-0.18101172,0.02958782
1761620024597,-0.07316308,-0.11278248,0.01046848,0.00597606,0.01129920,0.00602777,0.97346845,0.13689808,-0.18094335,0.02962429
1761620024609,-0.01251522,0.03494483,-0.03599614,-0.01880085,0.01721026,0.00470959,0.97350121,0.13678998,-0.18084440,0.02965137
1761620024620,-0.12980066,-0.09633643,0.02884459,0.00067077,0.00692172,0.01856605,0.97350480,0.13679383,-0.18080460,0.02975812
1761620024631,-0.28983539,-0.12743841,-0.09816172,0.01795610,0.00960577,0.01920887,0.97349776,0.13688900,-0.18075369,0.02985993
1761620024643,-0.01662812,-0.01842422,0.09135605,-0.01613367,0.00997261,-0.01247100,0.97352409,0.13679462,-0.18069535,0.02978698
1761620024653,0.37532228,-0.16417228,0.01444434,-0.04186604,0.02278622,0.00359625,0.97357557,0.13657901,-0.18057800,0.02980550
1761620024663,0.38134086,0.14402626,-0.27641650,-0.04355273,0.01630418,0.03757055,0.97361624,0.13635689,-0.18049485,0.02999711
1761620024675,-0.09466399,-0.02950517,-0.10194584,0.00676807,0.00113112,-0.00133873,0.97361223,0.13639581,-0.18048834,0.02998941
1761620024686,0.10513258,-0.04805045,0.04415299,-0.00957804,0.02589097,0.01772472,0.97364327,0.13634265,-0.18034465,0.03008778
1761620024697,0.22708798,-0.00318568,-0.00317328,0.00950197,0.01079446,0.02004119,0.97364354,0.13639681,-0.18028312,0.03020202
1761620024708,-0.01080374,0.11139066,0.03761303,-0.03085248,-0.00409213,-0.00370637,0.97366413,0.13622404,-0.18030603,0.03018126
1761620024719,0.19766846,-0.23793866,0.03041053,-0.01003610,-0.01206388,-0.03973205,0.97366635,0.13616783,-0.18037359,0.02995876
1761620024730,0.22987844,-0.06782201,0.16248942,-0.07382742,-0.00877351,-0.06816798,0.97372235,0.13578393,-0.18041921,0.02960429
1761620024742,-0.13734520,-0.02984089,-0.06708611,-0.05850632,-0.01745923,0.00014625,0.97375155,0.13543582,-0.18052310,0.02960516
1761620024752,-0.06240932,0.11463589,-0.20869676,-0.03706631,0.00234348,-0.02392245,0.97378500,0.13523937,-0.18051068,0.02947837
1761620024763,-0.04597085,0.12092765,-0.11174453,-0.04755578,0.01639430,-0.01038699,0.97383824,0.13498494,-0.18042297,0.02942280
1761620024776,-0.06064953,0.03571895,0.13733163,-0.02654195,0.00830279,0.01819786,0.97386855,0.13481242,-0.18036900,0.02954108
1761620024787,-0.02606993,-0.07320799,0.04365197,-0.05096588,-0.01543604,-0.03205403,0.97389692,0.13453211,-0.18045390,0.02936479
1761620024798,0.07881606,0.00492600,0.01576321,-0.04420780,-0.01162817,-0.02484230,0.97392274,0.13428897,-0.18051785,0.02922815
1761620024809,-0.01606119,0.11941415,0.13176734,-0.01853930,-0.01558576,0.00104316,0.97392063,0.13418236,-0.18060747,0.02923415
1761620024820,-0.02764041,-0.07787170,-0.14266917,-0.00814207,-0.00370785,-0.01427498,0.97392533,0.13413799,-0.18062768,0.02915635
1761620024831,-0.48805651,-0.14007445,0.50313467,-0.02654102,0.01544602,0.02728333,0.97395525,0.13399865,-0.18054659,0.02929959
1761620024842,-0.02260935,0.03636833,-0.01824614,-0.02792668,-0.01163470,-0.01489527,0.97396665,0.13384924,-0.18060883,0.02921990
1761620024853,0.08222516,0.13614179,-0.03322511,-0.01840932,-0.00223409,-0.01895957,0.97398180,0.13374523,-0.18062145,0.02911278
1761620024863,0.41613277,-0.00924038,-0.28447539,0.00845574,-0.01265356,0.01183806,0.97396191,0.13378878,-0.18068662,0.02917375
1761620024874,0.03893859,0.13095549,0.08005253,0.01269231,-0.01236040,0.00467768,0.97393831,0.13386049,-0.18075646,0.02920018
1761620024886,-0.01969239,-0.02117133,-0.04477674,0.00769055,-0.01322605,-0.00907192,0.97391886,0.13390663,-0.18083581,0.02914574
1761620024897,-0.04728964,0.00604462,0.06042565,-0.01164917,-0.00920730,-0.00049832,0.97391835,0.13384256,-0.18088645,0.02914300
1761620024909,-0.01245562,-0.01242489,-0.08063375,0.00380693,0.00486165,0.00021963,0.97392049,0.13386445,-0.18085850,0.02914427
1761620024919,-0.06145487,-0.17203601,0.07891092,-0.02201250,-0.01629234,-0.01640289,0.97392298,0.13375219,-0.18094159,0.02906061
1761620024930,0.13763749,-0.02102508,0.28282969,-0.01080065,-0.00261291,-0.01039954,0.97393011,0.13369332,-0.18095583,0.02900393
1761620024942,-0.03048739,0.12258671,-0.16144895,-0.00070480,-0.01166898,0.00315049,0.97391744,0.13368920,-0.18102409,0.02902236
1761620024953,0.00554704,0.12520510,-0.10169568,0.00755389,-0.01241626,0.00593766,0.97389718,0.13373264,-0.18109549,0.02905651
1761620024964,-0.10591133,0.12922820,-0.25093973,0.00347726,-0.00398595,0.00458478,0.97389000,0.13375107,-0.18111661,0.02908080
1761620024976,-0.01048297,-0.13700623,0.05311370,-0.01895388,-0.00519332,0.02403268,0.97389545,0.13363829,-0.18114751,0.02922380
1761620024987,0.07805279,0.00352762,-0.07037760,-0.02386728,-0.00630601,0.00203548,0.97390677,0.13350583,-0.18118251,0.02923510
1761620024998,-0.06147824,-0.05610893,0.04802032,-0.02905277,-0.00268443,-0.00158321,0.97392547,0.13335185,-0.18119674,0.02922670
1761620025010,0.05702581,-0.15916761,-0.08971733,-0.01629161,-0.00577647,0.00200950,0.97393210,0.13325328,-0.18123169,0.02923886
1761620025020,-0.07017369,-0.19869794,0.16760072,-0.04938706,-0.00895060,-0.02573917,0.97396255,0.13299647,-0.18127823,0.02910502
1761620025031,-0.18305420,0.21005631,0.72532264,-0.02330195,-0.00794277,-0.01636508,0.97397492,0.13286481,-0.18132311,0.02901256
1761620025042,0.03409651,-0.20359233,0.08069507,-0.02634797,0.00404508,0.00996558,0.97399698,0.13272122,-0.18130106,0.02906687
1761620025053,-0.11625768,0.09616396,-0.23921206,-0.02155313,0.00579160,0.01316788,0.97401617,0.13260699,-0.18127036,0.02913666
1761620025064,0.25217791,-0.07011815,-0.66931862,-0.00186797,0.01448606,-0.00138035,0.97403292,0.13259652,-0.18118924,0.02912893
1761620025076,-0.05011772,-0.00846369,-0.11491638,-0.01978830,0.00045809,0.00474897,0.97404821,0.13248175,-0.18118659,0.02915647
1761620025088,-0.04695108,-0.06979660,0.07629551,-0.02586489,0.01224058,-0.00332063,0.97408444,0.13232268,-0.18111131,0.02913605
1761620025099,0.03681331,-0.04012297,-0.10723057,-0.03428517,0.00376298,-0.02006534,0.97411748,0.13213240,-0.18109042,0.02902469
1761620025111,0.12795547,-0.02225772,0.10675726,-0.04306890,-0.00507746,0.00432983,0.97414510,0.13188260,-0.18111987,0.02904980
1761620025146,-0.07310998,0.14567749,0.09048213,-0.00711058,-0.00517737,-0.01297898,0.97415191,0.13175674,-0.18121151,0.02882007
1761620025176,0.05082671,-0.07126123,-0.08046066,-0.02228709,-0.01186143,-0.01560895,0.97417086,0.13142244,-0.18138943,0.02858594
1761620025187,0.19427989,-0.27219745,-0.92573207,-0.08374965,-0.02471385,-0.02363099,0.97421174,0.13095763,-0.18152659,0.02845479
1761620025209,-0.16388926,0.19853281,0.41323038,-0.00686348,-0.01144304,-0.00894895,0.97420115,0.13088110,-0.18165418,0.02835501
1761620025231,-0.21629353,-0.04376495,0.29647915,-0.03404235,-0.00990796,-0.00767985,0.97423352,0.13050663,-0.18176317,0.02827053
1761620025242,-0.26446356,-0.06127055,0.07641049,-0.02597648,0.00081516,0.02421398,0.97424932,0.13036636,-0.18175877,0.02840128
1761620025254,0.42845329,0.03577701,-0.51785953,-0.00796046,0.01270097,0.01593523,0.97426668,0.13031979,-0.18168447,0.02849450
1761620025266,-0.03396044,0.08363280,-0.09442116,-0.00021053,0.01608991,0.02094386,0.97428129,0.13031852,-0.18158712,0.02862121
1761620025277,0.12044833,0.00828396,0.14853409,0.00716101,0.03416560,0.03226112,0.97430624,0.13035862,-0.18139580,0.02880188
1761620025287,-0.12568065,0.00920679,-0.20844596,0.00361654,-0.00051465,0.00220051,0.97430301,0.13037670,-0.18139837,0.02881288
1761620025298,0.06541733,0.05332399,0.15290315,-0.00140821,0.02011667,-0.01532769,0.97432713,0.13036896,-0.18128773,0.02872858
1761620025310,-0.01606119,0.04009152,0.02753347,-0.01965844,0.00686652,-0.01744391,0.97435255,0.13025592,-0.18124825,0.02862827
1761620025320,0.23533294,0.07459690,0.19366977,-0.04422203,0.01168185,-0.05440342,0.97440476,0.13001712,-0.18118516,0.02833450
1761620025331,0.35705720,0.18349190,0.32582070,-0.00237320,0.00122665,-0.01301661,0.97440961,0.13000466,-0.18117872,0.02826616
1761620025342,-0.11117647,0.00096470,-0.01479508,-0.00294170,0.02479271,-0.00285124,0.97443833,0.12998804,-0.18103865,0.02825005
1761620025354,-0.20622689,0.07690273,-0.15423072,-0.03903030,0.01919431,0.02253640,0.97448781,0.12974996,-0.18092156,0.02838752
1761620025365,-0.18864860,-0.10209931,-0.19581766,-0.03010337,0.01838864,0.00714415,0.97452638,0.12958890,-0.18082318,0.02842574
1761620025376,0.03472255,-0.06651990,0.09866991,-0.02768080,-0.00877485,-0.00173971,0.97453804,0.12943528,-0.18087188,0.02841609
1761620025387,-0.06739857,-0.05587314,0.12905169,-0.02856514,-0.01988230,-0.03468288,0.97454403,0.12928102,-0.18097925,0.02822880
1761620025400,0.08547055,0.06381707,-0.01022893,-0.01371469,-0.02736175,-0.02371595,0.97452674,0.12918914,-0.18116257,0.02806990
1761620025411,0.01659736,-0.22419450,0.01342708,0.00862370,-0.02402639,0.02805191,0.97449239,0.12923527,-0.18129111,0.02821998
1761620025422,-0.25982658,0.08221391,0.22619626,-0.00178828,-0.00852610,0.00863767,0.97448399,0.12922588,-0.18133587,0.02826533
1761620025433,-0.25264729,0.10384450,0.34329791,0.00702420,-0.00931593,0.02040434,0.97446509,0.12926662,-0.18138990,0.02838367
1761620025445,-0.04046946,-0.16867131,-0.12445447,0.00979119,-0.01737411,0.02944675,0.97443407,0.12932292,-0.18148981,0.02855299
1761620025455,0.09380718,-0.28566306,-0.09063353,-0.00263674,-0.00063044,0.03177825,0.97443035,0.12930895,-0.18149315,0.02872142
1761620025466,0.22278732,-0.06366297,-0.31311440,-0.03668227,0.00658506,0.03199626,0.97445890,0.12910536,-0.18145660,0.02889900
1761620025476,-0.10748167,0.00928436,0.08952510,-0.00601015,0.00210677,-0.01277748,0.97446674,0.12907531,-0.18144607,0.02883511
1761620025487,0.04091206,0.08951718,-0.13120076,0.02201515,0.00384353,-0.00422855,0.97445594,0.12918979,-0.18142608,0.02881312
1761620025500,0.10025821,0.11048685,-0.00124416,0.01335234,0.01116864,0.00059146,0.97445787,0.12927858,-0.18135181,0.02881705
1761620025511,-0.04004227,0.02871202,0.05449461,-0.00310364,0.01848915,-0.02607421,0.97448190,0.12926244,-0.18125567,0.02868147
1761620025521,0.01763451,-0.07687544,0.01763451,-0.02143992,0.00504845,-0.01937711,0.97450453,0.12915096,-0.18122941,0.02858071
1761620025532,0.45249953,-0.30054539,-0.14200414,-0.02529222,0.00497449,-0.01304284,0.97453131,0.12900553,-0.18120081,0.02850571
1761620025543,0.12689513,0.03988389,-0.07540377,-0.02031399,0.00543681,-0.00949550,0.97455158,0.12890193,-0.18117308,0.02845728
1761620025554,-0.12506359,0.31108470,-0.05169490,-0.01644563,-0.00388890,-0.00418131,0.97456047,0.12880901,-0.18119505,0.02843366
1761620025566,-0.28366352,0.32349687,0.19723100,-0.00778768,-0.00001192,-0.00527003,0.97456744,0.12876306,-0.18119512,0.02840257
1761620025578,0.10147426,-0.10302235,0.09371245,-0.03158387,-0.01175438,-0.00575720,0.97458024,0.12857514,-0.18126506,0.02836831
1761620025589,-0.14673737,-0.01669467,0.08372440,-0.04747019,-0.03375298,-0.02122759,0.97458359,0.12830693,-0.18145577,0.02824837
1761620025599,0.01589928,-0.03163378,0.06700410,-0.01168736,-0.01810321,-0.00887062,0.97457555,0.12824732,-0.18154809,0.02820313
1761620025611,0.06553687,0.02822333,-0.02712797,-0.00805393,-0.01333060,0.00358013,0.97456653,0.12819981,-0.18162674,0.02822426
1761620025622,-0.04226690,-0.03650284,0.04406844,-0.00646505,-0.00231472,0.00232292,0.97456843,0.12816489,-0.18163924,0.02823680
1761620025634,0.24649620,0.17966079,0.07128909,-0.01451297,-0.01312493,0.00972613,0.97456347,0.12807709,-0.18171865,0.02829564
1761620025645,0.04796230,0.21281820,0.11038627,-0.00604197,-0.00136780,-0.00388512,0.97456702,0.12804416,-0.18172610,0.02827447
1761620025724,-0.03012980,-0.03342844,-0.06453822,-0.00131822,-0.00049628,-0.00006784,0.97457028,0.12799209,-0.18174571,0.02827179
1761620025734,-1.83865440,-1.49138081,2.98576814,0.00753996,0.04414107,0.01802839,0.97460518,0.12803130,-0.18151617,0.02836554
1761620025777,0.39394203,0.36322397,-0.70586381,-0.00828406,0.00271576,0.00627381,0.97463508,0.12785568,-0.18145860,0.02849854
1761620025801,-0.02630352,0.08762144,-0.00543564,0.01118134,0.00259212,0.01347729,0.97461852,0.12798985,-0.18142749,0.02866027
1761620025832,0.05910423,-0.06382340,0.05639425,-0.00666209,0.00162128,0.01235606,0.97463146,0.12788359,-0.18140163,0.02885735
1761620025855,0.02334311,-0.10174044,-0.04569706,-0.02466696,-0.00373712,-0.00690397,0.97466271,0.12760239,-0.18144424,0.02877864
1761620025866,0.05427640,-0.18984641,-0.16096787,0.00170947,-0.01882053,0.01768601,0.97464018,0.12761145,-0.18154399,0.02887238
1761620025878,-0.02424172,0.08787624,-0.12620690,0.01398942,-0.01656473,0.03062617,0.97460521,0.12769539,-0.18164338,0.02905614
1761620025889,0.13245477,0.18263632,-0.07358598,0.02343768,-0.00079295,0.06485699,0.97457732,0.12782195,-0.18164766,0.02940636
1761620025899,0.05723354,0.05646702,-0.09811464,0.02249883,0.00164901,0.03320082,0.97455761,0.12794344,-0.18163875,0.02958565
1761620025911,-0.02729944,0.04167101,0.12914733,-0.03908657,-0.01849898,0.00537616,0.97456639,0.12771674,-0.18174605,0.02961683
1761620025922,-0.25549447,-0.18521723,0.38234090,-0.04396765,-0.02142199,-0.00783245,0.97457748,0.12747272,-0.18186494,0.02957336
1761620025934,0.04629229,0.02429420,-0.06459389,-0.03319584,-0.03512400,-0.01655065,0.97456777,0.12728517,-0.18206339,0.02947985
1761620025944,0.10448196,-0.06914514,0.04283471,-0.02468815,-0.03045094,-0.00516137,0.97455529,0.12715185,-0.18222782,0.02945198
1761620025955,0.26429265,0.17975951,-0.09870097,-0.04999722,-0.01206255,0.02391080,0.97457456,0.12687937,-0.18229357,0.02958229
1761620025966,-0.05419492,-0.03132163,-0.15623760,-0.01677247,-0.01597361,0.03422793,0.97456421,0.12678544,-0.18238302,0.02977397
1761620025978,-0.03178566,0.14720695,0.06966720,-0.02399979,-0.03277746,0.01329260,0.97454418,0.12664504,-0.18257477,0.02985173
1761620025989,0.01756310,-0.07490688,-0.02661907,0.00244314,-0.02467137,-0.01171549,0.97451921,0.12665836,-0.18270922,0.02978788
1761620026000,0.13955504,-0.05241449,0.09414542,0.00442774,-0.02881881,-0.01046923,0.97448807,0.12668271,-0.18286773,0.02973030
1761620026012,-0.01638897,-0.22250079,-0.12127840,0.00917862,-0.03217907,0.00366945,0.97444582,0.12673549,-0.18305276,0.02975140
1761620026023,0.25358210,0.12473498,0.33171281,-0.00774699,0.00640090,0.00426281,0.97445726,0.12669288,-0.18301755,0.02977484
1761620026034,0.06752257,-0.00708823,-0.04326689,-0.01029019,-0.02165557,0.02980508,0.97443630,0.12663371,-0.18314207,0.02994622
1761620026045,0.07105539,0.06062916,0.08096685,-0.01521645,-0.00324697,-0.00524980,0.97444463,0.12655078,-0.18315977,0.02991761
1761620026055,-0.39281276,-0.30828036,-0.24510351,0.02715268,-0.00467814,-0.01859682,0.97442467,0.12669197,-0.18318409,0.02982091
1761620026067,-0.09824172,0.09693111,-0.17594460,0.01405539,-0.00205303,-0.01698053,0.97441510,0.12677139,-0.18319569,0.02972497
1761620026078,0.05308271,0.03679106,0.04278676,-0.00899079,0.00733323,-0.01886886,0.97443336,0.12671879,-0.18315279,0.02961459
1761620026090,-0.09307442,-0.04953932,0.01323879,-0.01522621,0.01052775,-0.02063109,0.97446063,0.12662819,-0.18309015,0.02949183
1761620026102,-0.04466897,0.16947352,-0.04133197,0.00944767,0.01529332,-0.01939633,0.97447368,0.12668346,-0.18300069,0.02937836
1761620026113,0.10793140,-0.02414811,-0.12229193,0.01080505,0.01287486,-0.03175501,0.97448470,0.12674397,-0.18292859,0.02920053
1761620026123,0.08355229,-0.04981233,0.29263366,-0.03518606,-0.00140173,-0.09225243,0.97452101,0.12656276,-0.18293581,0.02872543
1761620026134,0.15610171,-0.00066477,0.16482504,-0.02133386,-0.00827306,-0.01046759,0.97452940,0.12644543,-0.18298131,0.02866786
1761620026146,-0.08147639,0.17816170,-0.09736428,-0.01387497,-0.00590807,-0.02241102,0.97453701,0.12636703,-0.18301469,0.02854124
1761620026156,-0.13564593,0.17997294,-0.19168025,-0.03230321,-0.01469066,0.00828426,0.97454323,0.12619744,-0.18309182,0.02858473
1761620026167,-0.16513841,0.07079371,-0.09532990,0.00064317,-0.01799126,-0.01213471,0.97452613,0.12620098,-0.18319077,0.02851799
1761620026178,-0.01194987,-0.11337948,0.04684892,-0.01509317,0.00187181,-0.00072252,0.97453928,0.12611570,-0.18318019,0.02851391
1761620026189,-0.20052758,-0.06751459,-0.04812662,-0.02753965,-0.01458364,0.01138799,0.97454195,0.12596423,-0.18326040,0.02857654
1761620026201,0.12798582,-0.04093976,0.12153561,-0.04062131,-0.00941846,0.03197011,0.97455627,0.12573472,-0.18331362,0.02875718
1761620026212,-0.19157285,-0.21638194,-0.10312464,-0.01341050,-0.02428183,0.02401323,0.97453604,0.12565828,-0.18345202,0.02889405
1761620026222,0.05970983,0.12070552,-0.00618755,-0.02714044,0.01327387,0.00844990,0.97456591,0.12551715,-0.18338300,0.02893799
1761620026257,0.01941539,0.03072838,-0.02113454,-0.00304902,-0.00314541,0.00251819,0.97456124,0.12546517,-0.18343663,0.02898093
1761620026268,-0.25490668,-0.38130002,-0.42158782,-0.00508548,0.01097011,0.00826213,0.97457546,0.12543593,-0.18337355,0.02902843
1761620026278,-0.02321990,0.14746967,0.66840130,0.01157106,0.02558399,-0.00487372,0.97459279,0.12549378,-0.18324563,0.02900406
1761620026290,0.17883647,-0.01218008,-0.11970506,0.00849780,0.02237471,0.00707682,0.97460947,0.12554264,-0.18311698,0.02904476
1761620026303,-0.06852292,0.11569435,0.07596476,-0.00991746,0.01075405,0.00847697,0.97462941,0.12547768,-0.18304654,0.02910028
1761620026313,0.29739232,0.04512718,0.06790134,-0.00739297,0.01053404,0.00353305,0.97464438,0.12543850,-0.18299071,0.02911900
1761620026323,0.38783090,-0.08629003,0.28403461,-0.00279874,0.00702012,-0.00112239,0.97465277,0.12542479,-0.18295631,0.02911351
1761620026334,-0.08435276,0.16871540,-0.02148310,-0.00203369,-0.00198352,-0.00614939,0.97465317,0.12541350,-0.18296732,0.02907938
1761620026345,-0.00911160,0.04210951,-0.05871920,-0.00180993,0.00261373,-0.00358378,0.97465770,0.12540364,-0.18295307,0.02905984
1761620026356,-0.17691837,0.05416926,-0.03809706,-0.00761205,0.00395162,0.00800231,0.97466607,0.12536063,-0.18293075,0.02910506
1761620026368,-0.07517462,0.11739254,-0.17638596,-0.00461519,-0.01183322,-0.00027333,0.97465676,0.12533409,-0.18299879,0.02910349
1761620026379,0.01053057,0.06855445,-0.03309606,-0.00266893,-0.01621118,-0.01051973,0.97464422,0.12532008,-0.18308389,0.02904826
1761620026390,0.01672013,-0.09094058,0.14092680,-0.00754507,-0.02045523,-0.00803330,0.97462881,0.12527594,-0.18320356,0.02900126
1761620026402,0.04992526,-0.05623490,-0.04279308,0.00889935,-0.02314129,-0.00608692,0.97459692,0.12532934,-0.18334241,0.02896474
1761620026413,0.02125817,0.03390576,-0.08830318,-0.00057355,-0.03527772,0.00870349,0.97456007,0.12532624,-0.18353291,0.02901174
1761620026423,0.07902873,-0.00455150,0.17634510,-0.01820004,-0.05754061,0.01365735,0.97451372,0.12523160,-0.18383212,0.02908276
1761620026434,0.09065006,0.03918959,-0.02590002,0.04430223,-0.03438641,-0.00575201,0.97444702,0.12547748,-0.18402296,0.02905083
1761620026445,-0.11203631,-0.08929620,-0.06143214,0.03306150,-0.03841774,0.00685459,0.97438371,0.12565601,-0.18423042,0.02908785
1761620026456,-0.09997803,-0.07542026,-0.01763053,-0.00261524,-0.04236740,-0.00327897,0.97434164,0.12564149,-0.18446556,0.02906965
1761620026468,0.00038310,-0.20722329,-0.04507812,-0.02042071,-0.03804281,0.01581618,0.97431236,0.12552305,-0.18468620,0.02916138
1761620026479,0.01240530,-0.09185913,-0.06428201,-0.00651475,-0.02282530,0.02444282,0.97428956,0.12548787,-0.18480946,0.02929338
1761620026490,-0.11786007,-0.00971230,-0.01102477,0.00704877,-0.00900604,0.01109662,0.97427245,0.12552876,-0.18486170,0.02935774
1761620026502,-0.00795369,0.05807247,-0.06595178,-0.00251267,-0.01962337,0.01256187,0.97424996,0.12551381,-0.18497846,0.02943248
1761620026513,0.13585757,0.20095598,-0.10481895,0.01261217,0.00685923,-0.02013250,0.97425145,0.12558002,-0.18494244,0.02932678
1761620026524,0.17576637,-0.02885355,-0.06425867,0.03190338,-0.02113174,-0.01887194,0.97420760,0.12576506,-0.18506501,0.02921733
1761620026535,0.00053381,-0.00456032,0.17242040,-0.01173514,-0.00151122,-0.04224062,0.97422141,0.12569993,-0.18507340,0.02898289
1761620026545,0.05301055,0.02117576,-0.11048875,-0.04106325,0.00241801,-0.06543588,0.97425986,0.12549461,-0.18506131,0.02865571
1761620026557,-0.34188617,0.04961732,-0.07074575,0.00565174,0.00365677,0.00325209,0.97425914,0.12552598,-0.18504101,0.02867376
1761620026569,-0.15885682,0.15553949,0.02412869,-0.05528203,0.03077623,0.00158022,0.97433788,0.12518876,-0.18485328,0.02868340
1761620026579,-0.14195677,-0.22397178,-0.04627666,-0.01183428,0.03690263,-0.02560537,0.97438423,0.12512959,-0.18466876,0.02855537
1761620026591,0.00397364,0.08063184,0.07417467,-0.02190069,0.01766739,-0.01487750,0.97442379,0.12499819,-0.18456276,0.02846611
1761620026602,-0.08549020,-0.03653055,-0.04109400,0.00337365,0.01505283,-0.00889430,0.97443905,0.12501742,-0.18447696,0.02841541
1761620026613,0.01696912,-0.02092095,-0.02872780,-0.00991502,0.00312925,0.00812090,0.97444792,0.12496338,-0.18445990,0.02845967
1761620026624,-0.13378534,0.14442594,0.23760390,-0.00625589,0.00881386,0.03840773,0.97445538,0.12492866,-0.18441099,0.02867283
1761620026635,-0.02179266,-0.13164726,0.16669473,0.00559312,0.00902567,0.03950765,0.97445445,0.12495830,-0.18436315,0.02888222
1761620026646,0.04847931,-0.05802925,-0.01933224,0.00809583,-0.01041903,0.05992919,0.97442807,0.12500283,-0.18442045,0.02921183
1761620026658,0.13598657,-0.11987552,-0.16936056,0.01316627,-0.00929098,0.00829356,0.97440625,0.12508051,-0.18447527,0.02926077
1761620026671,0.08933936,0.01668637,0.05302905,0.00743486,0.00286165,0.01356466,0.97440088,0.12512921,-0.18445653,0.02934961
1761620026681,-0.07147062,-0.09503518,-0.00915638,0.01905644,0.01056938,0.00952552,0.97439695,0.12523116,-0.18439998,0.02940058
1761620026691,-0.04670330,0.04905128,-0.19447826,0.00803198,0.00383050,0.01348114,0.97439337,0.12527132,-0.18438083,0.02946798
1761620026702,-0.03131990,-0.03256676,-0.03481840,-0.00100816,0.02850424,0.00355054,0.97442234,0.12526593,-0.18422833,0.02948698
1761620026713,0.14215840,0.11911861,0.13323130,0.00593525,0.05085779,0.02145001,0.97446700,0.12529827,-0.18395116,0.02960388
1761620026724,0.19067702,-0.06598811,0.09573620,0.01244476,0.01395001,-0.01257499,0.97447477,0.12536672,-0.18387443,0.02953472
1761620026736,-0.02223017,-0.06125766,0.07144055,0.00071223,0.01433707,-0.02439803,0.97449437,0.12537089,-0.18379056,0.02939199
1761620026747,0.11822409,0.09766750,-0.06022355,-0.00813045,-0.00252373,-0.02776083,0.97450210,0.12532617,-0.18380444,0.02923930
1761620026751,-0.03352378,0.93616781,-0.41156893,-0.06515755,0.00063472,-0.02124310,0.97452082,0.12519260,-0.18380314,0.02919576
1761620026786,-0.02229728,-0.04900658,0.03753344,-0.00439221,-0.00118873,0.00103545,0.97452624,0.12511551,-0.18382400,0.02921393
1761620026814,0.03271973,0.02460401,-0.01397317,-0.01919042,-0.00775785,0.00641106,0.97453767,0.12484301,-0.18393416,0.02930496
1761620026825,0.32935670,-0.39296235,-0.29902976,-0.05260053,-0.05884889,0.01354619,0.97451154,0.12455634,-0.18425489,0.02937879
1761620026846,-0.16152050,-0.00017871,0.14762648,0.00428467,-0.01743616,-0.00235610,0.97447171,0.12460154,-0.18443884,0.02935393
1761620026858,0.07970154,0.09387653,0.06644197,0.02509607,-0.01844834,-0.01318930,0.97443639,0.12474208,-0.18454215,0.02928007
1761620026869,-0.17978625,0.00239557,0.10325916,0.01063265,-0.00487894,-0.00909350,0.97442492,0.12480268,-0.18456996,0.02922824
1761620026880,0.11229209,-0.00574891,-0.05909420,0.01796108,-0.00101884,-0.01336871,0.97441309,0.12490416,-0.18457572,0.02915271
1761620026891,-0.05881647,0.01219128,0.08083713,-0.00201819,0.00031224,-0.00630985,0.97441585,0.12489316,-0.18457402,0.02911832
1761620026902,-0.11504491,-0.02062877,-0.18253701,0.01560164,-0.00083905,-0.00652480,0.97440475,0.12498131,-0.18457876,0.02908145
1761620026914,0.10299476,0.06631586,0.05948499,0.00260580,0.00671758,-0.00549822,0.97441104,0.12499617,-0.18454047,0.02905011
1761620026925,0.07534183,-0.10704682,0.11923664,0.00114723,0.00178139,-0.00645168,0.97441320,0.12500265,-0.18453040,0.02901366
1761620026937,0.15362013,0.05875862,-0.00553378,-0.00338764,0.00467271,0.00437527,0.97442039,0.12498215,-0.18450213,0.02904013
1761620026948,-0.03752812,-0.01162670,0.11447829,-0.00279309,0.00354229,0.00287906,0.97442539,0.12496735,-0.18448336,0.02905539
1761620026958,-0.10610042,0.30159353,-0.32597436,0.00522836,-0.00480711,0.00660992,0.97441641,0.12499375,-0.18450763,0.02908877
1761620026970,-0.08697541,0.04281168,0.00317197,0.00137713,-0.00439478,0.00700461,0.97440898,0.12500215,-0.18453444,0.02913150
1761620026981,0.15119305,0.04275342,-0.02948801,0.01299589,0.00252392,0.01335624,0.97440040,0.12507233,-0.18452081,0.02920362
1761620026992,-0.12263298,0.05398406,0.00118917,-0.00438274,-0.01483571,-0.00270474,0.97438859,0.12504844,-0.18460167,0.02918888
1761620027003,0.08289758,-0.11954277,-0.00575234,-0.01554653,-0.01218306,0.00394093,0.97438606,0.12495750,-0.18467294,0.02921194
1761620027014,-0.04310658,0.01484850,-0.05290353,-0.00834242,-0.00778209,-0.01871186,0.97438686,0.12491412,-0.18471340,0.02911464
1761620027025,0.02851341,0.07008463,0.12190285,0.00382792,0.00014185,-0.01908229,0.97438743,0.12493460,-0.18471265,0.02901255
1761620027036,0.08927576,0.02209105,0.11211032,0.00163772,-0.01063316,-0.00012160,0.97437520,0.12494360,-0.18477113,0.02901188
1761620027048,-0.06803358,-0.04432719,-0.03010336,0.01472082,-0.00328104,-0.01874976,0.97436348,0.12503193,-0.18479081,0.02889938
1761620027058,0.07276836,-0.22418174,-0.01471720,0.00599603,0.00000044,-0.02460217,0.97436326,0.12506431,-0.18479081,0.02876653
1761620027069,-0.05723354,-0.09939218,-0.16352440,-0.00386276,-0.02320790,-0.01969217,0.97434529,0.12504345,-0.18491613,0.02866019
1761620027081,0.05006774,-0.07912985,0.29072485,-0.02374889,-0.00427349,0.00087050,0.97435778,0.12490927,-0.18494028,0.02866511
1761620027092,-0.01901701,-0.04953476,-0.14652032,-0.00362925,-0.00814792,-0.00606344,0.97435258,0.12488840,-0.18498713,0.02863024
1761620027104,-0.03753216,0.06101865,0.01429797,0.00552215,0.00124387,-0.01090425,0.97435170,0.12492043,-0.18497992,0.02856700
1761620027114,0.12264330,0.13362129,-0.08176220,0.00051273,-0.01268178,0.00881984,0.97433695,0.12492320,-0.18504840,0.02861462
1761620027125,0.26146194,-0.00892509,0.16582394,0.03426664,-0.00945094,-0.00148676,0.97430405,0.12510652,-0.18509896,0.02860667
1761620027137,-0.16400269,0.09378945,0.07908692,0.01741563,-0.03358454,-0.07077939,0.97426602,0.12520753,-0.18529375,0.02819615
1761620027148,0.02176160,-0.09193723,0.06148917,-0.02872872,-0.00799163,-0.03118222,0.97428351,0.12504378,-0.18533930,0.02801841
1761620027158,-0.21038105,0.09348571,-0.27961439,-0.03331478,-0.01124410,-0.01633843,0.97429692,0.12487221,-0.18539721,0.02793427
1761620027170,-0.01352761,0.04624118,-0.07981291,-0.00432436,-0.00883485,0.01138047,0.97428841,0.12484691,-0.18544889,0.02800084
1761620027181,-0.01865595,0.01292520,-0.00635096,-0.01746797,-0.00299627,-0.00778151,0.97429890,0.12474996,-0.18546552,0.02795766
1761620027192,-0.10842841,0.03757759,0.14981390,-0.02531569,-0.00802813,0.00981449,0.97430634,0.12461832,-0.18550727,0.02800869
1761620027203,0.05881577,0.04521148,0.13314338,-0.03749343,-0.01272721,0.00660056,0.97431864,0.12440648,-0.18557918,0.02804599
1761620027214,0.07195346,-0.07523496,-0.07468094,0.00751311,-0.02054762,-0.00884533,0.97429231,0.12444931,-0.18569630,0.02799557
1761620027225,-0.08636472,-0.02742818,0.01751737,-0.00826292,-0.04546769,0.00215155,0.97424969,0.12440345,-0.18594864,0.02800751
1761620027237,0.04212060,-0.11234753,-0.12111355,0.00643214,-0.02146236,0.02355824,0.97421806,0.12443979,-0.18606991,0.02814061
1761620027247,-0.04680883,-0.01522209,0.09818798,-0.00055691,-0.00777109,0.02856570,0.97420608,0.12443681,-0.18611148,0.02829344
1761620027259,-0.05502443,-0.00328236,0.07303581,0.00204774,-0.00544082,0.01441719,0.97419575,0.12444910,-0.18614413,0.02837994
1761620027270,-0.06267660,0.06764115,-0.06555290,0.00686017,-0.02209223,0.00183329,0.97416767,0.12448649,-0.18626453,0.02838993
1761620027303,-0.00361961,0.00252594,-0.00558818,0.00780747,-0.00025439,0.00030848,0.97415014,0.12461609,-0.18626875,0.02839505
1761620027324,-0.00209834,-0.09935436,0.14953413,0.01852544,0.00175548,-0.01991062,0.97413528,0.12480505,-0.18625085,0.02819197
1761620027352,0.05412158,0.02722058,-0.10833655,0.01565045,0.00585286,-0.01306314,0.97412804,0.12502650,-0.18616803,0.02800712
1761620027382,0.00071539,0.01649196,-0.03147718,0.00129666,0.00339123,-0.03588364,0.97415029,0.12504569,-0.18611784,0.02747604
1761620027394,-0.03785538,0.37190138,0.09033461,0.00503934,-0.00683537,-0.02718751,0.97414328,0.12507543,-0.18615817,0.02731564
1761620027415,-0.09127428,-0.04802259,-0.00831417,-0.00275081,-0.00990000,0.00146627,0.97412661,0.12504641,-0.18626261,0.02733111
1761620027437,-0.18496123,0.01718278,0.18681199,-0.00533190,-0.00944178,0.01249065,0.97410989,0.12498589,-0.18636978,0.02747288
1761620027448,-0.02231262,-0.11231673,-0.09391810,0.00771636,-0.01056714,0.01966082,0.97409044,0.12502794,-0.18642737,0.02758003
1761620027470,0.16713626,-0.04422875,-0.12342646,0.00236858,0.00537513,0.00713380,0.97409621,0.12505412,-0.18636797,0.02765886
1761620027481,-0.14133311,-0.07970630,0.04693181,0.00686312,0.01566972,0.00477196,0.97410671,0.12509049,-0.18628492,0.02768415
1761620027494,-0.03581543,0.00138841,-0.05644331,0.00291236,-0.00187905,0.00504469,0.97410119,0.12510884,-0.18629676,0.02771593
1761620027504,0.11047440,0.00869396,0.11801900,0.01296033,0.01126990,0.00350930,0.97410325,0.12517753,-0.18623703,0.02773453
1761620027515,-0.07167800,-0.02679560,0.11896764,0.00505659,0.00841361,0.00201529,0.97410821,0.12520534,-0.18619076,0.02774561
1761620027526,0.14228417,0.01666669,0.13117304,-0.00309096,0.00943707,0.00901214,0.97411851,0.12518896,-0.18614074,0.02779338
1761620027537,-0.00462602,-0.06472388,-0.13401850,0.01049095,0.00680600,0.01089997,0.97411645,0.12524928,-0.18610160,0.02785605
1761620027549,-0.15171139,0.06712669,0.05000761,0.00084790,0.00747096,0.00177661,0.97412361,0.12525407,-0.18605939,0.02786609
1761620027561,0.12191031,0.04572345,-0.24132571,0.00218771,0.00129620,0.00907297,0.97412182,0.12526742,-0.18605149,0.02792143
1761620027571,-0.06675657,0.04149260,-0.07309328,0.00121919,0.00007371,0.01511408,0.97411885,0.12527369,-0.18605111,0.02799927
1761620027582,0.04659170,0.12378505,-0.00120237,-0.00494848,0.00844162,0.00678669,0.97413024,0.12524623,-0.18600426,0.02803694
1761620027594,-0.08666347,-0.10515221,0.08935488,-0.00312888,0.00422644,0.01201499,0.97413512,0.12522855,-0.18598038,0.02810482
1761620027604,0.15839935,-0.03907890,-0.02859698,0.00408738,0.01358039,0.01160100,0.97414464,0.12525103,-0.18590568,0.02816863
1761620027615,-0.15679037,0.11149226,0.03703709,-0.00431575,0.00648507,0.00876916,0.97415280,0.12522816,-0.18587131,0.02821510
1761620027627,-0.01470960,-0.05980373,0.08986230,0.00503320,0.01931983,0.00666703,0.97416930,0.12525735,-0.18575926,0.02825377
1761620027637,-0.08570934,0.02422029,-0.06597364,0.01103734,0.00566875,0.01021751,0.97416587,0.12531695,-0.18572865,0.02830895
1761620027648,0.13899574,0.01251984,0.06540976,0.01390637,0.01565371,0.00572903,0.97417142,0.12539205,-0.18564412,0.02833988
1761620027661,0.08009224,0.05140364,-0.08566903,0.00752306,0.01457637,-0.00450965,0.97418325,0.12543794,-0.18555520,0.02831238
1761620027671,-0.02342272,-0.01245977,-0.16290631,0.01262239,0.00363270,-0.00352941,0.97417872,0.12550673,-0.18553540,0.02829314
1761620027683,-0.04707317,-0.10475193,0.03151915,0.01276122,0.00767774,-0.01052537,0.97417941,0.12557883,-0.18549202,0.02823367
1761620027694,0.08932094,-0.01790785,0.03068695,-0.00561332,0.02623947,-0.00117375,0.97421133,0.12554768,-0.18534640,0.02822716
1761620027705,-0.11756079,-0.09531788,-0.17943489,0.01446161,0.00585122,0.01115360,0.97420553,0.12562577,-0.18531480,0.02828739
1761620027716,0.02178705,-0.06929857,0.05302391,0.00020982,0.00510505,0.01460869,0.97420854,0.12562699,-0.18528519,0.02837212
1761620027727,-0.12160779,-0.45577768,0.32926296,-0.00708695,0.01494319,0.00788240,0.97422723,0.12558943,-0.18520599,0.02841389
1761620027737,-0.04243834,-0.04164262,-0.13580268,-0.01617829,0.00825728,0.01717832,0.97424393,0.12550368,-0.18516223,0.02850494
1761620027749,0.05068127,0.12608469,-0.03503560,-0.02584709,-0.00094363,0.02076690,0.97425866,0.12535377,-0.18516770,0.02862539
1761620027760,0.14157693,0.25036121,-0.13132873,-0.01252847,0.02010497,0.03070202,0.97428446,0.12528236,-0.18505310,0.02880039
1761620027771,0.04819667,-0.01897475,-0.18504077,-0.01320149,0.00106146,0.02982780,0.97428994,0.12521107,-0.18504737,0.02896146
1761620027819,0.02990131,0.04728453,0.04805904,0.00216817,0.00433505,0.00314425,0.97430063,0.12526245,-0.18494463,0.02903598
1761620027829,-0.66679037,0.26062189,-1.74762580,-0.01392587,0.00934103,-0.11309317,0.97433822,0.12518656,-0.18489372,0.02841962
1761620027860,0.14685993,-0.10506270,0.53682782,-0.03199100,0.01801675,-0.00039355,0.97445380,0.12469550,-0.18461716,0.02841358
1761620027882,0.16448680,-0.05982888,0.14179189,-0.03504450,-0.01942073,-0.01950758,0.97446879,0.12431001,-0.18483079,0.02819900
1761620027894,0.07332190,0.19014242,0.01494787,0.02021854,-0.03043320,0.00008138,0.97442031,0.12442727,-0.18500730,0.02819947
1761620027905,0.08075242,0.09137488,-0.05768918,0.03676706,-0.01336894,0.02427497,0.97437464,0.12463868,-0.18508418,0.02833905
1761620027917,-0.03760968,-0.15369379,0.09391091,0.01818885,-0.00917971,0.01900535,0.97434666,0.12474873,-0.18513971,0.02845403
1761620027928,-0.07369215,-0.12682231,0.12768189,-0.00142740,-0.00053107,0.00856405,0.97434572,0.12474080,-0.18514266,0.02850156
1761620027939,-0.09371932,-0.06419249,-0.01287194,-0.00782216,-0.00155534,-0.00903326,0.97435101,0.12469817,-0.18515114,0.02845233
1761620027949,0.14434939,-0.12311886,-0.15455591,0.00415975,0.00491323,-0.01688607,0.97435552,0.12471918,-0.18512632,0.02836706
1761620027961,-0.03790762,-0.02459715,-0.05709877,-0.00123196,-0.00644473,-0.00586817,0.97435023,0.12471191,-0.18516435,0.02833243
1761620027972,0.01015258,0.09689616,0.05984677,-0.01862160,0.00004804,-0.01792553,0.97436625,0.12460949,-0.18516408,0.02823384
1761620027983,0.01744023,-0.05916636,-0.01590783,-0.01090229,0.00541144,-0.02621200,0.97438358,0.12455008,-0.18513459,0.02809099
1761620027994,0.02797846,0.13184362,-0.10836329,0.01376534,0.00794208,0.00093499,0.97438203,0.12462647,-0.18509051,0.02809618
1761620028006,0.05046669,0.03180758,0.06032530,0.00583195,0.00480841,-0.00664036,0.97438420,0.12466176,-0.18506142,0.02805600
1761620028017,0.01983503,0.15100165,0.01127744,-0.01000246,-0.01490181,-0.03601422,0.97438138,0.12460724,-0.18514264,0.02785973
1761620028028,-0.47497192,0.17353652,0.07097668,-0.00963795,-0.01674341,-0.02377075,0.97437489,0.12455809,-0.18522803,0.02773849
1761620028038,0.06685262,0.05729366,-0.08368602,-0.00660624,-0.02101410,0.00477079,0.97435714,0.12452242,-0.18534150,0.02776426
1761620028050,0.00607606,0.00227018,0.00280434,-0.02083259,-0.01462908,0.00246496,0.97435604,0.12440263,-0.18542562,0.02777843
1761620028061,0.23987496,0.02634341,0.10828641,-0.01281567,-0.01164904,-0.00045803,0.97435291,0.12433214,-0.18548969,0.02777591
1761620028072,0.05608291,-0.05281537,-0.13606557,0.00804011,-0.01471138,0.00157453,0.97433103,0.12437757,-0.18557281,0.02778481
1761620028083,0.00727221,0.13220837,0.09767732,-0.00489378,-0.01375940,0.00983677,0.97431907,0.12435188,-0.18564505,0.02783645
1761620028095,-0.13554749,-0.15667638,-0.05409493,0.01242637,-0.01041926,-0.00279292,0.97429795,0.12442706,-0.18570808,0.02781955
1761620028106,-0.00262272,-0.05089724,-0.00383813,0.00159020,-0.00718047,0.00498200,0.97428843,0.12443588,-0.18574794,0.02784720
1761620028117,-0.08514258,-0.05539105,0.07740235,0.00034483,0.00859578,-0.00259832,0.97429769,0.12443780,-0.18570023,0.02783278
1761620028127,0.05868046,0.04233000,0.10567158,0.00056659,0.01316725,0.00120316,0.97431031,0.12444077,-0.18563110,0.02783910
1761620028138,-0.01672579,0.00305689,-0.02331474,0.00856518,0.00810755,0.00145912,0.97431259,0.12448874,-0.18558570,0.02784727
1761620028150,0.03041053,0.11261401,0.00000000,0.00670463,0.00546640,-0.00412635,0.97431429,0.12452628,-0.18555509,0.02782416
1761620028162,-0.15251568,-0.12748498,0.03595799,0.01986071,0.00793661,-0.00193355,0.97430855,0.12464346,-0.18550826,0.02781275
1761620028173,0.05447691,-0.01592408,-0.06840708,0.01688195,0.01664527,-0.00271735,0.97431473,0.12473969,-0.18541338,0.02779727
1761620028184,-0.06202148,-0.02457518,-0.02907674,0.01972408,0.00144563,0.00059902,0.97430203,0.12485014,-0.18540529,0.02780062
1761620028195,-0.04168051,-0.13417335,0.10458019,0.01869806,0.00578988,-0.00399348,0.97429577,0.12494924,-0.18537460,0.02777945
1761620028206,0.00477070,0.02539639,0.07617969,0.01234063,0.00477032,-0.00071872,0.97429220,0.12501650,-0.18534860,0.02777554
1761620028217,0.08721658,0.17558973,-0.04323127,-0.00766597,0.00356214,0.00382425,0.97430136,0.12497127,-0.18532759,0.02779810
1761620028228,-0.38303513,0.00221295,0.29462108,0.00552256,0.00781361,0.00508108,0.97430477,0.12500109,-0.18528539,0.02782554
1761620028239,0.06837718,0.08489779,0.01174304,0.01379176,-0.00215547,0.02491518,0.97428900,0.12507626,-0.18529714,0.02796133
1761620028250,-0.04065535,0.10446112,0.10912751,0.00240173,-0.00324483,0.01913012,0.97428111,0.12508910,-0.18531450,0.02806367
1761620028261,0.23895005,-0.02352287,-0.45132642,0.01073339,-0.00254654,0.01275625,0.97426862,0.12514921,-0.18532876,0.02813511
1761620028273,0.02108677,-0.01906906,0.02289065,-0.01128339,-0.01264030,0.01403020,0.97426065,0.12508320,-0.18540271,0.02821718
1761620028283,0.06730447,-0.04164032,0.16534156,0.00308134,-0.00181106,0.01712183,0.97425428,0.12509907,-0.18541203,0.02830536
1761620028295,-0.00272636,0.03447013,-0.15919264,0.00959650,-0.00562081,0.00741754,0.97423943,0.12515569,-0.18544520,0.02834913
1761620028306,-0.11906497,-0.01207643,0.08298467,0.01534754,-0.00184042,0.00922060,0.97422492,0.12524164,-0.18545550,0.02840076
1761620028319,-0.00620236,-0.04959808,0.04341649,0.01645689,0.00692560,-0.00078033,0.97422011,0.12534367,-0.18541256,0.02839592
1761620028329,0.04675414,-0.00624312,-0.03990224,0.01583334,0.00395634,0.00533426,0.97421240,0.12542838,-0.18539140,0.02842446
1761620028339,0.81063279,-0.19585059,-0.13441937,0.01773246,0.01039681,-0.00207784,0.97421114,0.12551970,-0.18533785,0.02841376
1761620028350,-0.07239784,-0.01206712,-0.03771857,0.01410710,0.01154526,-0.00802366,0.97421447,0.12559659,-0.18527493,0.02837003
1761620028361,0.00325387,-0.07111748,-0.00057847,0.00909141,0.00044034,-0.00903983,0.97420993,0.12564659,-0.18527251,0.02832031
1761620028365,-2.00689040,-0.21214504,1.72057403,-0.00266546,0.03215312,-0.01474383,0.97422233,0.12564179,-0.18521463,0.02829377
1761620028402,0.02475315,0.04492159,-0.16875090,0.00197404,-0.00083913,-0.00202399,0.97421566,0.12567880,-0.18523037,0.02825582
1761620028430,-0.00679574,-0.05482411,0.03840648,0.00239002,-0.00554396,-0.00190962,0.97419736,0.12571226,-0.18530798,0.02822909
1761620028440,-1.26027403,-0.03279645,1.91942467,-0.01739697,-0.03916556,0.01497696,0.97416999,0.12562789,-0.18549794,0.02830173
1761620028462,0.50726281,0.06261367,-0.70871813,-0.02836835,-0.01323504,0.01589571,0.97417722,0.12532151,-0.18564088,0.02847340
1761620028473,0.09798950,-0.06773735,-0.07658949,-0.00520522,0.00268286,0.03142338,0.97417867,0.12529236,-0.18562585,0.02864937
1761620028495,0.01491875,0.09124982,-0.09908305,0.01086210,0.00125909,0.01198066,0.97416205,0.12541184,-0.18561200,0.02878116
1761620028506,0.09344574,0.32467426,0.02941289,0.03677531,0.00742596,0.00428651,0.97414290,0.12561595,-0.18557079,0.02880495
1761620028518,0.32703103,-0.40338776,-0.27149746,0.03072442,-0.01315378,-0.02134333,0.97410844,0.12579722,-0.18564839,0.02867902
1761620028529,0.20697338,-0.40159109,0.05732005,-0.00939928,-0.01270380,-0.04516906,0.97410906,0.12574694,-0.18571636,0.02843737
1761620028539,-0.03820664,-0.02463612,0.00030565,-0.01561145,-0.00131036,-0.02113510,0.97412191,0.12566263,-0.18572344,0.02832324
1761620028551,-0.30339155,0.35181514,0.18061437,-0.02827746,-0.00691932,-0.01576507,0.97413834,0.12549580,-0.18576426,0.02823022
1761620028562,-0.02827032,0.17031482,0.08065356,-0.02362834,-0.01187432,-0.00721575,0.97414366,0.12536820,-0.18582838,0.02819126
1761620028573,-0.05934180,0.10935769,-0.11481348,0.00716443,-0.01581028,-0.00439087,0.97412251,0.12540797,-0.18591613,0.02816689
1761620028584,-0.03216238,0.03024685,0.23684427,0.01601022,-0.00930132,0.00816300,0.97409949,0.12549842,-0.18596868,0.02821301
1761620028595,0.09198953,0.07961623,-0.03452271,0.01227260,-0.01892983,-0.00037620,0.97407123,0.12556531,-0.18607185,0.02821096
1761620028607,-0.00657791,-0.13561372,-0.08619803,0.01874691,-0.03278848,0.00916169,0.97402066,0.12567123,-0.18625710,0.02826272
1761620028618,-0.27065399,0.11288745,0.11750946,0.01326326,-0.02675070,0.01950586,0.97397739,0.12574882,-0.18641359,0.02837683
1761620028630,-0.16023456,0.11473317,-0.06966720,0.01964415,-0.00665853,0.03135360,0.97394973,0.12586374,-0.18645255,0.02856025
1761620028641,-0.11990819,-0.03352419,-0.04419088,-0.00476241,-0.01891867,0.00875865,0.97393178,0.12583754,-0.18655660,0.02860843
1761620028652,0.15832298,-0.29880165,0.21447487,0.00480886,-0.00422633,0.00655254,0.97392277,0.12586423,-0.18658006,0.02864479
1761620028662,0.32063966,-0.28312589,-0.21123306,0.03150740,-0.03065740,-0.00215561,0.97387284,0.12602335,-0.18673488,0.02863391
1761620028674,-0.04743316,0.04686950,-0.01872362,0.02673429,-0.00864289,-0.00875065,0.97384293,0.12618776,-0.18678803,0.02858009
1761620028685,0.05106211,-0.06912262,0.03900766,0.00066023,-0.00539404,0.01415406,0.97383471,0.12619129,-0.18681689,0.02865581
1761620028696,0.00000000,0.10151896,0.04997856,-0.00103727,0.00895508,0.00512180,0.97384382,0.12618574,-0.18676898,0.02868322
1761620028708,-0.04536885,0.09354811,-0.11326739,0.01375935,0.00093293,0.00641261,0.97383306,0.12626830,-0.18676338,0.02872169
1761620028718,0.09623244,0.04862306,-0.03676296,0.00921434,0.00908663,-0.00187584,0.97383622,0.12631668,-0.18671568,0.02871184
1761620028729,-0.15570193,0.21111668,-0.24220300,0.00858205,-0.00424467,-0.03653009,0.97383174,0.12636173,-0.18673796,0.02852006
1761620028741,-0.01743862,0.01579466,0.04359654,-0.00375469,-0.00050740,-0.03004181,0.97383965,0.12633826,-0.18674113,0.02833230
1761620028752,0.24658594,0.08537396,0.03210754,-0.02244888,-0.00602636,-0.00272909,0.97384965,0.12621592,-0.18677398,0.02831742
1761620028763,-0.10520036,-0.03098437,0.03488509,-0.01197327,-0.01279004,-0.01959404,0.97384789,0.12615246,-0.18684176,0.02821358
1761620028774,0.01796708,0.06884078,-0.09356974,-0.00673921,-0.00062139,-0.01099670,0.97385394,0.12611438,-0.18684527,0.02815145
1761620028785,-0.06080544,0.04279600,0.06307854,-0.01571312,-0.00173202,0.00071497,0.97386311,0.12602875,-0.18685471,0.02815534
1761620028796,0.02130969,-0.03848035,-0.13553236,-0.00412528,-0.01388930,0.00414456,0.97385038,0.12600544,-0.18693319,0.02817876
1761620028807,-0.19868319,-0.05918940,0.22077488,-0.01317644,-0.01187096,0.01020512,0.97384564,0.12593363,-0.18699788,0.02823438
1761620028818,-0.04439992,-0.10342229,-0.13113642,-0.00026039,-0.02259052,0.01177087,0.97382078,0.12593223,-0.18711874,0.02829735
1761620028829,-0.28982517,0.18897830,0.23578299,-0.01373830,-0.00260833,0.01491608,0.97382557,0.12585393,-0.18713361,0.02838237
1761620028841,-0.10670082,-0.09537417,-0.10303412,-0.00886868,-0.00637920,0.01701233,0.97382220,0.12580204,-0.18717093,0.02848189
1761620028852,-0.10912993,-0.02209123,0.02330800,0.00863088,0.00023978,0.01648858,0.97381366,0.12584951,-0.18716961,0.02857258
1761620028862,0.33505554,-0.28917439,0.06423260,0.01278632,0.01284647,0.01602460,0.97381544,0.12591536,-0.18710345,0.02865511
1761620028874,0.00501528,-0.01276927,-0.14544305,0.01927283,0.00265643,0.01516644,0.97380086,0.12603100,-0.18708751,0.02874611
1761620028877,-3.77599456,-0.98630388,1.43398479,0.11240608,0.05255732,0.03187011,0.97379248,0.12620523,-0.18700605,0.02879551
1761620028917,0.36378992,0.07587431,-0.11258048,0.00541656,0.00582024,0.00146525,0.97379990,0.12631329,-0.18688993,0.02882474
1761620028946,-0.12570804,-0.07743257,-0.00575212,0.01934015,0.02123818,0.00526016,0.97382020,0.12659276,-0.18658304,0.02890075
1761620028976,0.06665087,-0.01332820,-0.04058891,0.01369129,0.01218106,0.01507205,0.97382174,0.12679813,-0.18640033,0.02912683
1761620028986,-0.35603841,0.55283308,-0.03814697,-0.00749660,0.01009466,0.01678135,0.97383377,0.12676064,-0.18634985,0.02921073
1761620029009,0.18778504,-0.10378545,0.03299543,-0.00349363,-0.01012847,-0.00173920,0.97381773,0.12672151,-0.18646329,0.02919125
1761620029030,-0.00512431,0.10105948,-0.04490039,0.00459154,-0.01304046,0.00170223,0.97378343,0.12677156,-0.18660543,0.02920981
1761620029042,-0.36908243,0.41884607,0.03480811,-0.00387641,-0.01194959,0.01614351,0.97377060,0.12674966,-0.18667295,0.02930102
1761620029053,0.06304130,-0.15600536,-0.01614719,-0.00708825,0.00055816,0.00144765,0.97377612,0.12670997,-0.18666982,0.02930913
1761620029065,0.28020359,-0.57784081,-0.06682362,-0.00453273,-0.00132831,0.00450163,0.97377728,0.12668368,-0.18667753,0.02933524
1761620029075,0.09529526,-0.11623801,0.03439651,-0.00549170,0.00452603,0.00441093,0.97378510,0.12665402,-0.18665309,0.02935906
1761620029087,0.05341152,0.00366479,-0.08592288,-0.00771605,-0.00471153,-0.00969163,0.97378740,0.12660888,-0.18668065,0.02930236
1761620029098,-0.15635220,-0.00576806,0.07854660,-0.00507493,-0.00426387,-0.01654919,0.97378927,0.12658097,-0.18670410,0.02921134
1761620029120,0.06501082,0.05260496,0.03118899,-0.00138872,-0.00395696,-0.00594439,0.97378492,0.12656590,-0.18674703,0.02914684
1761620029131,0.19489722,-0.01559977,-0.42408125,-0.01534203,0.00319977,-0.01923924,0.97380242,0.12648152,-0.18672943,0.02904103
1761620029143,0.03387136,0.18364630,-0.02084392,-0.00354662,0.00001463,0.00499499,0.97380433,0.12646006,-0.18672935,0.02907125
1761620029145,5.95074882,-0.88114104,-18.82312941,-0.12925505,0.07517286,0.06736625,0.97382913,0.12635020,-0.18666545,0.02912851
1761620029166,-0.60671195,-0.00025988,1.70937783,-0.00948178,0.00430446,0.00137498,0.97385037,0.12625016,-0.18662004,0.02914301
1761620029176,-0.20510300,-0.17923384,-0.26535903,-0.02138554,0.00699355,0.01104488,0.97387078,0.12613468,-0.18658227,0.02920266
1761620029199,0.09739647,0.09610966,0.15654463,-0.01303689,0.01153342,0.01844268,0.97390804,0.12598932,-0.18645367,0.02940829
1761620029209,-0.64968899,0.20613826,-0.88223335,0.03241408,0.01944742,0.03547553,0.97389991,0.12615949,-0.18635158,0.02959454
1761620029221,0.53217861,0.19622789,0.57092800,0.02786899,0.01634395,0.00908639,0.97389526,0.12632950,-0.18625188,0.02964997
1761620029232,-0.10567245,0.25069189,-0.11463813,0.05115974,-0.01598712,-0.02443346,0.97385002,0.12658785,-0.18633261,0.02952658
1761620029243,0.10360687,-0.09022689,0.13717375,0.02415448,-0.01799858,-0.07383684,0.97382514,0.12672553,-0.18643520,0.02910571
1761620029255,0.03485414,-0.16060579,-0.03611117,-0.00678407,-0.02058440,-0.01234480,0.97380886,0.12668449,-0.18655974,0.02903102
1761620029265,-0.18880922,0.06790517,-0.19352508,0.00945519,-0.01490118,-0.00487503,0.97379015,0.12672940,-0.18663052,0.02900786
1761620029277,0.03264391,-0.11793372,0.14042277,-0.00053618,-0.01269950,-0.00685606,0.97377697,0.12672613,-0.18670799,0.02896604
1761620029287,-0.08210165,-0.11533349,-0.01214179,-0.01016736,-0.00608057,0.01137642,0.97377602,0.12667326,-0.18673961,0.02902520
1761620029299,-0.01603378,-0.13714638,0.00776636,-0.00096775,-0.01927225,0.01567645,0.97375159,0.12666741,-0.18685620,0.02912004
1761620029310,-0.13389794,0.00552695,0.09851114,-0.01794982,-0.02017269,0.02292074,0.97373991,0.12657317,-0.18696211,0.02924038
1761620029312,-6.58016356,0.38110311,-2.76262798,-0.04380259,-0.09384451,0.07554130,0.97372238,0.12652061,-0.18707472,0.02933103
1761620029343,0.62393602,-0.06122734,0.29284361,-0.00070096,-0.00712315,0.00591579,0.97369973,0.12650971,-0.18718549,0.02942302
1761620029355,-0.70597868,-0.34102419,-0.16781151,-0.00514667,0.02734385,0.08037235,0.97371954,0.12648037,-0.18702963,0.02988114
1761620029366,0.13713832,0.10490362,-0.05591802,0.00653472,0.02455492,0.02534921,0.97373729,0.12651794,-0.18688844,0.03002690
1761620029376,-0.06468400,-0.14693841,-0.14014866,0.01636328,0.02594758,0.01981229,0.97374849,0.12659976,-0.18675870,0.03012596
1761620029387,0.10034124,0.08298697,0.15829696,0.01631202,0.02118488,-0.00584404,0.97375962,0.12668540,-0.18664748,0.03009528
1761620029427,0.14560414,0.07388084,0.04975612,-0.00236615,0.00285737,0.00269240,0.97377530,0.12663737,-0.18658947,0.03014993
1761620029456,-0.25388870,-0.00573339,0.08293525,-0.01771423,0.02821155,-0.00884081,0.97388932,0.12638405,-0.18618605,0.03002351
1761620029466,-0.14905829,0.11835486,0.13408709,-0.05078800,-0.01049851,-0.06363684,0.97392229,0.12612757,-0.18623907,0.02970214
1761620029489,0.39325129,0.11411962,-0.15236824,-0.00090557,-0.02033204,-0.00791796,0.97388238,0.12611734,-0.18646882,0.02961267
1761620029510,-0.04072440,0.01508745,0.00279406,-0.00255030,-0.02365443,0.00981453,0.97383512,0.12609056,-0.18671719,0.02971572
1761620029520,0.50421365,-0.22566716,-0.02012225,-0.04783679,-0.04262837,0.00790213,0.97382385,0.12584899,-0.18693246,0.02975563
1761620029543,-0.06550089,-0.07656210,-0.03892485,-0.00332113,-0.00875739,0.00222318,0.97380847,0.12581030,-0.18703449,0.02978153
1761620029554,-0.38908982,-0.04634105,0.16913897,-0.01295650,0.00866034,0.00961450,0.97382490,0.12574033,-0.18698772,0.02983345
1761620029565,-0.35050735,0.01920089,0.12813288,-0.01154693,0.02010392,0.00245855,0.97385364,0.12567740,-0.18687816,0.02984685
1761620029576,0.16341678,0.00291719,-0.08026223,0.00075636,0.01452662,0.01219875,0.97386637,0.12568156,-0.18679826,0.02991394
1761620029587,-0.06773255,0.00462638,0.02902824,0.01360374,0.02349816,0.00243302,0.97388135,0.12575774,-0.18666667,0.02992756
1761620029598,0.02280790,0.16630760,0.03041053,0.01017202,0.02564162,-0.00361304,0.97390213,0.12581470,-0.18652308,0.02990733
1761620029610,0.00690452,-0.05103939,-0.10313234,0.02177717,0.01311146,0.00202467,0.97389998,0.12594210,-0.18644637,0.02991917
1761620029621,-0.26415480,0.07924644,0.31321213,0.04328832,0.05332897,-0.01801029,0.97392780,0.12617586,-0.18615840,0.02982192
1761620029632,-0.21930665,-0.06522760,0.02193066,0.00765278,0.01928172,0.00751053,0.97394147,0.12621833,-0.18605138,0.02986360
1761620029643,0.05387414,-0.01699386,0.11902932,0.00896415,0.02811973,0.00954397,0.97396280,0.12626718,-0.18589813,0.02991562
1761620029654,0.26037275,0.23080792,-0.22542854,-0.01216168,0.01775169,0.01124740,0.97398866,0.12619908,-0.18579872,0.02997860
1761620029665,0.09021624,0.16855729,-0.12160192,0.00655545,0.01023183,0.01540889,0.97399211,0.12623513,-0.18574245,0.03006335
1761620029676,0.12783009,0.16402794,0.10721233,0.01764904,0.00461069,0.01824914,0.97398066,0.12633750,-0.18571571,0.03016920
1761620029687,0.08588233,-0.00943160,-0.06577064,0.03577322,-0.01433164,0.02545785,0.97393574,0.12653425,-0.18579453,0.03030921
1761620029699,0.02430712,-0.08059373,0.20464152,-0.00036489,0.00508090,0.02353700,0.97393734,0.12653219,-0.18576582,0.03044220
1761620029710,0.01443799,-0.07089958,-0.05259054,-0.00518613,-0.02934484,0.02671496,0.97390564,0.12650367,-0.18592722,0.03058913
1761620029720,0.17394055,0.00293908,0.25943419,0.01711158,-0.00573054,0.01818889,0.97388483,0.12659521,-0.18595788,0.03068644
1761620029732,0.29531169,-0.10435952,0.05349352,0.03256142,-0.02106183,0.03641466,0.97383119,0.12678081,-0.18607793,0.03089401
1761620029743,-0.12845635,0.15923523,-0.02405964,0.01399608,-0.00783506,0.00904835,0.97381135,0.12685779,-0.18612102,0.03094377
1761620029754,0.00044598,-0.23442524,-0.02110951,0.02470366,0.00452986,0.02958800,0.97379355,0.12699119,-0.18609656,0.03110355
