UnixTime(ms),Ax,Ay,Az,Gx,Gy,Gz,QuatW,QuatX,QuatY,QuatZ
1757984440418,0.00000000,0.00000000,0.00000000,0.00000000,0.00000000,0.00000000,0.27471185,-0.03309145,-0.95835705,0.07064084
1757984440443,1.33950380,0.01674039,-1.78260962,0.01021208,0.05629485,-0.01036556,0.27726265,-0.03296073,-0.95763647,0.07050816
1757984440490,-0.59176733,-0.12450439,0.79343726,-0.02512914,0.01339286,-0.04213313,0.27853387,-0.03355503,-0.95731973,0.06951171
1757984440517,0.56846306,0.12921891,-0.70212529,-0.01694914,0.04324473,0.01161578,0.28043773,-0.03378046,-0.95674458,0.06966620
1757984440666,-0.11718261,0.01427855,0.14531917,-0.00240818,0.01172982,-0.00052640,0.28338035,-0.03395927,-0.95587364,0.06962712
1757984440710,0.93576163,0.04072488,-1.82370484,0.04561017,0.15393837,0.03664715,0.29458412,-0.03294672,-0.95245620,0.07044068
1757984440734,-1.13026226,0.18237787,0.80575489,-0.04188851,0.08955556,0.12813332,0.29760037,-0.03344729,-0.95138602,0.07197188
1757984440778,-0.31227198,-0.00969941,1.03266028,0.03318557,0.01622344,0.03540217,0.29862649,-0.03272052,-0.95103072,0.07274718
1757984440810,-0.09316780,-0.06867950,-0.01856129,0.00596005,0.01200228,0.00781328,0.29921922,-0.03262487,-0.95083809,0.07287259
1757984440858,0.00498929,-0.03565122,0.22180904,0.00131142,0.00614944,0.01411920,0.29961187,-0.03259313,-0.95068927,0.07321427
1757984440894,0.03124187,-0.03398510,-0.26045729,0.01791029,0.00448284,0.04954792,0.29968255,-0.03227522,-0.95060970,0.07409375
1757984440931,0.02014578,0.06123755,0.11601081,0.00018937,0.00385666,0.02371448,0.29980137,-0.03227169,-0.95053777,0.07453602
1757984440943,3.43898678,0.55405933,-2.66413190,-0.03975581,0.04066986,0.06806031,0.30046278,-0.03251619,-0.95028765,0.07495459
1757984440973,-0.71671652,-0.20439898,1.03681130,0.03729109,0.01534790,0.10489193,0.30085138,-0.03196055,-0.95005897,0.07651748
1757984440998,-0.29265347,-0.30409466,0.19570748,-0.02772285,-0.00543238,0.01008016,0.30056317,-0.03231263,-0.95012796,0.07664550
1757984441019,-0.32010207,-0.05552601,0.14995135,-0.06762756,-0.00930397,-0.04011894,0.30028950,-0.03300919,-0.95022379,0.07623227
1757984441046,-0.14130307,0.03725344,0.16549386,-0.04391738,-0.00968240,-0.03260126,0.29991580,-0.03361086,-0.95035644,0.07578564
1757984441082,0.19507449,-0.03684363,-0.08113903,-0.06067846,-0.01536446,-0.01821990,0.29900904,-0.03468791,-0.95062916,0.07546223
1757984441114,0.06904082,-0.04250611,-0.11865072,-0.09498073,-0.01722976,-0.01300072,0.29798406,-0.03623609,-0.95091000,0.07525032
1757984441162,-0.05880559,0.05667277,0.06243286,-0.08024510,-0.01638504,-0.00356914,0.29653744,-0.03812185,-0.95129505,0.07516645
1757984441188,0.10653423,0.18240460,0.16540350,0.00039862,-0.03952798,0.07668742,0.29456966,-0.03811651,-0.95182473,0.07619406
1757984441225,-0.30591798,-0.11362595,0.07853225,-0.05684864,-0.02251176,-0.01828746,0.29316589,-0.03917105,-0.95224232,0.07585483
1757984441259,-0.12615156,-0.15614364,0.01717110,-0.03491085,-0.03325368,-0.04741043,0.29145165,-0.03976454,-0.95280763,0.07504885
1757984441303,-0.05950412,0.07445143,-0.00342416,-0.03365847,-0.02081480,-0.04232224,0.29010293,-0.04049661,-0.95326035,0.07412834
1757984441342,-0.05109008,0.04727863,-0.04628179,-0.04419033,-0.02242747,-0.02303223,0.28865105,-0.04136053,-0.95369881,0.07367806
1757984441378,-0.12953987,0.11584473,0.05699347,0.01471695,-0.01131381,0.01925148,0.28793042,-0.04109710,-0.95390133,0.07402266
1757984441419,0.01643966,-0.05250139,-0.04970644,-0.00366614,-0.00792804,-0.02099861,0.28748585,-0.04117317,-0.95406584,0.07358694
1757984441436,-1.01279164,-0.08032518,-0.10010800,0.01289780,-0.01914154,0.01656121,0.28694143,-0.04106676,-0.95422375,0.07372357
1757984441494,0.19153405,0.03411649,0.10447434,0.02325445,-0.01108910,0.00175285,0.28594252,-0.04038541,-0.95454866,0.07377493
1757984441522,-0.94468781,0.11959844,-0.05754203,0.05758994,-0.04127524,-0.01404569,0.28419625,-0.03959066,-0.95511826,0.07358110
1757984441546,-0.09987154,0.12070686,-0.01190937,0.05495959,-0.03436445,-0.00030923,0.28287748,-0.03892016,-0.95553751,0.07357733
1757984441590,0.62702993,-0.03209418,0.02494379,0.02479428,-0.01446699,0.00778672,0.28182540,-0.03837220,-0.95585723,0.07374941
1757984441602,-2.82621011,-0.22587713,0.01544545,0.06182088,-0.03023601,0.07211309,0.28119698,-0.03802910,-0.95602504,0.07414964
1757984441650,0.74470891,-0.01929637,-0.01882668,0.01214405,-0.00863154,-0.00150511,0.28053652,-0.03773582,-0.95623349,0.07411329
1757984441686,-0.28637694,0.06632533,-0.12029646,0.01706907,-0.01212280,0.02411140,0.27970850,-0.03742516,-0.95645413,0.07455212
1757984441700,-1.87405170,0.10202644,-0.16125558,-0.01231135,-0.01089866,0.00467180,0.27943324,-0.03750949,-0.95652878,0.07458412
1757984441747,0.77667295,-0.05750665,0.14108177,0.01377299,0.00111240,0.01862826,0.27944880,-0.03718583,-0.95650264,0.07502189
1757984441793,0.00365841,0.03224287,-0.06430759,0.03799931,-0.00040046,-0.00618713,0.27956956,-0.03631755,-0.95651179,0.07488051
1757984441828,-0.10812048,-0.02105652,-0.01145556,0.01035731,0.01578503,-0.00536509,0.28055574,-0.03613733,-0.95623713,0.07478716
1757984441860,0.08386185,-0.08774245,-0.00706521,0.03365511,0.00530910,-0.00560875,0.28093774,-0.03559885,-0.95615219,0.07469742
1757984441895,0.09069472,-0.03936347,-0.01655685,-0.01837179,0.00732261,-0.03222647,0.28149729,-0.03592954,-0.95602038,0.07411734
1757984441931,0.09907963,-0.09326281,0.03291794,-0.01171869,0.00626416,-0.03389034,0.28200555,-0.03613755,-0.95590919,0.07351579
1757984441942,0.30522966,0.67787180,-0.49967504,0.03177898,0.02666523,0.13407400,0.28233750,-0.03595958,-0.95575986,0.07426660
1757984441980,0.03232944,-0.04497182,0.13649282,-0.01296665,0.00338277,-0.01626728,0.28260318,-0.03620465,-0.95569593,0.07395915
1757984442003,0.04136872,-0.05829786,-0.06786682,-0.02223474,0.00875406,-0.01799446,0.28296458,-0.03646035,-0.95559526,0.07375221
1757984442025,0.03126170,0.00203507,0.06173008,-0.01055983,0.00777192,0.01724673,0.28319276,-0.03657862,-0.95550821,0.07394538
1757984442058,-0.10249211,-0.01750945,0.03257339,-0.00755131,0.00646287,0.01876942,0.28345288,-0.03670209,-0.95540255,0.07425226
1757984442080,0.15121862,-0.08835876,-0.26061157,-0.01311523,0.01990074,0.00914469,0.28415100,-0.03684767,-0.95518165,0.07435376
1757984442103,0.06019512,0.06211347,0.15637105,-0.02159418,0.01200854,-0.03781823,0.28468636,-0.03709168,-0.95504595,0.07392642
1757984442114,0.25164230,-0.42081214,-0.28937241,-0.04720449,0.01810060,-0.06077109,0.28508674,-0.03736075,-0.95494278,0.07358002
1757984442162,-0.11607533,0.11323181,0.14215602,-0.00715960,0.00350438,-0.01493520,0.28543576,-0.03753150,-0.95485920,0.07322382
1757984442206,0.01695985,-0.04283788,-0.03022703,-0.00477783,0.00690302,-0.00672452,0.28596250,-0.03763566,-0.95470871,0.07307722
1757984442238,-0.10487337,-0.03302351,-0.04248035,-0.00587154,-0.00083742,-0.02286322,0.28599931,-0.03773136,-0.95472236,0.07270455
1757984442270,0.07680613,0.14956103,0.10511852,0.00056591,-0.00434173,-0.03519219,0.28591089,-0.03772228,-0.95479205,0.07213972
1757984442317,-0.06080690,-0.04282074,-0.03379326,-0.01299282,0.00263732,-0.01182980,0.28614431,-0.03802371,-0.95473086,0.07186527
1757984442349,-0.13315053,0.11293168,-0.11109206,0.02673983,-0.00095335,-0.02264708,0.28624220,-0.03758919,-0.95474635,0.07149725
1757984442387,-0.10702019,-0.00518897,0.01538921,-0.01450552,-0.00204283,-0.00639344,0.28610848,-0.03786117,-0.95478466,0.07137737
1757984442425,-0.01116507,-0.04146921,-0.05717649,0.00318910,-0.00700682,0.01574913,0.28559019,-0.03779978,-0.95491954,0.07168055
1757984442462,-0.10106564,0.08832085,-0.10306213,0.01213707,-0.00948937,0.03889714,0.28485430,-0.03757646,-0.95509414,0.07239625
1757984442501,0.14337693,0.04300592,0.07458329,0.02026044,-0.00028786,0.04484436,0.28466318,-0.03718037,-0.95509977,0.07327296
1757984442541,-0.05205747,0.03411217,-0.01532076,0.05102306,0.00030425,0.02347724,0.28469366,-0.03616501,-0.95509371,0.07374016
1757984442580,0.15350537,-0.07287959,0.12287628,-0.00317947,0.00986584,0.03680407,0.28514742,-0.03622748,-0.95489985,0.07446336
1757984442616,-0.04828157,0.04748577,-0.08755051,-0.00093901,0.00502795,0.03925109,0.28526358,-0.03624448,-0.95480884,0.07517380
1757984442652,0.04268192,-0.05239538,0.09710433,0.00266258,-0.00405454,0.02349601,0.28491729,-0.03619709,-0.95488102,0.07559203
1757984442694,0.07896417,-0.10549743,0.04133802,-0.00028244,-0.00647647,0.00179006,0.28445256,-0.03620299,-0.95501637,0.07562944
1757984442730,-0.00252275,-0.00587853,0.11366847,0.00936617,-0.00797954,-0.01591843,0.28406534,-0.03603346,-0.95516080,0.07534132
1757984442789,0.06020844,-0.00890085,0.01000921,0.00057638,0.00013690,-0.01481811,0.28419620,-0.03601652,-0.95515678,0.07490567
1757984442815,0.48037714,-0.55116972,0.12549439,-0.00802266,0.01062866,-0.14303526,0.28512267,-0.03612001,-0.95501967,0.07306051
1757984442856,-0.11891711,0.31712810,-0.10851527,-0.01229240,0.01611477,0.00365645,0.28617837,-0.03637262,-0.95468851,0.07313565
1757984442898,-0.07841958,0.02846929,0.01408268,0.04025910,-0.00026011,-0.03809394,0.28647021,-0.03552516,-0.95469399,0.07233377
1757984442936,-0.09734475,0.03203482,0.05363987,-0.01868495,0.00414597,-0.00092231,0.28669457,-0.03588298,-0.95461459,0.07231611
1757984442977,0.05140027,-0.09707008,0.08147122,0.01369213,-0.00286550,0.00609183,0.28650518,-0.03560640,-0.95467247,0.07243917
1757984443013,-0.04281204,-0.02861562,-0.00822327,-0.00743304,-0.00374712,-0.04521524,0.28646786,-0.03574205,-0.95474086,0.07161399
1757984443057,0.02244300,0.07014728,0.06815332,0.00829007,-0.00156177,-0.01546863,0.28646097,-0.03556091,-0.95477498,0.07127600
1757984443101,0.08957848,0.01521426,0.04085993,0.03614107,-0.00125718,-0.03092185,0.28663596,-0.03476039,-0.95480283,0.07059108
1757984443147,-0.09751702,-0.00397348,-0.04293999,-0.00312543,0.00074123,-0.01686286,0.28678017,-0.03483274,-0.95478567,0.07020071
1757984443172,-0.06209244,-0.04665918,0.62805091,0.03906710,-0.02119433,-0.01880155,0.28603483,-0.03435808,-0.95504318,0.06997227
1757984443222,-0.03283739,0.05341167,-0.29731667,0.01284993,-0.00744308,-0.00442926,0.28547730,-0.03403619,-0.95522963,0.06986131
1757984443256,-0.02536884,-0.05607341,0.06926630,0.01761505,-0.01928278,-0.04589729,0.28459918,-0.03373497,-0.95555937,0.06907647
1757984443308,0.00203548,0.03024595,-0.03562558,0.02098989,-0.01533393,-0.01271460,0.28339737,-0.03318713,-0.95595958,0.06874462
1757984443357,-0.00586641,-0.00614133,0.05832091,0.01602935,-0.01995773,-0.00948790,0.28186439,-0.03279922,-0.95644256,0.06851501
1757984443382,-0.12290578,0.07827239,0.54027636,-0.03311030,-0.02793139,0.01246736,0.28056462,-0.03322138,-0.95679868,0.06867397
1757984443425,0.15049676,-0.01964757,-0.31572634,0.03358726,-0.01609455,0.00599134,0.27944563,-0.03250597,-0.95714150,0.06880159
1757984443478,0.02497933,-0.04707223,-0.04350540,-0.02505255,-0.00800573,-0.03043988,0.27883305,-0.03317487,-0.95735525,0.06798884
1757984443505,0.04073473,-0.13441871,0.45795247,-0.00893365,-0.02860085,-0.04254074,0.27762062,-0.03329637,-0.95774422,0.06741029
1757984443542,-0.05690354,0.03908978,-0.32213711,-0.04341494,-0.00965656,-0.03911928,0.27708543,-0.03409304,-0.95792142,0.06669245
1757984443582,0.04144593,0.00298085,0.03070589,-0.03231426,-0.00590084,-0.01907483,0.27668741,-0.03474094,-0.95803973,0.06631000
1757984443622,-0.07659123,0.05881504,0.00020364,0.01654385,-0.01216669,-0.01410073,0.27595257,-0.03441006,-0.95828307,0.06602798
1757984443658,-0.03492827,0.06266389,-0.10165586,0.01176659,-0.00748272,-0.00229895,0.27552310,-0.03419944,-0.95841701,0.06598683
1757984443694,-0.00668748,-0.05243694,-0.05993438,0.00487138,-0.01308456,-0.00524196,0.27472511,-0.03411054,-0.95865580,0.06589117
1757984443726,-0.11192515,0.00912487,0.11869203,0.01133606,-0.02182425,-0.00063335,0.27353242,-0.03392973,-0.95900390,0.06588106
1757984443761,0.14370213,0.15780292,-0.19798038,0.01131628,-0.00759764,0.00722213,0.27306120,-0.03373226,-0.95913647,0.06600709
1757984443785,0.04458751,0.06038495,-0.02009669,0.03184708,-0.00704671,-0.01113649,0.27284875,-0.03335965,-0.95921892,0.06587679
1757984443818,-0.04698719,-0.12735971,-0.06632124,0.01329306,-0.00092945,0.00842765,0.27278740,-0.03313832,-0.95923440,0.06601711
1757984443840,0.15283296,0.06978991,0.05073873,0.00101153,0.00121835,0.02140592,0.27277855,-0.03312689,-0.95922063,0.06625900
1757984443875,0.01193770,-0.00382330,0.00024391,-0.00151085,0.00551537,0.03173666,0.27297804,-0.03315317,-0.95912466,0.06681122
1757984443911,-0.01770163,-0.06684353,-0.04991601,-0.01144146,0.00264779,-0.00380618,0.27313403,-0.03335512,-0.95907793,0.06674404
1757984443946,0.07308984,0.03704732,0.07624491,0.00110337,0.00521498,0.03999849,0.27328569,-0.03333570,-0.95898615,0.06744801
1757984443980,0.06112317,-0.08792669,0.10081742,0.00472581,-0.00541449,-0.03176315,0.27310621,-0.03325583,-0.95907765,0.06691122
1757984444013,-0.11323062,-0.00750514,-0.06779744,-0.02879478,-0.00449138,-0.02637074,0.27288804,-0.03374390,-0.95915378,0.06646423
1757984444047,-0.03526871,-0.12781991,0.05394039,-0.00418424,-0.01426284,-0.05512112,0.27225465,-0.03381483,-0.95939553,0.06552993
1757984444080,0.05371754,-0.09851131,0.14131108,-0.03190975,-0.00841905,-0.07353677,0.27199576,-0.03432698,-0.95953066,0.06434966
1757984444114,0.01526582,0.06251367,-0.09779148,-0.02452612,-0.00257177,-0.03938305,0.27194466,-0.03475618,-0.95957567,0.06366046
1757984444147,0.00542388,0.03804043,-0.01729221,0.00129085,-0.00553079,-0.05744803,0.27184649,-0.03473508,-0.95966609,0.06272118
1757984444180,0.01157090,0.17918753,-0.11286856,0.00843775,-0.00838873,-0.03714287,0.27151308,-0.03459459,-0.95980577,0.06210276
1757984444203,-0.10778828,-0.13770706,0.36294204,-0.00378369,-0.01078418,-0.02757093,0.27114604,-0.03463754,-0.95992817,0.06178983
1757984444237,-0.07347803,0.02864201,-0.13248649,-0.00806730,-0.01207086,-0.00141372,0.27039986,-0.03477589,-0.96013518,0.06176558
1757984444249,0.72442234,-0.05837736,1.79903128,-0.01440641,-0.01816888,-0.00643190,0.27003615,-0.03485657,-0.96023693,0.06172956
1757984444293,-0.19330010,0.01949906,-0.51313407,-0.01062197,-0.00482396,-0.01217026,0.26968697,-0.03509184,-0.96034378,0.06145999
1757984444304,0.44439717,-0.83882746,1.36779036,-0.05299454,-0.02683655,-0.11596862,0.26924839,-0.03539656,-0.96049809,0.06079317
1757984444327,-0.19498086,0.42694298,-0.55316596,-0.00835892,-0.01353481,-0.02457422,0.26876340,-0.03548893,-0.96064765,0.06052163
1757984444348,-0.03575622,0.15497849,-0.09647103,0.00321853,-0.00745792,0.02053315,0.26843757,-0.03545497,-0.96072633,0.06073825
1757984444384,-0.01552455,-0.01248590,-0.09040613,0.00627891,-0.00680922,0.00335402,0.26799977,-0.03534195,-0.96084890,0.06079862
1757984444396,0.04007411,-0.49127804,1.45155814,-0.02335380,-0.05241282,-0.04611568,0.26687773,-0.03548674,-0.96117385,0.06051271
1757984444418,-0.05246606,0.09297637,-0.70662489,-0.04422786,-0.00795133,-0.03296294,0.26658210,-0.03596883,-0.96126052,0.06015341
1757984444450,0.03765021,0.10695411,-0.11213466,0.00251818,-0.00279246,0.00680461,0.26640177,-0.03592854,-0.96130520,0.06026228
1757984444452,18.28924182,44.58216189,18.36813032,0.42821845,-0.02532332,1.12646624,0.26615451,-0.03556455,-0.96132673,0.06121978
1757984444473,-1.47242626,-3.34293931,-1.33212019,0.04954630,-0.00750320,0.02973022,0.26586543,-0.03504184,-0.96140589,0.06153343
1757984444485,-0.14701026,-0.20979622,-0.15671306,0.00711809,-0.00837613,-0.03853774,0.26574373,-0.03499949,-0.96145573,0.06130413
1757984444504,-0.03736623,-0.12146073,-0.05645718,-0.01503609,-0.00188258,0.00056729,0.26565578,-0.03514759,-0.96147427,0.06130972
1757984444517,-0.03229525,0.12000793,0.00390184,-0.00376424,-0.00918577,-0.00608034,0.26545033,-0.03517149,-0.96153260,0.06127111
1757984444519,-12.33305752,8.13486435,8.74709895,0.02374627,-0.03447952,0.22416501,0.26531144,-0.03515250,-0.96156018,0.06145044
1757984444553,0.60955901,-0.43131354,-0.42559098,0.00141970,-0.00530081,0.00976573,0.26494288,-0.03512794,-0.96165189,0.06161939
1757984444591,-0.04495610,0.01780682,0.01061549,0.01101626,-0.00978487,0.02039011,0.26421401,-0.03492138,-0.96183535,0.06200171
1757984444634,-0.07804927,0.03357246,0.00056874,-0.01297245,-0.01192945,0.02228097,0.26310531,-0.03520613,-0.96209720,0.06249077
1757984444669,-0.03341963,-0.13631329,0.00740306,-0.02071052,-0.01603687,0.00131066,0.26202870,-0.03556649,-0.96237624,0.06251358
1757984444702,-0.06017473,0.10140941,0.01087935,0.03085918,-0.02058292,-0.00632599,0.26088263,-0.03506194,-0.96271278,0.06241015
1757984444735,-0.08238222,-0.03870375,-0.01410381,0.00713052,-0.02111610,-0.01801206,0.25969887,-0.03494607,-0.96305591,0.06211745
1757984444747,-1.13507625,-0.11385957,0.09827244,-0.00996666,-0.06696360,0.00876289,0.25808220,-0.03500986,-0.96348448,0.06217354
1757984444783,0.60030989,0.07760722,-0.06631040,-0.00065863,-0.00983732,0.00977321,0.25738196,-0.03502161,-0.96366008,0.06234799
1757984444804,0.05563090,-0.04752267,0.01583705,-0.00535533,-0.00725913,0.01089488,0.25705486,-0.03507892,-0.96373775,0.06246456
1757984444837,0.05280218,-0.03761744,-0.02201429,-0.00873454,-0.00213066,-0.02044560,0.25698530,-0.03522260,-0.96377280,0.06212823
1757984444895,0.00677510,-0.00147425,-0.01811251,-0.00454120,-0.00088271,-0.00461207,0.25690393,-0.03535361,-0.96379826,0.06199517
1757984444929,0.01986685,-0.02428243,-0.03522505,-0.01944320,-0.00556499,0.00706105,0.25647774,-0.03568123,-0.96389203,0.06211415
1757984444951,0.09482451,0.08843127,0.00957552,-0.02605649,-0.00416379,-0.00279870,0.25626828,-0.03597437,-0.96393888,0.06208267
1757984444998,-0.01784772,0.02489133,0.05136285,-0.01461128,-0.00079680,0.00481333,0.25612132,-0.03631919,-0.96395768,0.06219626
1757984445024,0.12670685,-0.15055748,0.12349603,0.02108772,-0.00396035,-0.02240776,0.25603716,-0.03604611,-0.96400897,0.06190608
1757984445070,-0.10222138,-0.03187349,-0.05775382,-0.01876116,-0.00244107,-0.04092900,0.25599063,-0.03647668,-0.96406499,0.06096676
1757984445105,0.02715571,-0.01738261,0.00295359,-0.01955344,0.00224769,-0.00719464,0.25611785,-0.03681397,-0.96402622,0.06084265
1757984445144,0.04742972,0.04306068,-0.06699631,0.00507827,0.00372868,-0.03725228,0.25657803,-0.03671469,-0.96395332,0.06011437
1757984445165,0.43097724,-0.14328681,-0.03965920,-0.00174756,0.02803554,0.03568289,0.25760557,-0.03673330,-0.96365474,0.06049439
1757984445200,-0.20812523,0.14322884,0.03165574,0.01136816,0.01291011,-0.01999216,0.25855907,-0.03653436,-0.96342882,0.06014453
1757984445226,-0.13306317,-0.03130246,0.06129032,-0.00160853,0.00610166,-0.03404015,0.25894483,-0.03655479,-0.96335132,0.05971222
1757984445249,-0.00066845,0.03510947,0.08627169,-0.00715613,0.00780046,0.01079582,0.25923936,-0.03663744,-0.96326123,0.05983691
1757984445318,-0.00962564,0.00831480,-0.01628031,-0.00335326,-0.00050600,0.00052663,0.25915341,-0.03675380,-0.96327879,0.05985519
1757984445353,0.02545784,-0.13583256,0.24412152,-0.01132264,0.00574613,-0.03379419,0.25963994,-0.03695421,-0.96317708,0.05925703
1757984445416,0.02044630,0.03971370,-0.01791702,-0.00818652,0.00419824,-0.03756820,0.26035891,-0.03721168,-0.96304505,0.05807551
1757984445433,0.53011070,-3.08151985,4.13817898,-0.10304934,-0.03445757,-0.46175350,0.26001062,-0.03805153,-0.96332588,0.05431222
1757984445487,-0.15385627,0.61291680,-1.06613243,-0.04534852,-0.01630736,-0.16672709,0.25909309,-0.03928047,-0.96376781,0.04979391
1757984445501,1.13374956,-4.43250709,5.98689359,-0.28033158,-0.07603225,-0.95180561,0.25800034,-0.04124280,-0.96430003,0.04313128
1757984445552,-0.33714037,1.29055056,-1.34358522,-0.00416490,-0.02202441,-0.16204321,0.25652538,-0.04134983,-0.96486606,0.03896676
1757984445567,-2.13695136,-2.19801967,2.30842147,-0.03733849,-0.06453139,-0.43883650,0.25515318,-0.04162614,-0.96534359,0.03571937
1757984445617,0.67129433,0.81049038,-0.95458455,-0.00342800,-0.01123628,-0.08038416,0.25435816,-0.04171081,-0.96562113,0.03373389
1757984445631,-0.25266100,-1.04880307,7.16258182,0.17779158,-0.09098294,0.00998820,0.25204110,-0.04042182,-0.96628075,0.03380630
1757984445666,-0.32096789,0.36975739,-2.79221071,-0.01681595,-0.01619162,-0.08034391,0.25108465,-0.04071778,-0.96656573,0.03239225
1757984445704,0.14473019,0.01126109,-0.07357164,-0.01931537,-0.01349038,-0.08713355,0.25025589,-0.04107994,-0.96681867,0.03075849
1757984445736,-0.18605463,-0.15772687,0.77644971,-0.02289918,-0.03381210,-0.14266531,0.24837385,-0.04144519,-0.96735797,0.02848298
1757984445769,0.02674384,0.06242758,-0.42719475,-0.02587468,-0.03259455,-0.12490274,0.24642122,-0.04187341,-0.96789741,0.02641584
1757984445780,-0.65292738,0.08456537,3.00063878,-0.05823077,-0.04205705,-0.15226117,0.24553672,-0.04219659,-0.96813083,0.02557079
1757984445814,0.38958606,0.34001940,-1.29792001,-0.00038293,-0.00575518,0.00262463,0.24513908,-0.04220320,-0.96823011,0.02561607
1757984445819,-4.65402840,-2.91076281,22.41790955,0.10386208,-0.02859082,-0.02849794,0.24489942,-0.04193316,-0.96830444,0.02554197
1757984445868,0.54116809,0.27633159,-2.54725079,0.01121385,-0.00084502,-0.02325850,0.24492298,-0.04166122,-0.96832493,0.02497795
1757984445879,-1.49192625,-0.79602734,7.80440682,0.04018664,0.01816726,-0.10358047,0.24541688,-0.04143819,-0.96822411,0.02440308
1757984445919,0.41450184,0.21768077,-2.02822897,0.01833808,0.00443854,-0.00630832,0.24583983,-0.04107234,-0.96813556,0.02427723
1757984445931,-1.11022280,-0.95357964,8.03220924,0.09985997,0.00984044,-0.08298479,0.24621061,-0.04048816,-0.96807799,0.02379177
1757984445990,0.21672079,0.21156133,-1.68760952,0.00575046,-0.00205467,-0.01730633,0.24604914,-0.04031881,-0.96813850,0.02328210
1757984446029,-0.16725593,-0.16331940,1.08579941,-0.00121523,-0.02113678,-0.05531351,0.24450625,-0.04034269,-0.96855384,0.02219519
1757984446062,0.04439344,0.30131689,-0.21094728,0.01736791,-0.01434998,-0.00630009,0.24361777,-0.04005438,-0.96879205,0.02209061
1757984446094,0.01182331,-0.11094275,0.00875916,0.06854683,-0.02335834,0.01647050,0.24228561,-0.03896106,-0.96916461,0.02235331
1757984446125,-0.01527999,-0.14154138,-0.18052863,-0.03229206,-0.01522043,-0.05402467,0.24133167,-0.03946320,-0.96940129,0.02151323
1757984446170,0.10616079,0.10338685,-0.29326923,-0.00807224,-0.00898638,-0.01421623,0.24051474,-0.03964523,-0.96960393,0.02119265
1757984446191,0.40483125,0.03481851,2.69994587,-0.00850350,-0.00075544,0.05384336,0.24041753,-0.03973452,-0.96961187,0.02175801
1757984446250,-0.06457973,-0.07521599,-1.01068312,-0.00159672,0.00382304,-0.01827279,0.24090971,-0.03978138,-0.96949966,0.02122170
1757984446284,0.07067825,-0.10405677,1.34040057,0.03497746,0.00823479,0.00923298,0.24155576,-0.03918676,-0.96935967,0.02137866
1757984446296,-0.70746428,-0.24469283,10.86830314,0.11422777,0.00346516,0.00968916,0.24174418,-0.03850140,-0.96933888,0.02143680
1757984446351,0.01389462,0.00924842,-2.72161712,0.00099264,-0.00316136,0.01767188,0.24135531,-0.03847405,-0.96942597,0.02192366
1757984446387,-0.15602536,0.16282289,1.14469402,-0.01472196,0.00037545,0.08627602,0.24119580,-0.03873610,-0.96941929,0.02345937
1757984446423,-0.40186607,-0.18316993,0.47158230,-0.00513392,-0.00702645,0.11624465,0.24045678,-0.03882877,-0.96954612,0.02555759
1757984446445,-1.74552942,-1.59121382,6.92128776,-0.11083430,-0.00748417,-0.01579378,0.23992388,-0.04009228,-0.96963144,0.02537754
1757984446473,0.89455398,0.88548782,-4.59028047,-0.11219519,0.00701890,-0.03097212,0.24009575,-0.04163496,-0.96953493,0.02495167
1757984446509,0.30675583,0.03466160,-0.95419818,-0.06601242,0.00954880,-0.00274229,0.24059214,-0.04283969,-0.96936066,0.02490162
1757984446522,-5.52512703,-6.27115690,25.76270219,-0.09312061,0.03388048,-0.30697909,0.24152256,-0.04341704,-0.96915060,0.02299835
1757984446565,1.96475461,1.89543942,-7.66130249,-0.01218072,0.01683579,-0.00544703,0.24294762,-0.04368136,-0.96878527,0.02288015
1757984446599,-0.07114866,0.36009018,2.59819311,0.05134181,0.01942918,-0.03948005,0.24445941,-0.04281882,-0.96845886,0.02221689
1757984446633,0.67408152,0.40357167,0.09625690,0.13876984,0.00838824,0.01255334,0.24539933,-0.04047361,-0.96831709,0.02242904
1757984446655,1.24963570,-0.91608725,4.87948517,-0.03049811,0.02186800,-0.14765573,0.24644305,-0.04081213,-0.96807436,0.02079006
1757984446686,0.06733706,0.74680908,-4.52418789,-0.00928432,0.01240728,-0.02024624,0.24721183,-0.04095836,-0.96787894,0.02047118
1757984446721,1.14879169,0.08315233,1.51653709,0.00886455,0.01812741,0.02455624,0.24842979,-0.04080456,-0.96756443,0.02089723
1757984446755,1.22459117,0.38870220,0.93496809,0.03315125,0.03236994,0.12151106,0.25044974,-0.04024762,-0.96702062,0.02293862
1757984446787,1.12713748,-0.78569973,1.08293147,0.07179811,0.03291873,0.20103302,0.25233659,-0.03910244,-0.96649557,0.02614510
1757984446832,-0.50388400,-0.23167587,-1.43940854,0.01687475,0.01873448,0.13901062,0.25367973,-0.03871770,-0.96606842,0.02931454
1757984446866,3.76730841,-1.00509500,4.96614024,-0.03103082,0.02450526,0.19678406,0.25476751,-0.03924212,-0.96565428,0.03264019
1757984446899,-0.00919933,-0.27518934,-0.55001382,0.05749773,-0.02430134,0.11757179,0.25310553,-0.03827903,-0.96606133,0.03460952
1757984446936,0.47666013,-0.47170087,-0.13455071,-0.03868530,-0.02632121,0.05529538,0.25100946,-0.03898697,-0.96654301,0.03562142
1757984446948,90.18727550,-20.11427508,106.24036888,-0.15541209,-0.07255204,0.36038994,0.24891514,-0.03989613,-0.96696744,0.03772970
1757984446983,-25.28547549,5.64455209,-31.35654259,0.04747304,-0.03256141,-0.02480625,0.24684910,-0.03904874,-0.96754866,0.03728691
1757984447053,-4.46538192,1.20197059,-5.01159289,0.01865069,-0.00124474,0.02979334,0.24662224,-0.03839970,-0.96759197,0.03832372
1757984447087,24.90080860,-1.71441977,23.86658832,0.11694475,0.03732912,0.13969836,0.24899273,-0.03643502,-0.96696484,0.04067065
1757984447132,-10.43095970,1.34388391,-10.98024938,0.07444600,0.03673345,0.27416167,0.25135046,-0.03475627,-0.96613650,0.04685300
1757984447175,3.58138526,1.79858881,2.62173402,-0.14822497,0.04134755,0.13765905,0.25376252,-0.03799498,-0.96523306,0.04986085
1757984447221,0.23426058,0.89095255,0.40420251,0.06560001,-0.02305409,0.18059191,0.25116141,-0.03651898,-0.96575178,0.05392416
1757984447254,5.88635708,2.90591463,5.94866541,-0.09732078,-0.05830856,0.05891743,0.24691200,-0.03814910,-0.96672845,0.05491103
1757984447286,-5.30524057,-2.01031200,-4.02009759,-0.11503397,-0.03397514,0.12752722,0.24404008,-0.03997239,-0.96726695,0.05693234
1757984447362,-5.52257098,-1.57888565,-4.92727714,-0.00978746,-0.02087049,-0.04949418,0.24123122,-0.04034676,-0.96806525,0.05503919
1757984447394,22.88430497,2.86430165,25.56010393,0.17799731,-0.09112510,-0.22954561,0.23654183,-0.03746321,-0.96954147,0.05132055
1757984447417,-8.21624295,-2.21311916,-4.18819205,0.14768130,-0.01480279,0.07465900,0.23594297,-0.03583133,-0.96970505,0.05214553
1757984447482,-8.37071117,-0.36388179,-9.90120409,0.07014759,-0.00957251,-0.01452368,0.23510170,-0.03355153,-0.97001615,0.05167351
1757984447503,28.72637787,-0.40093249,41.43475511,0.10894338,-0.04689229,-0.37877234,0.23406328,-0.03240218,-0.97051087,0.04767746
1757984447537,-12.87702256,-1.29530130,-16.61543391,0.07593168,-0.02736596,-0.20955951,0.23299550,-0.03109995,-0.97098019,0.04408352
1757984447582,-4.21082686,0.05771271,-6.00515979,-0.03310704,-0.01834587,-0.19469632,0.23195965,-0.03184486,-0.97139297,0.03970285
1757984447615,3.90818210,-0.57820353,7.07911545,-0.14398557,-0.01212244,-0.29839731,0.23156965,-0.03424222,-0.97159481,0.03473453
1757984447637,9.78772436,-1.35132927,19.07054964,0.07509193,-0.02285945,-0.07821761,0.23077968,-0.03343498,-0.97184055,0.03389369
1757984447683,-6.57280586,0.27590141,-10.40316310,0.03231066,-0.01075724,-0.08380408,0.23012112,-0.03269507,-0.97208689,0.03197458
1757984447715,7.04137585,-3.16331793,14.11172354,0.01315050,-0.01881736,-0.21831175,0.22932623,-0.03248203,-0.97239173,0.02843793
1757984447761,-5.03215517,1.21764599,-9.10914492,-0.10326254,-0.00209109,-0.21463297,0.22933287,-0.03484674,-0.97243962,0.02352283
1757984447784,16.69847207,-5.32931952,42.08409405,-0.04596542,-0.00680402,-0.53926478,0.22947161,-0.03536845,-0.97251685,0.01740218
1757984447830,-10.57479240,3.59934536,-23.90788104,0.04153253,-0.00144697,-0.09974492,0.22963859,-0.03441112,-0.97255020,0.01510306
1757984447865,5.59723631,-1.17922579,16.72621142,-0.05347709,0.07637610,0.09400118,0.23496198,-0.03534430,-0.97121744,0.01674338
1757984447902,-2.55808103,2.27393954,-6.19693203,-0.15976509,0.08097151,-0.35760319,0.24101849,-0.03831593,-0.96971137,0.01009196
1757984447913,61.88133212,15.82628657,167.76144469,0.25838101,0.29222658,0.19881529,0.24785715,-0.03683024,-0.96803106,0.01123515
1757984447969,-14.34532022,-1.61234631,-38.71020598,0.05244451,0.03154761,-0.10219381,0.25157123,-0.03537490,-0.96715562,0.00839927
1757984447980,67.75884065,15.57818216,184.22082250,0.26813393,0.04274174,-0.53429041,0.25275608,-0.03390017,-0.96692054,0.00546067
1757984448015,-19.98082787,-5.98839996,-57.69114768,0.05241212,-0.01038302,-0.24164282,0.25222976,-0.03296985,-0.96710484,0.00117151
1757984448040,4.70182971,1.83753359,8.07912852,0.06821666,0.00361835,-0.18382066,0.25251433,-0.03211373,-0.96705942,-0.00113544
1757984448064,0.50626228,0.49252048,-2.08020640,0.05647486,0.03606582,-0.02235714,0.25423500,-0.03144168,-0.96663024,-0.00140149
1757984448094,-2.35822911,-1.20759515,-5.58858492,-0.00594895,0.04577679,-0.03727530,0.25681694,-0.03153092,-0.96594359,-0.00196062
1757984448116,16.05730152,4.50990046,26.97892369,-0.11022120,0.11835264,-0.36827007,0.26139165,-0.03272682,-0.96465946,-0.00595635
1757984448126,31.11433344,3.86318355,46.72976880,-0.00941413,0.16406581,-0.18968002,0.26440116,-0.03277436,-0.96383093,-0.00691423
1757984448173,-15.91596568,-3.40231844,-27.24736925,-0.01861219,0.03153948,-0.05757958,0.26697387,-0.03320802,-0.96309606,-0.00825583
1757984448194,23.10627836,3.39183994,34.39663906,-0.03975129,0.09669157,-0.08913269,0.27059513,-0.03363336,-0.96206146,-0.00920955
1757984448217,-10.98617132,-2.68621750,-17.62175944,-0.01550492,0.04164036,0.20263324,0.27231614,-0.03380934,-0.96158884,-0.00690967
1757984448250,-3.91553398,-1.16117084,-6.52305316,0.00129278,0.01682188,0.21619069,0.27336389,-0.03378801,-0.96131128,-0.00334252
1757984448260,111.25884836,-2.38005927,151.25376584,-0.07795294,-0.05710968,0.49765012,0.27225474,-0.03420506,-0.96161682,-0.00068009
1757984448283,-45.26904983,0.54501705,-62.49293430,-0.22747262,-0.10971987,0.31856120,0.26748103,-0.03677550,-0.96285665,0.00291965
1757984448309,-7.04482805,-0.53772799,-10.54232754,-0.18501413,-0.05699635,0.32817087,0.26436043,-0.03918993,-0.96360046,0.00720228
1757984448343,-0.64987923,-0.35673684,-1.05392007,-0.16907478,-0.04153811,0.21205812,0.26117377,-0.04208957,-0.96431283,0.01083908
1757984448367,21.88618463,-2.65196778,26.53306561,-0.50194032,-0.13219019,0.36826468,0.25416806,-0.04793717,-0.96585285,0.01512936
1757984448402,-12.06390910,0.88694043,-15.39307204,-0.14773725,-0.03815275,0.15265466,0.25088871,-0.05055951,-0.96653006,0.01783898
1757984448427,28.58731504,-5.76999174,28.82078961,-0.20082134,-0.06688623,0.16488455,0.24704181,-0.05301957,-0.96734942,0.01985881
1757984448466,-16.35703674,3.14405860,-17.91921163,0.02038995,-0.02141732,0.02313084,0.24542061,-0.05261483,-0.96777455,0.02031796
1757984448514,4.67496643,-0.58646868,3.81231870,0.03413395,-0.01758404,0.05027193,0.24384910,-0.05180927,-0.96818954,0.02150438
1757984448535,36.23446123,-4.97579916,30.92045514,0.03401297,-0.03816534,0.20212486,0.24208128,-0.05144193,-0.96860172,0.02368733
1757984448587,-16.43505662,2.96557740,-15.18589975,-0.01468678,-0.02896299,0.11660440,0.23864564,-0.05182378,-0.96935476,0.02671904
1757984448620,13.50630855,4.57495038,11.85066021,-0.11106730,-0.09748753,-0.02926399,0.23160947,-0.05366750,-0.97097305,0.02623326
1757984448654,-6.02926475,2.58547418,-4.28969676,-0.27026284,-0.00703655,0.13841375,0.22973463,-0.05820792,-0.97109127,0.02855861
1757984448688,-1.99168452,-0.08212752,-0.42849929,0.26981454,-0.04873311,0.33973768,0.22651506,-0.05359409,-0.97192460,0.03436813
1757984448722,-2.94224302,-3.05129088,-2.01317666,0.06491412,-0.02130454,-0.08804599,0.22545794,-0.05251002,-0.97228039,0.03289776
1757984448758,-2.68327441,0.43818911,-1.93412474,0.01075954,-0.00849972,-0.12658666,0.22515880,-0.05231312,-0.97243593,0.03058122
1757984448793,-0.18300070,-0.50712762,0.36696877,-0.09827748,-0.00380418,-0.20557337,0.22492332,-0.05404281,-0.97250289,0.02696313
1757984448828,-1.55388857,0.52669653,-0.23486763,0.03965516,-0.05706193,-0.47660257,0.22163992,-0.05335875,-0.97348720,0.01874174
1757984448861,4.50113488,0.00889838,5.95376085,0.06638198,-0.07844799,-0.37722788,0.21651451,-0.05224686,-0.97480121,0.01242317
1757984448898,-5.17608934,-0.64400398,-5.93716036,0.05700071,-0.03999805,-0.17468097,0.21356692,-0.05118949,-0.97554317,0.00918284
1757984448943,-2.67702615,-1.32160287,-2.41136385,0.09446079,-0.03509569,-0.06308552,0.21051915,-0.04908302,-0.97632581,0.00777603
1757984448955,112.65668145,-7.56899184,154.27001525,-0.31494400,-0.05940672,-0.97733108,0.20861150,-0.05090969,-0.97667037,0.00210751
1757984448990,-34.65810181,0.50366239,-45.74149533,0.07086826,-0.02326953,-0.21276991,0.20700176,-0.04966950,-0.97707758,-0.00161596
1757984449047,-4.28180650,0.21710188,-6.24097769,0.01974967,-0.00356486,-0.09032426,0.20661861,-0.04910466,-0.97717954,-0.00419924
1757984449081,8.46569229,-2.08737401,14.75309681,-0.05806482,0.01829129,-0.24457722,0.20773829,-0.05010628,-0.97686401,-0.00841819
1757984449119,-4.08618577,0.17206035,-4.79199691,-0.04207247,0.02688665,-0.06849798,0.20984975,-0.05089513,-0.97635989,-0.00970253
1757984449167,-1.88135901,0.57022486,-2.39589225,0.03939216,0.01935790,0.00421019,0.21221928,-0.04995366,-0.97589723,-0.00960191
1757984449190,15.58899701,-6.91801544,47.58402187,0.08509463,0.06696157,-0.32055272,0.21574368,-0.04897933,-0.97513052,-0.01327224
1757984449238,-7.84269768,3.62771323,-20.12597573,0.09160501,0.01769266,0.01492197,0.21815864,-0.04678081,-0.97470590,-0.01291411
1757984449270,4.92055963,1.41516193,15.72976681,0.11538435,0.07127469,-0.24355768,0.22343868,-0.04488850,-0.97353700,-0.01690846
1757984449311,-2.93402755,3.55020743,-9.19494036,0.15970802,0.05659332,0.59068194,0.22951433,-0.04167837,-0.97239947,-0.00503575
1757984449341,2.05607509,3.59641481,5.05344876,0.12732883,0.08552960,0.30677326,0.23538037,-0.03973024,-0.97109087,-0.00034212
1757984449393,-1.32699912,-2.69811768,-7.54152486,0.29116588,0.01198539,0.21589380,0.23774697,-0.03217449,-0.97077985,0.00526033
1757984449427,3.55879408,-0.62184830,11.31428058,0.32993987,-0.01087760,-0.31894682,0.23774479,-0.02664799,-0.97096205,-0.00008203
1757984449460,-0.73762528,-0.90551338,-5.22666164,-0.05319681,0.00905545,-0.46700172,0.23812866,-0.02753106,-0.97081172,-0.00783426
1757984449481,12.95387421,3.72276815,19.23760387,-0.19061673,-0.02040062,-0.15442476,0.23695371,-0.02953254,-0.97102593,-0.00945572
1757984449518,-7.63691218,-1.74716464,-13.95059593,-0.08936490,-0.02266343,-0.10815481,0.23491530,-0.03119472,-0.97144747,-0.01146740
1757984449541,9.33989046,0.91684436,15.79754129,-0.26538900,-0.04716474,-0.31513103,0.23202395,-0.03424670,-0.97198987,-0.01509141
1757984449563,-5.54005258,-2.35741240,-12.61021493,-0.20064288,-0.02568010,-0.11180581,0.23043753,-0.03642367,-0.97226849,-0.01630450
1757984449597,-5.44365917,-0.45910785,-9.59394674,-0.11898589,-0.00312681,0.00727972,0.22988620,-0.03847023,-0.97232228,-0.01617929
1757984449607,33.14417124,-1.19564801,51.22565488,-0.20204354,-0.01088058,0.08854764,0.22950403,-0.03951075,-0.97237831,-0.01572327
1757984449630,-13.18509070,-0.14624595,-21.14445189,-0.04485117,-0.01261278,0.03224526,0.22882712,-0.04002430,-0.97252273,-0.01535406
1757984449640,29.63301382,-2.91687333,45.46312061,0.01554826,-0.04981884,0.13949078,0.22780535,-0.03994500,-0.97277680,-0.01464266
1757984449677,-10.52282517,0.42172862,-16.28401174,0.00043609,-0.01758077,0.04892792,0.22649552,-0.03993709,-0.97309589,-0.01375462
1757984449698,23.16661540,-3.11710814,32.32874245,-0.07309491,-0.04774699,0.07163339,0.22424840,-0.04070093,-0.97359485,-0.01300605
1757984449732,-11.31819813,1.07311918,-16.86242455,-0.04026766,-0.01662283,-0.03463852,0.22282802,-0.04139957,-0.97388326,-0.01360703
1757984449765,5.96031656,-1.33499097,7.16542412,-0.12089668,-0.00545767,-0.12530603,0.22193410,-0.04335810,-0.97397167,-0.01563698
1757984449775,107.63575246,-24.38566464,128.86246074,-0.16845271,0.00507337,-0.25516801,0.22178105,-0.04422563,-0.97394554,-0.01695110
1757984449824,-27.83621115,5.81539807,-34.48760258,0.00417480,-0.00021016,-0.00549153,0.22176861,-0.04412439,-0.97395064,-0.01708427
1757984449858,7.73862474,-1.52173896,8.27282181,-0.02876002,0.00557968,0.00661136,0.22209958,-0.04461907,-0.97385467,-0.01697055
1757984449889,9.06427166,-1.40211953,9.01506137,-0.12334999,0.00418098,0.09577278,0.22210003,-0.04650632,-0.97379070,-0.01550523
1757984449933,-6.63626311,1.50567147,-7.87011777,-0.09465341,-0.00564214,0.10556603,0.22125640,-0.04859343,-0.97391511,-0.01317750
1757984449935,2775.36721304,-442.68477044,2645.13687446,-1.07248339,0.01208104,2.66116081,0.22119391,-0.04998766,-0.97389940,-0.00971799
1757984449980,-161.25027976,26.76403461,-154.19543815,-0.06399576,-0.00310334,0.08272136,0.22063216,-0.05142116,-0.97396892,-0.00786503
1757984450010,2.76938553,2.79549454,2.86701408,0.02448295,-0.01014381,0.42462551,0.22017308,-0.05104902,-0.97412310,-0.00141072
1757984450045,-5.16536493,-0.03374641,-4.54162600,-0.01219238,-0.02457565,0.13206661,0.21822557,-0.05126117,-0.97455072,0.00088724
1757984450077,6.83076418,2.87631886,8.23023344,0.02715339,-0.06997351,0.17476888,0.21325408,-0.05082807,-0.97566680,0.00367480
1757984450098,13.34871509,0.52263616,14.96693711,-0.24287576,-0.05869915,0.29775855,0.20968668,-0.05339041,-0.97628607,0.00681615
1757984450109,21.51437486,-5.91772439,27.86920912,-0.49379028,0.00344321,-0.08897730,0.20908022,-0.05610626,-0.97626714,0.00632678
1757984450130,-27.84612723,-2.74536347,-30.66293329,-0.08127330,-0.01101387,-0.23845970,0.20836207,-0.05696775,-0.97638388,0.00379910
1757984450179,-5.89602555,-0.25341221,-6.96620695,0.05032148,-0.01388699,-0.05939287,0.20714427,-0.05576004,-0.97671717,0.00237368
1757984450198,28.15595186,2.41355994,38.56740024,0.34629965,-0.04536480,-0.18217533,0.20593624,-0.05234899,-0.97716402,0.00057925
1757984450220,-17.07129553,-2.23709828,-19.89090357,0.04045809,-0.01901299,-0.39274091,0.20503433,-0.05191002,-0.97737031,-0.00368199
1757984450231,34.21866813,1.93735839,56.89059184,0.07479525,-0.05095531,-0.96835246,0.20365917,-0.05150612,-0.97764546,-0.00891109
1757984450266,-16.34703501,-0.66298077,-24.19981633,0.04226738,-0.02268618,-0.25885165,0.20168634,-0.05076856,-0.97804134,-0.01342805
1757984450268,866.45935270,33.12440281,1360.40153558,0.21067667,-0.19583384,-2.16404522,0.20041648,-0.05051574,-0.97827634,-0.01602491
1757984450314,-47.29912585,-1.84993820,-74.52729154,-0.00304561,-0.01078478,-0.14439075,0.19889918,-0.05058534,-0.97852277,-0.01932424
1757984450350,4.97025262,0.26661826,8.60738324,0.02241661,-0.02415436,-0.16487051,0.19653079,-0.05018072,-0.97895876,-0.02230015
1757984450386,3.86762617,-0.93551892,3.80717763,0.14978911,-0.05110269,-0.02544358,0.19252326,-0.04748451,-0.97987861,-0.02275814
1757984450418,-3.39767370,0.00262036,-1.12604721,-0.00633541,-0.02843320,-0.02712267,0.19008510,-0.04758715,-0.98033922,-0.02319752
1757984450429,64.74016085,-9.26910364,131.67680763,-0.09195171,-0.07562160,-0.16763272,0.18774840,-0.04807909,-0.98074380,-0.02409436
1757984450455,-29.48621959,2.79519314,-56.83140877,-0.02279674,-0.01920765,-0.02045393,0.18633356,-0.04837431,-0.98099254,-0.02435924
1757984450495,-2.72998563,0.17283248,-5.15975516,0.01215296,-0.01234177,-0.01653392,0.18503919,-0.04812942,-0.98124123,-0.02469239
1757984450516,6.32167993,-1.62185999,15.82412169,0.04832576,-0.02943553,0.05258774,0.18359160,-0.04761959,-0.98155177,-0.02413759
1757984450548,-3.49431549,0.64286684,-7.36295096,-0.01989115,-0.01521057,-0.01131450,0.18218701,-0.04793586,-0.98179362,-0.02431749
1757984450577,3.17586540,-1.63608543,12.21890901,0.00044597,-0.01855340,-0.02499779,0.18070464,-0.04792948,-0.98205893,-0.02467496
1757984450588,41.45625046,-10.58346966,126.04717798,0.15505929,-0.05534419,0.03026432,0.17927852,-0.04706890,-0.98236609,-0.02450700
1757984450610,-22.31993753,6.82460076,-64.14190069,0.04879299,-0.00417406,0.25678941,0.17953592,-0.04651998,-0.98241305,-0.02161811
1757984450643,-3.16499517,0.97184897,-8.26483850,0.04765338,0.00100475,0.08239828,0.17998262,-0.04574085,-0.98239662,-0.02027090
1757984450654,12.60450597,-1.76529923,56.06756694,0.06613897,0.00699469,0.11018941,0.18034486,-0.04538370,-0.98235885,-0.01967588
1757984450665,6.78214063,7.15589349,17.04422549,-0.00374402,0.02926952,-0.10010033,0.18118308,-0.04540504,-0.98219201,-0.02024645
1757984450688,-9.87269568,1.00404325,-37.47057332,-0.03526827,0.02017940,-0.05098886,0.18225032,-0.04580357,-0.98196399,-0.02082263
1757984450699,10.38454762,3.47438090,37.39509880,0.01145938,0.03440483,0.32826605,0.18353401,-0.04573768,-0.98176616,-0.01893510
1757984450710,1.34677822,1.14751694,6.67895576,0.02686285,0.03507665,0.39927119,0.18474285,-0.04559799,-0.98158376,-0.01685889
1757984450722,-3.52864591,1.88934704,-14.70349792,-0.01404408,0.03245253,0.05592680,0.18578388,-0.04568225,-0.98138905,-0.01652333
1757984450732,0.84862529,1.57095728,4.25331163,-0.07245326,0.04119033,-0.05057942,0.18681524,-0.04606626,-0.98117074,-0.01679140
1757984450744,-3.68203606,-5.29213135,-11.49045477,-0.04835515,0.04106652,0.14258756,0.18811860,-0.04635881,-0.98092228,-0.01592874
1757984450756,1.28316050,0.61362374,5.76025709,-0.08065803,0.05032826,0.09244124,0.18952649,-0.04681452,-0.98063793,-0.01540645
1757984450759,179.10426342,82.94686388,626.98911344,-0.30849133,0.20002704,0.16203832,0.19112232,-0.04732353,-0.98030789,-0.01513909
1757984450785,-26.24034928,-11.87387304,-93.91561870,-0.04299903,0.02242073,-0.02244367,0.19247535,-0.04789327,-0.98001081,-0.01543646
1757984450820,1.07198404,0.22898944,3.33732946,-0.03674493,0.02637117,-0.08604406,0.19448525,-0.04852345,-0.97955855,-0.01691212
1757984450830,64.62013862,17.76091307,205.99121044,-0.07462281,0.16995517,-0.33061449,0.19871467,-0.04891895,-0.97865778,-0.01866438
1757984450843,-30.86161972,-12.22249621,-106.69878920,0.13788597,0.07519210,0.09879755,0.20142183,-0.04800890,-0.97816151,-0.01801231
1757984450889,-7.22064674,-1.40946745,-21.84819014,0.02435883,0.01652902,0.06484759,0.20348124,-0.04745839,-0.97778796,-0.01654676
1757984450900,76.94129218,9.93429953,203.98428170,-0.09051603,0.25881748,0.41211871,0.21043997,-0.04796981,-0.97632564,-0.01421829
1757984450934,-22.26714610,-3.08459487,-61.30348611,0.00521809,0.04797488,-0.11943992,0.21404314,-0.04788162,-0.97551486,-0.01623682
1757984450955,7.99845891,0.50086081,10.76666896,-0.04898434,0.06820423,-0.28277285,0.21695196,-0.04840085,-0.97479190,-0.01923421
1757984450979,-3.58267331,0.08477614,-4.48666679,-0.14698138,0.06537140,-0.41978490,0.21952235,-0.05014258,-0.97401725,-0.02420866
1757984450999,1.18895346,0.94760280,4.56026129,-0.17024449,0.07596421,-0.44687089,0.22193265,-0.05183652,-0.97326141,-0.02865503
1757984451033,-5.45080196,-0.85686628,-12.36295333,-0.00109314,0.01403586,-0.08342414,0.22280272,-0.05185548,-0.97301788,-0.03010244
1757984451044,96.23324006,22.33236143,188.83530473,0.19180394,0.03790928,0.28019636,0.22409404,-0.05084851,-0.97281886,-0.02863141
1757984451066,-37.34870844,-10.31133075,-76.48154466,0.07748049,-0.01570495,0.21896230,0.22382916,-0.04999235,-0.97299240,-0.02621187
1757984451080,-0.86502403,-0.03766945,-2.59934117,0.07991721,-0.02183693,0.17102764,0.22341093,-0.04941295,-0.97315072,-0.02497192
1757984451113,-5.43337448,-0.57809878,-9.88477479,0.03194383,-0.00873757,0.04452784,0.22298330,-0.04889067,-0.97329358,-0.02424389
1757984451134,10.27348256,0.01751241,15.94236365,0.05762106,-0.01379251,0.23196114,0.22273934,-0.04829717,-0.97343564,-0.02185469
1757984451144,33.45073230,-4.16070217,47.59880482,0.05660720,-0.01430342,0.14937508,0.22255812,-0.04801131,-0.97350787,-0.02110035
1757984451178,-13.52880978,0.00807976,-20.79886447,0.01589890,-0.00620259,0.04114582,0.22221297,-0.04773546,-0.97361549,-0.02038647
1757984451201,17.09111296,-3.57843400,20.80984403,0.06654051,-0.02153979,0.11314236,0.22143301,-0.04699686,-0.97385458,-0.01913059
1757984451213,15.43894544,-11.35666424,15.15318324,0.21070098,-0.04729660,0.57755277,0.22072060,-0.04573266,-0.97413836,-0.01566527
1757984451244,-17.94813548,5.07337202,-22.16116165,0.04043673,-0.01720778,0.17195210,0.21982624,-0.04509376,-0.97441024,-0.01294843
1757984451246,2807.50016848,-875.57408580,2983.17814312,-0.72205762,-0.22277006,0.14018165,0.21886494,-0.04570750,-0.97459959,-0.01282928
1757984451312,-72.50741625,23.10506784,-77.35940119,-0.03962153,-0.00210302,0.02667772,0.21832399,-0.04702492,-0.97466952,-0.01194224
1757984451346,21.67145042,-4.91704531,19.81768552,-0.12636275,-0.01526726,0.00109009,0.21672568,-0.04912254,-0.97492296,-0.01192415
1757984451379,-7.19151579,1.94823556,-8.22132802,-0.02459906,-0.00323297,-0.10665081,0.21628218,-0.04953458,-0.97497711,-0.01371055
1757984451429,-4.07305946,2.12156600,-3.80253733,-0.00002304,-0.00962293,-0.12672746,0.21496673,-0.04953515,-0.97521816,-0.01688507
1757984451465,8.79416368,1.29908326,7.32117946,0.15744739,-0.06340704,0.47670003,0.21096818,-0.04675621,-0.97633730,-0.00847131
1757984451504,-2.41457072,1.54383673,-1.47277115,-0.07440744,-0.04192150,-0.14813375,0.20657678,-0.04824064,-0.97717363,-0.01142658
1757984451539,-3.05467396,-0.83215884,-1.71775516,-0.22803823,-0.01736273,-0.04716216,0.20413559,-0.05218570,-0.97747401,-0.01224249
1757984451570,-0.36260325,-1.44254267,1.93585470,0.00774531,-0.03949807,-0.11728630,0.20107419,-0.05206487,-0.97809018,-0.01407215
1757984451602,-1.65912316,0.86024384,-1.02969039,0.08724152,-0.06235262,-0.10248472,0.19645897,-0.05068645,-0.97907535,-0.01569141
1757984451646,-3.77737535,-0.48916559,-3.10064836,-0.04094192,-0.02138760,-0.10134704,0.19364920,-0.05159332,-0.97954908,-0.01793625
1757984451680,0.38054703,1.09800584,1.60530445,0.01666327,-0.04187757,-0.23568583,0.18970441,-0.05131254,-0.98025472,-0.02190756
1757984451701,7.48886879,0.59589221,13.16505244,-0.00194908,-0.06673508,-0.45508616,0.18541631,-0.05133301,-0.98095544,-0.02668596
1757984451735,-5.88354718,-0.95951992,-7.83306608,0.11774024,-0.04401470,-0.28303007,0.18117098,-0.04931965,-0.98170809,-0.03152577
1757984451745,23.89041850,-0.16538847,59.05141543,0.47165131,-0.13481389,-0.08401074,0.17794799,-0.04689064,-0.98240238,-0.03195843
1757984451779,-10.52225053,-0.67741722,-21.63273727,0.11869620,-0.03654606,0.01332619,0.17506288,-0.04487874,-0.98302184,-0.03173255
1757984451820,-0.67547380,-0.01460939,-1.49342640,0.09265367,-0.03221905,0.02315964,0.17192527,-0.04300251,-0.98367427,-0.03126357
1757984451854,4.05656561,-1.15933145,10.24421637,0.04850654,-0.06509590,0.08265853,0.16588610,-0.04217062,-0.98479067,-0.02984597
1757984451897,-1.99113780,0.44332143,-4.49561142,0.05564263,-0.03720256,0.05491755,0.16162876,-0.04098543,-0.98558308,-0.02867623
1757984451934,2.03688016,-1.09833947,5.15372804,0.03140155,-0.04185625,-0.02653194,0.15684220,-0.04039822,-0.98636579,-0.02917238
1757984451965,-0.59508254,1.12698366,-1.07035615,-0.11675946,0.01604431,-0.35061282,0.15682521,-0.04219632,-0.98611871,-0.03457182
1757984451986,5.04951442,0.03884564,14.86635557,-0.23860710,0.05857541,0.39802272,0.16079381,-0.04468976,-0.98550660,-0.03041248
1757984452015,-6.71904282,-0.17953372,-16.36889803,-0.13603321,0.06201060,-0.12513686,0.16535529,-0.04667585,-0.98460124,-0.03223948
1757984452040,0.33042072,0.88345466,2.00971839,0.02907393,0.05260817,0.03192903,0.16939970,-0.04631242,-0.98394364,-0.03184036
1757984452072,-1.75918489,-0.12947751,-3.09464494,0.14205428,0.01550904,0.35131059,0.17242848,-0.04400404,-0.98369162,-0.02613157
1757984452105,1.14810204,1.37357927,5.27187580,0.02986382,0.03565740,0.24793105,0.17636278,-0.04352025,-0.98311397,-0.02211508
1757984452140,0.29575809,-0.04063839,0.01289247,0.07481480,0.04646215,0.59476194,0.18206983,-0.04222221,-0.98230785,-0.01179596
1757984452170,2.71682666,1.74166676,7.78790968,-0.12276108,0.08650182,0.07188774,0.18857961,-0.04406363,-0.98101033,-0.01071765
1757984452202,-2.48384194,-1.48461063,-6.78542098,-0.23979583,0.07492371,-0.00198097,0.19388215,-0.04796031,-0.97979281,-0.01074984
1757984452213,12.32069124,0.35639966,40.29068424,-0.36782098,0.16644199,-0.51409869,0.19781341,-0.05000172,-0.97886906,-0.01360309
1757984452236,-7.03836385,-0.82202835,-24.42995628,0.03979193,0.05850618,0.04292257,0.20123043,-0.04954809,-0.97820209,-0.01311377
1757984452283,-1.48248287,-0.36592861,-4.87370044,0.02288382,0.02655008,0.13308827,0.20454632,-0.04901032,-0.97757816,-0.00998619
1757984452314,2.53175079,-0.06149073,7.41934292,0.01518264,0.06560105,0.15378500,0.20953360,-0.04877347,-0.97655479,-0.00758715
1757984452336,3.82625964,2.08676219,8.40539129,0.04188579,0.07667323,0.05452270,0.21353368,-0.04831482,-0.97571522,-0.00699012
1757984452347,8.85933479,0.32680167,15.25123120,0.10367298,0.08504720,0.32171063,0.21585771,-0.04773944,-0.97524320,-0.00520463
1757984452370,-7.18750870,-1.31097622,-18.29161274,0.04479417,0.03021954,0.01237552,0.21753770,-0.04722430,-0.97489568,-0.00506231
1757984452383,0.83870567,0.08518718,1.62934117,-0.01273257,0.03259679,-0.09584143,0.21846586,-0.04730834,-0.97468054,-0.00569487
1757984452425,-2.81723746,-0.40211511,-6.74939831,-0.00660374,0.00950587,-0.03252273,0.21930184,-0.04744636,-0.97448187,-0.00637459
1757984452460,4.07436410,0.39124951,8.06750585,0.01058191,0.03955408,-0.09684035,0.22235690,-0.04726011,-0.97378572,-0.00807898
1757984452481,5.45138646,-0.10261061,7.79070196,0.11164119,0.05439680,-0.06965264,0.22499553,-0.04611579,-0.97322815,-0.00879292
1757984452491,7.81455403,-5.66529306,8.13242753,0.14399478,0.05936844,0.00855280,0.22650816,-0.04535262,-0.97291350,-0.00874759
1757984452515,-9.42688082,0.86794984,-15.74176441,0.00121240,0.02564827,-0.15574640,0.22774445,-0.04533813,-0.97260700,-0.01060876
1757984452529,0.73475632,-0.41504250,0.44887990,-0.03788506,0.02859647,-0.26263984,0.22841715,-0.04559007,-0.97241683,-0.01235531
1757984452550,-3.65216954,0.50059329,-5.75617788,-0.02440259,0.01369911,-0.14040481,0.22890214,-0.04585117,-0.97227025,-0.01385765
1757984452563,4.29723253,-0.91208074,6.26258677,-0.00876175,0.01882840,-0.19658606,0.22931944,-0.04590681,-0.97215069,-0.01510597
1757984452588,-2.77827342,0.51162401,-4.49372237,0.01953514,0.00464545,-0.09327889,0.22953787,-0.04565871,-0.97209169,-0.01629061
1757984452591,323.03396260,-73.60082115,412.54587132,0.40879096,0.04842055,-1.63433735,0.22980201,-0.04498421,-0.97201180,-0.01898727
1757984452629,-29.24106916,6.59993858,-37.70009812,0.03582455,-0.00175429,-0.07401815,0.22967520,-0.04431608,-0.97204452,-0.02036770
1757984452666,1.58776084,-0.07852260,1.73108850,0.12532642,-0.01841180,-0.00822678,0.22865040,-0.04199128,-0.97238606,-0.02052031
1757984452708,0.76776756,1.04389471,0.35659819,0.25574014,-0.05192581,0.12815692,0.22514094,-0.03663352,-0.97347390,-0.01783542
1757984452740,-0.33043432,0.52573366,-1.34057465,0.23253355,-0.06290808,0.16778329,0.22154048,-0.03292461,-0.97447729,-0.01515928
1757984452771,1.72573331,0.74192305,1.10699521,0.09018509,-0.05806863,0.25703129,0.21800297,-0.03153125,-0.97537445,-0.01118815
1757984452805,-1.44546177,-0.72477835,-1.85346728,0.00352221,-0.01417543,0.27623840,0.21710820,-0.03147049,-0.97561897,-0.00642303
1757984452839,-1.39743123,-0.54306437,-0.79543127,0.02397900,0.00738207,0.20489982,0.21780284,-0.03106405,-0.97549385,-0.00294998
1757984452859,4.90078939,1.18240663,2.13873380,0.09724147,0.01603863,0.37283914,0.21869535,-0.03006732,-0.97532945,0.00087162
1757984452870,3.56296646,2.07953274,2.33987579,0.23156144,0.01476979,0.53013341,0.21919738,-0.02879374,-0.97524822,0.00378735
1757984452893,-5.48627106,-2.13847317,-2.60512569,0.14601740,-0.00071420,0.21869825,0.21931491,-0.02715104,-0.97525625,0.00624771
1757984452918,-1.71373155,-0.59821606,-0.84058974,0.06646296,-0.00098175,0.10117937,0.21932194,-0.02632025,-0.97526852,0.00751245
1757984452953,-0.27578770,0.02185787,-0.13155920,0.02915349,-0.00058853,0.06579322,0.21929458,-0.02581444,-0.97527874,0.00865396
1757984452984,1.31342006,-0.02618120,0.83003749,0.04964918,-0.00230490,0.12206074,0.21914258,-0.02504736,-0.97531435,0.01053980
1757984453018,-0.35617665,0.02700814,-0.36005402,-0.00080120,-0.00814521,0.07247614,0.21844881,-0.02506122,-0.97545526,0.01179364
1757984453052,-0.08099136,0.31453462,-0.07685094,0.00863115,0.00920563,0.22878345,0.21892181,-0.02491363,-0.97529784,0.01570583
1757984453087,-0.27155547,-0.28812616,-0.16508945,0.08217878,0.00195471,0.16023967,0.21901258,-0.02350426,-0.97526432,0.01845395
1757984453112,1.29179170,0.30602467,0.24964823,0.03542493,-0.00113138,0.13690409,0.21884643,-0.02306322,-0.97527840,0.02015840
1757984453137,-2.01328807,-0.28976297,-0.68380615,-0.01918618,0.00198131,0.11263230,0.21879631,-0.02330689,-0.97525324,0.02158883
1757984453161,-0.12921751,-0.09217683,0.37655693,-0.05477951,0.00171299,0.15050829,0.21863481,-0.02395055,-0.97523311,0.02335730
1757984453182,-0.12136903,0.25218199,-0.00881988,-0.01629191,-0.00014663,0.16455689,0.21841120,-0.02412650,-0.97523470,0.02513452
1757984453219,-0.57373135,-0.11454730,-0.30765156,0.00361608,-0.00066105,0.09331601,0.21815904,-0.02405978,-0.97524689,0.02685620
1757984453255,0.16887983,0.21084697,0.09311319,0.02803642,0.00048781,0.12842740,0.21795645,-0.02355513,-0.97523811,0.02916789
1757984453288,0.20142886,0.16896674,0.06372793,0.05455975,-0.00144018,0.10923693,0.21769429,-0.02264671,-0.97526209,0.03098669
1757984453310,0.02258014,-0.39343433,0.48513848,0.04287395,-0.00597203,0.16044366,0.21719424,-0.02217938,-0.97532719,0.03273552
1757984453363,-0.40607048,-0.17970717,-0.42912033,0.00429344,-0.00176580,0.06933462,0.21671231,-0.02206603,-0.97537380,0.03456596
1757984453395,0.18283969,-0.09487604,0.16276046,-0.02652453,-0.00998987,0.01838557,0.21589042,-0.02249573,-0.97553564,0.03486380
1757984453447,-0.16462989,-0.11328887,-0.04701437,-0.02665710,-0.00619234,-0.00738634,0.21512502,-0.02318348,-0.97569540,0.03467323
1757984453478,0.27996494,-0.12333958,0.66234218,-0.02931397,-0.03324035,-0.05191353,0.21283962,-0.02364078,-0.97621395,0.03386338
1757984453499,-0.14342377,-0.41459224,-0.39435474,-0.07226868,-0.03732691,-0.19373424,0.21124131,-0.02441044,-0.97661148,0.03180011
1757984453544,-0.24689210,0.24471261,-0.41399353,-0.02224239,-0.00784719,-0.01275008,0.21041717,-0.02490534,-0.97678608,0.03151642
1757984453586,0.04292999,-0.00391118,0.00977070,-0.02551138,-0.00665741,-0.01796673,0.20975132,-0.02544745,-0.97692755,0.03113463
1757984453617,0.40238546,0.00440991,-0.10934520,-0.05360417,0.00481531,-0.00991983,0.21001565,-0.02626760,-0.97685388,0.03098286
1757984453639,0.31816538,0.11813729,-0.37247982,-0.07811004,0.02696621,-0.01466860,0.21131739,-0.02713462,-0.97655455,0.03082004
1757984453661,-0.39722238,-0.30997286,-0.09109792,-0.04583637,0.02359893,-0.01290637,0.21245860,-0.02763424,-0.97629733,0.03067936
1757984453706,-0.25505222,0.16057334,0.11008997,-0.01887745,0.00977045,-0.01137445,0.21344313,-0.02805709,-0.97607847,0.03042457
1757984453743,0.11238496,0.19141486,0.06111569,0.01787634,0.01464426,0.07474050,0.21451501,-0.02772817,-0.97580901,0.03179980
1757984453780,-0.15245168,-0.11160022,0.06176782,0.03428752,0.00365781,0.00411397,0.21490038,-0.02708013,-0.97573988,0.03187755
1757984453816,-0.01507895,-0.03338285,0.10105650,-0.02745101,-0.00079529,0.02040981,0.21471868,-0.02757150,-0.97575412,0.03224288
1757984453849,-0.10986473,-0.06295985,-0.00150865,0.01174771,-0.01279787,-0.01954913,0.21382203,-0.02737590,-0.97596720,0.03191739
1757984453872,-0.20833194,-0.22982981,0.00341250,-0.03266028,-0.01969743,-0.06216673,0.21285567,-0.02774660,-0.97619077,0.03121180
1757984453921,0.05104941,0.09569952,-0.03772798,-0.00604582,-0.00941730,-0.00765491,0.21179855,-0.02789533,-0.97642243,0.03102349
1757984453955,0.01031755,0.03421731,0.01020048,0.00256694,-0.00725252,-0.01566747,0.21127715,-0.02785195,-0.97654500,0.03075871
1757984454000,0.06043350,0.06280984,-0.10706750,0.02904368,-0.00373406,0.01602223,0.21092482,-0.02720572,-0.97662808,0.03111520
1757984454034,-0.07181327,0.11536553,0.15423007,0.02391244,-0.00404692,0.04617147,0.21053616,-0.02679443,-0.97669769,0.03190935
1757984454067,-0.02943239,-0.16471561,-0.01241483,0.00016133,-0.00297235,0.02707686,0.21023878,-0.02679175,-0.97674703,0.03235883
1757984454100,0.06556300,0.08325822,0.05579969,0.01275301,0.00439533,0.06306291,0.21043599,-0.02658515,-0.97667583,0.03338045
1757984454146,0.03111843,0.02370050,-0.01910207,0.01866409,0.00438613,0.02994251,0.21084808,-0.02615495,-0.97657473,0.03407062
1757984454176,-0.11523310,0.03915322,0.08898210,0.00825839,0.01017350,0.04317294,0.21147589,-0.02602859,-0.97641907,0.03473117
1757984454206,0.03249672,0.06121781,0.15899900,0.06418550,0.00344558,0.08868643,0.21160854,-0.02506260,-0.97636722,0.03606590
1757984454252,0.01078402,-0.03904998,-0.07948091,0.01506429,0.00311813,0.05031892,0.21177752,-0.02472064,-0.97629643,0.03720814
1757984454263,-0.20985210,0.05637657,1.57843915,0.06257531,0.00194178,0.06689837,0.21180168,-0.02437648,-0.97628575,0.03757608
1757984454319,0.03883587,-0.06487697,-0.31134617,0.04103469,-0.00030732,0.03835149,0.21169729,-0.02322135,-0.97629441,0.03865567
1757984454341,0.01784485,0.06067750,0.70074500,0.10010617,-0.00923412,-0.02870900,0.21140667,-0.02213019,-0.97639506,0.03834275
1757984454387,-0.03326967,-0.16288394,-0.33900907,-0.00604358,0.00094059,-0.00237793,0.21150167,-0.02226889,-0.97637347,0.03828817
1757984454408,0.18009043,0.17175210,0.16389974,0.06087538,-0.00133243,0.03636106,0.21143395,-0.02162970,-0.97638746,0.03866996
1757984454453,-0.01942923,-0.01986644,-0.17358464,-0.00581790,0.00076875,0.00035853,0.21149847,-0.02175973,-0.97637028,0.03867798
1757984454486,-0.08588720,0.00821194,-0.02603755,-0.00218515,0.00219523,0.01608968,0.21161669,-0.02179688,-0.97633296,0.03895150
1757984454508,0.22690630,0.01497744,0.00076324,0.02040186,-0.00239617,0.01291348,0.21149754,-0.02158266,-0.97635812,0.03908709
1757984454558,-0.03568258,-0.01463348,-0.08502160,-0.00406144,-0.00051782,-0.00312944,0.21144171,-0.02168440,-0.97637109,0.03900870
1757984454589,-0.07311848,0.10299083,-0.23799988,-0.00958143,0.00116269,0.01822720,0.21145763,-0.02183578,-0.97635272,0.03929669
1757984454634,0.07799021,0.01267921,0.06299963,0.00372441,0.00145387,0.01967766,0.21153353,-0.02175310,-0.97632045,0.03973353
1757984454672,0.09913915,0.08406801,-0.22320348,-0.00469283,0.00524533,0.06732016,0.21174061,-0.02184250,-0.97622052,0.04101598
1757984454703,0.01604012,0.03055839,0.04343966,-0.01044543,0.00255950,0.08469516,0.21164743,-0.02200597,-0.97618047,0.04234146
1757984454740,-0.03081104,-0.16115619,0.05362823,-0.00686590,0.00008639,0.00404010,0.21162670,-0.02213231,-0.97617888,0.04241580
1757984454772,0.01291543,0.04337371,-0.11276253,-0.00005052,0.00226356,0.03210033,0.21169069,-0.02213312,-0.97614232,0.04293422
1757984454804,0.00331323,0.01541784,0.08137999,-0.00753557,-0.00239656,0.02553436,0.21141609,-0.02225444,-0.97618090,0.04334532
1757984454837,-0.00098076,-0.12504350,0.06357985,-0.01832167,-0.00862624,0.01034939,0.21068607,-0.02255858,-0.97632410,0.04351712
1757984454869,0.05701707,0.21755362,-0.08380524,-0.00694682,-0.00568104,0.06573628,0.21004846,-0.02266695,-0.97641272,0.04454261
1757984454880,0.97838364,0.86934212,-0.82121843,0.03000453,-0.02307196,-0.00932649,0.20947106,-0.02249743,-0.97654308,0.04448991
1757984454947,-0.24630172,-0.25215937,0.26135233,-0.01171507,-0.00407861,-0.03489346,0.20903673,-0.02288930,-0.97667951,0.04332273
1757984454977,0.07022421,0.03743870,-0.08138405,0.02352435,-0.00825526,0.03885993,0.20836937,-0.02253408,-0.97680417,0.04390951
1757984454998,-0.04667290,-0.18508696,-0.28782116,-0.04830968,-0.01253019,-0.03968119,0.20779484,-0.02303167,-0.97693323,0.04350080
1757984455031,-0.07148371,0.02531287,0.15165976,-0.00624792,-0.00541340,-0.02933568,0.20746594,-0.02313414,-0.97702201,0.04301969
1757984455070,-0.03609502,0.10803389,0.04545176,0.00030041,-0.00071199,-0.00759935,0.20743127,-0.02312817,-0.97703614,0.04286885
1757984455114,0.03086402,-0.02911938,-0.13634803,-0.00590187,0.00124448,-0.03426167,0.20769569,-0.02325595,-0.97700920,0.04212708
1757984455156,-0.06154275,0.00349179,-0.10155662,0.00522768,0.00062741,-0.00368011,0.20778579,-0.02314591,-0.97699599,0.04204961
1757984455201,-0.09816357,0.04200929,-0.02509302,0.01225647,-0.00851107,0.01900597,0.20682876,-0.02287075,-0.97718706,0.04247630
1757984455243,0.01089368,-0.02873703,-0.11092052,-0.01150712,-0.00520284,0.00948215,0.20623687,-0.02311527,-0.97729762,0.04267779
1757984455276,-0.00345818,0.46572446,-0.50179323,0.03741717,0.00462649,0.06356642,0.20644580,-0.02250163,-0.97722175,0.04372028
1757984455298,-0.04313602,-0.44113683,-0.07347886,0.04978044,0.00683403,0.06777140,0.20670236,-0.02195156,-0.97714623,0.04446916
1757984455345,0.09657656,-0.09104583,0.56015935,-0.00151541,-0.00039716,0.01060002,0.20660025,-0.02198732,-0.97715561,0.04471932
1757984455378,0.02558020,0.06820083,-0.30222418,0.00525410,-0.00041957,0.06061749,0.20636137,-0.02190194,-0.97716242,0.04570435
1757984455399,-0.11457732,0.32566239,-0.31872094,-0.02699304,-0.00030355,0.04594162,0.20620635,-0.02218942,-0.97716566,0.04619363
1757984455446,0.04751952,-0.18757672,0.35697997,0.01705060,0.00171517,0.02457803,0.20630920,-0.02179129,-0.97712561,0.04676753
1757984455488,-0.09545463,0.01896170,-0.08927595,-0.00481001,-0.00003558,-0.00726478,0.20632974,-0.02189350,-0.97712636,0.04661315
1757984455499,-0.83716207,0.81390048,-3.11522960,0.01456431,-0.00286970,0.13777718,0.20610387,-0.02181777,-0.97714129,0.04732959
1757984455571,0.17283507,-0.16891924,0.60126822,-0.00276269,-0.00143242,0.00152855,0.20583601,-0.02191722,-0.97719285,0.04738462
1757984455602,-0.16004594,0.03355158,-0.33499698,-0.00442665,-0.00160221,0.02153386,0.20562900,-0.02198738,-0.97721825,0.04772593
1757984455637,0.05608665,-0.04715993,0.15625210,-0.00321558,-0.00258228,-0.03236562,0.20553966,-0.02204318,-0.97726305,0.04716439
1757984455669,-0.14585684,-0.12997410,0.07800979,-0.00230604,-0.00643584,-0.06626821,0.20528488,-0.02208030,-0.97736667,0.04609747
1757984455701,0.06508971,0.15498859,-0.08137669,-0.00317524,-0.00334579,0.00777988,0.20499724,-0.02213095,-0.97742003,0.04622156
1757984455743,0.08422397,-0.00270513,0.04069391,-0.00262576,-0.00377560,-0.01360998,0.20467417,-0.02218661,-0.97750008,0.04593303
1757984455783,-0.00842515,0.02886420,0.05230652,-0.01562683,-0.00196804,-0.03164858,0.20459394,-0.02249602,-0.97753904,0.04530638
1757984455818,-0.10349342,0.04497410,-0.24209821,0.01539352,-0.00579113,0.00634069,0.20411947,-0.02222972,-0.97763923,0.04541608
1757984455852,0.04859345,0.04727095,0.08683092,0.01777496,-0.00155512,0.04162056,0.20386223,-0.02192221,-0.97766613,0.04613611
1757984455888,-0.00477449,-0.09751357,0.01476936,-0.02123812,-0.00625988,-0.02203164,0.20337050,-0.02230343,-0.97777850,0.04574065
1757984455899,-2.29481991,0.56542202,-3.64545206,-0.00913911,-0.02497785,0.06747512,0.20260555,-0.02235461,-0.97791837,0.04611851
1757984455955,0.49498844,-0.06780316,0.88833824,0.01491404,-0.00229429,0.04615682,0.20204609,-0.02194000,-0.97798215,0.04740167
1757984455966,-1.19902825,0.66992223,0.06798614,0.13626688,-0.03366206,0.03700540,0.20116433,-0.02117691,-0.97817066,0.04760890
1757984455989,0.32192816,-0.30475582,-0.00876304,-0.05041829,-0.01727302,-0.00101384,0.20015902,-0.02174411,-0.97836498,0.04759749
1757984456012,0.08298875,-0.06884914,0.03605692,-0.03091959,-0.01431058,-0.01736048,0.19934051,-0.02210897,-0.97853385,0.04739264
1757984456043,0.14451121,-0.05185087,0.07060776,-0.00346763,-0.00840538,0.00881590,0.19865468,-0.02216323,-0.97866539,0.04753061
1757984456045,-106.04641731,-11.04707133,8.35793806,0.21211903,-0.24875044,0.15365707,0.19772339,-0.02200414,-0.97885196,0.04764585
1757984456066,7.28086261,0.72699082,-0.54009857,-0.00592082,-0.01633298,0.00127531,0.19685406,-0.02206691,-0.97902508,0.04765937
1757984456100,0.17753358,0.03173637,-0.00432281,-0.01063000,-0.00451374,-0.00017601,0.19645949,-0.02224443,-0.97910046,0.04765643
1757984456111,-0.93226813,0.28064033,0.42528280,-0.00442626,-0.02192013,0.06780355,0.19571942,-0.02227032,-0.97922870,0.04805308
1757984456134,0.43404092,-0.09620196,-0.11065540,0.00408337,-0.00897087,-0.01239555,0.19525746,-0.02222479,-0.97932872,0.04791487
1757984456144,0.04453171,-0.17597801,-0.11266142,0.00373588,-0.01745817,-0.00950784,0.19480745,-0.02220499,-0.97942125,0.04786448
1757984456167,0.17288318,-0.02507623,-0.04229667,0.00443097,-0.00650215,-0.01219984,0.19447874,-0.02215514,-0.97949440,0.04772723
1757984456178,-0.66398151,-0.29393054,0.87660973,-0.00558873,-0.01625429,-0.04778629,0.19408889,-0.02218588,-0.97958380,0.04746440
1757984456201,0.14616313,0.11917124,-0.17258194,-0.00339112,-0.00499229,0.00205852,0.19378995,-0.02222471,-0.97964096,0.04748797
1757984456213,-0.05080096,0.07581585,0.10010435,-0.02268879,-0.00997281,0.00391441,0.19344683,-0.02236878,-0.97970429,0.04751283
1757984456248,0.07553603,0.00103365,-0.13031528,-0.00150261,-0.00290112,-0.00548951,0.19321415,-0.02239463,-0.97975419,0.04741841
1757984456281,-0.16817282,-0.34843416,0.16585119,-0.03245058,-0.01181043,-0.07007575,0.19243949,-0.02293168,-0.97994965,0.04625866
1757984456301,-0.09130343,0.27796375,0.26433602,-0.04242819,-0.00971217,-0.03327919,0.19196132,-0.02336657,-0.98004920,0.04591755
1757984456345,0.13123348,0.13220172,-0.24826061,-0.00372357,-0.00249092,-0.00215690,0.19168205,-0.02344868,-0.98010412,0.04586999
1757984456368,-0.55232103,-0.16129973,0.00673980,-0.00399623,-0.01493510,-0.07727358,0.19103112,-0.02349304,-0.98026990,0.04501225
1757984456414,0.12762230,0.06921505,-0.07471009,0.00541430,-0.00522345,-0.00491117,0.19045559,-0.02336851,-0.98039004,0.04489929
1757984456446,-0.16265751,0.01918528,-0.07450581,-0.00990887,-0.01030640,-0.00376993,0.18959943,-0.02352705,-0.98055495,0.04483897
1757984456480,-0.04196304,0.04842914,-0.21025816,-0.01245846,-0.00785918,-0.01965687,0.18894457,-0.02374383,-0.98069170,0.04449694
1757984456513,-0.10635624,0.17879703,0.02286586,0.02878636,-0.00313514,0.08196863,0.18841596,-0.02327317,-0.98074295,0.04583713
1757984456546,0.12002701,-0.11086298,-0.06706877,0.03241867,-0.00513395,-0.01942378,0.18811869,-0.02273988,-0.98082741,0.04551761
1757984456557,-1.67457309,-0.57190221,-1.77246677,-0.06229207,0.00142060,0.07291837,0.18802291,-0.02307314,-0.98081981,0.04590772
1757984456579,0.82411097,0.43160753,0.82812568,-0.00401942,-0.00268288,0.09443577,0.18760466,-0.02311756,-0.98084945,0.04695124
1757984456602,0.08516812,-0.02620233,0.01191684,-0.00361601,-0.00355392,0.06074240,0.18721449,-0.02315860,-0.98088979,0.04764067
1757984456647,0.21580239,-0.10586901,0.16869772,-0.00884711,-0.00014063,0.01093438,0.18710922,-0.02335987,-0.98089299,0.04788942
1757984456681,-0.44892650,0.26813117,-0.26283091,-0.00742711,-0.00249331,0.05023423,0.18664470,-0.02348762,-0.98093587,0.04875345
1757984456720,0.18175618,-0.17084632,0.11987073,0.00658022,-0.00284526,0.03670735,0.18618386,-0.02336029,-0.98099093,0.04946374
1757984456733,-2.15290121,0.06051793,-1.55258056,-0.01047569,-0.00495965,0.00793746,0.18599163,-0.02342838,-0.98102317,0.04951533
1757984456782,0.72143033,-0.08961550,0.47670152,-0.00162082,-0.00057351,0.00557753,0.18587675,-0.02346785,-0.98103713,0.04965114
1757984456814,-0.15719067,0.03484667,-0.09132892,0.00249866,0.00062522,0.00520723,0.18591220,-0.02342800,-0.98102716,0.04973420
1757984456846,0.04989276,-0.08399976,0.03125744,-0.01544999,0.00371679,-0.00678065,0.18622147,-0.02367365,-0.98096806,0.04962639
1757984456852,-7.55601334,1.96937121,-4.79396831,0.02469391,0.02218185,0.13874117,0.18648637,-0.02359463,-0.98089708,0.05007036
1757984456922,0.75288957,-0.15999391,0.51167898,-0.00158965,-0.00094329,0.00083350,0.18629720,-0.02365043,-0.98093019,0.05009962
1757984456955,-0.31335629,-0.03661138,-0.02517711,0.00815794,-0.00559292,0.00261882,0.18582190,-0.02351745,-0.98102136,0.05014230
1757984456986,0.03188953,0.04145413,0.03347420,0.03899200,-0.00769041,0.04932004,0.18504626,-0.02290333,-0.98114248,0.05091909
1757984457020,0.10553348,-0.03335477,0.07324828,-0.00134215,-0.00493263,-0.01321081,0.18466120,-0.02292608,-0.98122609,0.05069517
1757984457052,0.05488619,-0.02056864,-0.01618449,-0.01323923,0.00262462,-0.00311139,0.18487277,-0.02313923,-0.98118383,0.05064508
1757984457116,0.08666690,0.03745264,0.02150766,0.00601981,0.00465884,0.01530479,0.18554766,-0.02294780,-0.98103568,0.05113177
1757984457150,-0.23303288,-0.16549828,-0.02002257,-0.00424934,0.00771745,-0.05602209,0.18648995,-0.02302004,-0.98090448,0.05017939
1757984457205,0.06213532,0.05760389,-0.06402341,0.00740745,-0.00126862,-0.01551197,0.18644552,-0.02281522,-0.98093956,0.04975049
1757984457238,-0.07976100,-0.06710443,-0.01430578,-0.00737128,0.00157074,-0.01040462,0.18661008,-0.02293501,-0.98091404,0.04958141
1757984457270,-0.02492314,0.23999887,-0.08058993,0.01244992,0.00297444,0.03338027,0.18674476,-0.02273145,-0.98086540,0.05012718
1757984457292,-0.00294093,-0.37795709,-0.13449196,-0.00077661,0.00324264,-0.05669684,0.18708593,-0.02273972,-0.98083087,0.04952336
1757984457325,0.11281375,0.08871641,0.04466739,-0.01713005,0.00312553,-0.01198895,0.18737986,-0.02302836,-0.98077821,0.04932134
1757984457347,-0.34295998,0.69044998,-0.49120871,0.02158412,0.00006491,0.03457526,0.18731398,-0.02279741,-0.98077751,0.04969130
1757984457394,0.23369855,-0.24581083,0.27831910,0.00457091,0.00051937,0.01497085,0.18729712,-0.02268908,-0.98076520,0.05004611
1757984457432,-0.05024026,-0.02837252,-0.08973713,-0.00513387,0.00351841,0.01944356,0.18753295,-0.02278534,-0.98069923,0.05041067
1757984457474,-0.05073868,0.05590947,-0.08509331,-0.00160065,0.00346717,0.02370588,0.18777613,-0.02281912,-0.98062607,0.05091087
1757984457524,0.06377191,-0.05607173,0.07704940,-0.00567955,-0.00043105,-0.00365636,0.18772720,-0.02296139,-0.98063687,0.05081928
1757984457560,-0.05531681,-0.02066752,-0.15631204,0.00625945,-0.00677446,0.01664262,0.18701536,-0.02284778,-0.98075983,0.05112134
1757984457593,0.08352092,-0.07235078,0.06854837,-0.02419545,-0.00346378,-0.01082747,0.18672224,-0.02323733,-0.98081560,0.05094702
1757984457626,0.08327682,0.03328951,0.03542779,-0.01287819,0.00015165,-0.01669821,0.18678508,-0.02345432,-0.98081304,0.05066565
1757984457637,0.60557115,0.93112060,-1.49211683,0.14524366,0.01061718,0.11891722,0.18700348,-0.02268453,-0.98075677,0.05129591
1757984457671,-0.12308513,-0.22152484,0.50648966,0.00448323,0.00295081,-0.01192285,0.18733099,-0.02260832,-0.98070661,0.05109323
1757984457740,-0.01651510,-0.01208568,0.08703524,-0.00575984,0.00187421,0.00396180,0.18760706,-0.02280645,-0.98064213,0.05122951
1757984457787,-0.06704767,-0.03664504,-0.32856725,0.00477961,-0.00539168,-0.00555901,0.18699166,-0.02269390,-0.98076911,0.05109860
1757984457828,0.03860435,0.00213364,0.21225896,-0.00856237,-0.00070253,0.01157817,0.18682847,-0.02287071,-0.98078361,0.05133769
1757984457859,-0.03562214,-0.06754439,-0.08121660,0.05151804,-0.00242151,-0.03029071,0.18685621,-0.02206187,-0.98082163,0.05086212
1757984457903,0.06362253,-0.03728292,0.12671553,-0.01541222,-0.00173054,-0.04158105,0.18686278,-0.02240017,-0.98085962,0.04994942
1757984457926,-0.06581020,-0.14676291,-0.28545967,-0.00901369,-0.00769004,-0.06441664,0.18658735,-0.02250203,-0.98094651,0.04922151
1757984457976,-0.03073281,0.12454614,0.13669955,-0.00999771,-0.00120728,-0.02213087,0.18654313,-0.02275397,-0.98097694,0.04866381
1757984457988,0.57571859,-1.27617573,-1.41670442,-0.05021969,-0.00657903,-0.13933437,0.18651602,-0.02304273,-0.98101477,0.04786264
1757984458032,-0.07942790,0.29146751,0.38108468,0.00259915,-0.00140123,-0.02909689,0.18652420,-0.02298477,-0.98104601,0.04721378
1757984458075,0.00247134,0.06536196,-0.13627652,-0.00641450,-0.00234252,-0.02623814,0.18638414,-0.02312268,-0.98109638,0.04664966
1757984458110,0.00850480,-0.13146787,-0.10061930,-0.00755350,-0.00464305,-0.02977146,0.18607569,-0.02325223,-0.98117601,0.04613908
1757984458161,-0.01618386,-0.00675897,0.11702966,-0.01607730,-0.00200688,-0.02150371,0.18588701,-0.02366702,-0.98122778,0.04558428
1757984458171,-0.73154321,-4.67735202,-7.10701737,-0.18138121,0.00620917,-0.19000791,0.18614723,-0.02451951,-0.98119860,0.04469125
1757984458213,0.19535690,1.11539864,1.52205164,0.01024680,0.00084509,-0.04288140,0.18648826,-0.02430074,-0.98118056,0.04377573
1757984458247,-0.06563340,0.04482053,0.00653144,-0.02189601,0.00399926,-0.01931121,0.18686328,-0.02466312,-0.98111437,0.04345613
1757984458266,-0.02681617,-0.04295934,-0.15704953,0.00164750,0.00550255,0.01591485,0.18711203,-0.02464698,-0.98106045,0.04361209
1757984458281,0.12994624,-0.03469436,-0.03373542,0.03455043,0.00057346,0.00543566,0.18715903,-0.02438785,-0.98105615,0.04365286
1757984458301,-0.01723061,0.02528405,0.13364600,0.00853375,0.00258512,0.01182661,0.18727381,-0.02430550,-0.98103120,0.04376699
1757984458315,0.08361827,0.03096934,0.05819202,-0.01040269,0.00389062,-0.00129299,0.18741294,-0.02438040,-0.98100319,0.04375768
1757984458320,0.83304196,0.08423894,-2.85970935,-0.03399423,0.00770538,0.00628388,0.18750761,-0.02447388,-0.98098200,0.04377496
1757984458367,-0.13470405,0.01891550,0.50414607,-0.00526521,0.00082216,0.00999020,0.18753729,-0.02459656,-0.98096284,0.04400773
1757984458389,0.06628878,0.06462697,-0.51017053,-0.02752237,0.00389160,0.01618402,0.18768256,-0.02490619,-0.98091906,0.04418980
1757984458402,0.29853933,-0.40028793,0.02538257,0.00775491,0.00015288,-0.04123392,0.18775332,-0.02485849,-0.98091812,0.04393621
1757984458420,-0.07150945,-0.03653265,0.35270191,-0.04398682,0.00266509,-0.05039987,0.18793328,-0.02525877,-0.98089387,0.04347757
1757984458439,0.11510513,0.18165516,-0.04807417,-0.04449175,0.00530242,-0.02874717,0.18820169,-0.02568145,-0.98084349,0.04320447
1757984458459,-0.07337603,0.10596595,0.18429499,-0.00442707,0.00289481,-0.00610992,0.18836205,-0.02572616,-0.98081426,0.04314276
1757984458471,-0.08616509,-0.14475790,0.03537286,-0.00844742,0.00347813,0.01380501,0.18844409,-0.02577642,-0.98079356,0.04322490
1757984458491,-0.09656103,-0.00594574,0.10577900,-0.00099640,-0.00045727,0.00078859,0.18841725,-0.02578634,-0.98079811,0.04323275
1757984458494,4.26747053,-2.96119272,-1.37536473,-0.09908164,-0.00139222,-0.17039971,0.18844535,-0.02593991,-0.98080027,0.04296863
1757984458514,-0.69849675,0.38032475,0.22870204,-0.01157606,0.00002314,-0.02774935,0.18849341,-0.02605509,-0.98080004,0.04269252
1757984458529,0.01288724,-0.07618283,0.06012680,-0.02660849,-0.00193385,-0.01999098,0.18842274,-0.02625865,-0.98081483,0.04253959
1757984458531,10.52989420,-1.76726473,-3.98922590,-0.13979084,-0.02276211,-0.38365678,0.18838398,-0.02636349,-0.98083190,0.04225185
1757984458543,-1.27080251,0.41412517,0.46019169,-0.01146256,-0.00352566,-0.01825344,0.18828950,-0.02643169,-0.98085288,0.04214324
1757984458560,-0.03760476,0.03626215,0.04085168,-0.01012386,-0.00180690,-0.00439626,0.18820278,-0.02652078,-0.98086878,0.04210456
1757984458563,0.27316008,-1.32542742,1.49922146,-0.07768192,-0.01340544,-0.00416821,0.18809488,-0.02662566,-0.98088688,0.04209893
1757984458573,-0.16775959,0.31844052,-0.28184996,-0.01097027,-0.00338192,0.00775901,0.18798916,-0.02668106,-0.98090396,0.04213811
1757984458592,-0.00079150,-0.00004030,-0.00070962,-0.01325455,-0.00322035,-0.00829784,0.18783257,-0.02680432,-0.98093391,0.04206094
1757984458621,-0.00562938,-0.01534661,0.00790692,-0.00563796,-0.00002934,-0.00017339,0.18781927,-0.02688579,-0.98093433,0.04205844
1757984458636,-0.05169288,-0.06673172,0.23665960,-0.01158414,-0.00683017,0.00527372,0.18752053,-0.02697557,-0.98098727,0.04209931
1757984458650,-0.29861181,-0.08993915,-0.11803211,-0.01226214,-0.00512792,-0.00459710,0.18732750,-0.02706140,-0.98102316,0.04206713
1757984458661,-0.17543574,0.01517520,-0.08134935,-0.02026774,-0.00398895,-0.01774881,0.18721436,-0.02717693,-0.98104590,0.04196596
1757984458677,0.20047654,0.01018206,-0.06001921,0.00695134,-0.00366107,-0.03216622,0.18712863,-0.02712271,-0.98107445,0.04171506
1757984458712,0.06314491,0.00744222,0.00226166,-0.00193013,-0.00321124,-0.01767379,0.18689567,-0.02715678,-0.98113113,0.04140312
1757984458734,-0.22475082,-0.17081414,0.23210322,-0.02003504,-0.00424762,0.00434496,0.18661397,-0.02737215,-0.98117680,0.04144983
1757984458748,0.48871615,0.44487213,-0.51526695,0.04287499,-0.00835470,0.01274041,0.18633223,-0.02707417,-0.98123486,0.04153838
1757984458773,-0.10411386,-0.09407802,-0.00192304,-0.00660135,-0.00769160,-0.08162079,0.18604188,-0.02715570,-0.98132985,0.04053036
1757984458790,-0.36268824,-0.13594757,0.23256421,-0.03030614,-0.00527800,-0.08179436,0.18591313,-0.02742239,-0.98137630,0.03981057
1757984458804,0.22167017,0.11618077,-0.05304927,-0.02461807,-0.00235874,-0.00861717,0.18581122,-0.02759841,-0.98139316,0.03974896
1757984458821,0.01897204,0.06212750,-0.08711960,0.01100417,-0.00312778,0.01375164,0.18566045,-0.02750543,-0.98141959,0.03986516
1757984458836,-0.08598273,-0.01316570,0.03694359,0.00553581,-0.00193997,0.00958336,0.18557537,-0.02746446,-0.98143395,0.03993607
1757984458860,0.02142267,0.06220273,-0.02037739,-0.00392862,-0.00126934,-0.00877640,0.18550991,-0.02751200,-0.98144931,0.03982988
1757984458881,-0.24125137,-0.06870401,-0.06966617,0.00121959,0.00027946,-0.00898446,0.18554738,-0.02749925,-0.98144639,0.03973599
1757984458899,0.07549918,-0.09212290,-0.12756495,0.00208324,-0.00048255,-0.02439565,0.18557304,-0.02748123,-0.98145056,0.03952497
1757984458914,-0.05215752,0.13577625,-0.06382497,0.00999931,0.00094666,-0.00909558,0.18563703,-0.02740524,-0.98144337,0.03945584
1757984458930,0.21740914,0.28174617,0.03773557,0.00955913,0.00250276,0.01471279,0.18572966,-0.02732829,-0.98142322,0.03957428
1757984458944,-0.13511712,0.14735820,-0.06470196,0.02641180,0.00075050,0.01347380,0.18576539,-0.02713812,-0.98141782,0.03967129
1757984458968,0.08580807,-0.06588307,0.02675250,0.00321622,-0.00014865,-0.00386938,0.18577134,-0.02710065,-0.98141955,0.03962621
1757984458973,-5.08417126,0.13445526,-3.39057866,-0.01078531,0.00111667,-0.01138595,0.18579024,-0.02713085,-0.98141642,0.03959433
1757984458991,1.62372724,-0.18373664,0.97091446,-0.00773848,0.00005213,0.00196179,0.18577877,-0.02720050,-0.98141595,0.03961199
1757984459004,-0.13659953,-0.01106342,0.02247586,0.00399686,0.00026380,0.01462355,0.18577128,-0.02717432,-0.98141422,0.03970777
1757984459012,-0.63384156,0.30189980,-0.87566554,0.01887326,-0.00260018,0.02122369,0.18571307,-0.02710354,-0.98142397,0.03978736
1757984459022,0.31319901,-0.01455365,0.38061454,0.02015300,-0.00048411,0.01987339,0.18569228,-0.02699572,-0.98142656,0.03989369
1757984459036,0.15988763,0.06610427,0.27259926,0.01825376,-0.00046123,0.01930773,0.18566545,-0.02687160,-0.98142970,0.04002498
1757984459048,-0.10947901,-0.02735907,-0.00190036,0.01259316,0.00175764,0.03012432,0.18569375,-0.02679415,-0.98141889,0.04021024
1757984459052,-6.46549876,2.54560321,-3.19754084,0.04472043,0.01016218,0.10613808,0.18575313,-0.02672260,-0.98140263,0.04038006
1757984459068,1.41166563,-0.57258194,0.62627426,0.01344940,0.00103018,0.00799487,0.18579933,-0.02661231,-0.98139418,0.04044562
1757984459073,-1.77489921,0.06052602,-1.41522885,0.01615972,0.00321944,0.03554453,0.18583115,-0.02656787,-0.98138533,0.04054337
1757984459092,0.59885049,-0.05610724,0.40328951,0.01133196,0.00015120,-0.00961403,0.18587241,-0.02646419,-0.98138395,0.04045540
1757984459096,-3.83405365,-0.21646733,-2.45411340,0.04428170,-0.00320449,0.00992987,0.18584556,-0.02637120,-0.98139068,0.04047625
1757984459120,0.68285539,-0.00253019,0.45999298,0.00076080,0.00004297,-0.00310489,0.18585779,-0.02636199,-0.98139016,0.04043868
1757984459122,-46.62057476,7.67707414,-32.09565078,0.16005361,-0.02369064,0.04899705,0.18577294,-0.02624195,-0.98140793,0.04047543
1757984459137,4.54341749,-0.70221910,3.15089098,0.01179465,-0.00188968,0.00638554,0.18569960,-0.02615290,-0.98142219,0.04052364
1757984459155,0.01397012,-0.01852698,0.00926525,0.01132539,-0.00092092,0.00690825,0.18565486,-0.02604701,-0.98143080,0.04058823
1757984459157,-44.62379822,-0.41002802,-16.64955160,0.07505549,-0.02795138,0.16556700,0.18550733,-0.02598321,-0.98145456,0.04072897
1757984459168,6.62704497,-0.04948054,2.54426267,0.01251359,-0.00373882,-0.00589329,0.18541106,-0.02591126,-0.98147606,0.04069508
1757984459210,0.08327754,-0.00146931,0.04080856,-0.00230318,-0.00046165,-0.00089991,0.18535763,-0.02595916,-0.98148566,0.04067636
1757984459219,-2.87274715,-0.89248094,-1.66201293,0.00773003,-0.00947449,-0.09867705,0.18524053,-0.02592631,-0.98152593,0.04025698
1757984459265,0.51489576,0.20781828,0.30069923,0.00716572,0.00014020,0.00972730,0.18523173,-0.02575935,-0.98152266,0.04048363
1757984459323,0.00592099,0.01124726,0.03265124,0.02314871,-0.00136892,0.01194657,0.18503669,-0.02508572,-0.98156250,0.04083128
1757984459377,-0.00266305,-0.06748849,0.02888211,-0.00732036,-0.00349702,-0.01704610,0.18461019,-0.02528301,-0.98165674,0.04037188
1757984459428,0.08543320,-0.06008650,0.01823655,-0.02685490,0.00183950,-0.01772179,0.18485872,-0.02595706,-0.98161057,0.03992707
1757984459446,0.36906391,-0.42090958,0.28218563,0.00110211,0.01570876,-0.06085287,0.18574064,-0.02594698,-0.98146684,0.03937026
1757984459474,-0.27152691,0.43399824,-0.15715789,0.03725906,0.00206279,-0.03706923,0.18607673,-0.02542163,-0.98143775,0.03884759
1757984459511,-0.05274035,-0.04781056,-0.02964009,-0.00760833,0.00101644,-0.00934063,0.18619352,-0.02556352,-0.98141879,0.03867338
1757984459531,-0.08863470,-0.14719515,0.09899246,0.00985189,-0.00171124,0.00248039,0.18611452,-0.02546845,-0.98143531,0.03869732
1757984459545,-0.05867589,0.02101862,-0.01227208,0.01582293,-0.00307094,0.02272083,0.18597558,-0.02535136,-0.98145803,0.03886545
1757984459563,0.06474393,0.15973283,-0.08206858,0.00854950,-0.00097697,0.02379104,0.18589746,-0.02527698,-0.98146653,0.03907244
1757984459578,0.07515343,0.09717660,-0.02642706,0.00794715,0.00021524,0.01101459,0.18589669,-0.02521658,-0.98146490,0.03915615
1757984459587,0.12779625,-0.02272711,0.19065658,0.00332666,-0.00016272,0.00088880,0.18589395,-0.02520128,-0.98146564,0.03916024
1757984459602,-0.00588426,-0.02881495,-0.20920736,0.00401495,-0.00004972,-0.00406100,0.18590225,-0.02517197,-0.98146601,0.03913059
1757984459604,1.04357650,-2.85757577,2.46593262,0.03463126,0.00316895,-0.03703352,0.18594021,-0.02512695,-0.98146189,0.03908245
1757984459618,-0.20005324,0.52243845,-0.45746581,0.00085064,0.00108767,-0.01898931,0.18600662,-0.02512121,-0.98145455,0.03895427
1757984459625,0.12282581,0.03012185,0.00251789,-0.00836814,0.00365382,-0.02475302,0.18608475,-0.02514924,-0.98144231,0.03887135
1757984459637,0.03566457,0.23022232,-0.15778043,0.00195541,0.00164324,-0.01287481,0.18615735,-0.02513702,-0.98143204,0.03879088
1757984459643,0.58594064,0.34048438,0.07430549,0.02321309,0.00015521,-0.02042164,0.18617949,-0.02507435,-0.98143162,0.03873574
1757984459654,-0.24557688,-0.21171391,-0.03251136,0.00609998,0.00205823,-0.00069145,0.18624859,-0.02503866,-0.98141958,0.03873170
1757984459664,-0.07329130,-0.21692303,0.05165907,-0.00164668,0.00385274,-0.00242004,0.18634531,-0.02504640,-0.98140147,0.03872032
1757984459675,0.05191689,-0.04966191,0.03513006,0.00103880,0.00119011,-0.00102874,0.18638404,-0.02504032,-0.98139451,0.03871430
1757984459686,-0.08893376,-0.03432087,0.00047943,-0.00996508,0.00451914,0.00581620,0.18649130,-0.02509065,-0.98137168,0.03874367
1757984459703,-0.00414921,0.03246219,-0.01978853,-0.00873260,0.00193708,-0.00013293,0.18656906,-0.02516575,-0.98135503,0.03874253
1757984459708,0.79191254,-0.45610392,-0.02952755,0.00784183,-0.00056600,-0.03400814,0.18658241,-0.02514536,-0.98135650,0.03865411
1757984459722,-0.24687375,0.00690561,-0.02306044,-0.00606774,0.00145189,-0.01028140,0.18664368,-0.02518692,-0.98134655,0.03858368
1757984459730,0.11056541,-0.14749253,0.02642783,-0.03011281,0.00233748,-0.02559131,0.18670307,-0.02531942,-0.98133627,0.03847108
1757984459741,-0.00966875,0.17336513,0.05272205,-0.01614557,0.00405304,-0.00445903,0.18681219,-0.02540741,-0.98131418,0.03844678
1757984459757,-0.01678089,0.16752926,-0.00950120,-0.00240642,0.00172185,-0.00342838,0.18688756,-0.02542666,-0.98130040,0.03841935
1757984459764,0.65106612,0.15813472,0.78297226,-0.00821373,0.00914729,0.06563034,0.18699601,-0.02545336,-0.98127067,0.03863265
1757984459777,-0.26833732,-0.06074865,-0.20202536,0.01480597,0.00392725,0.02670415,0.18710536,-0.02535860,-0.98124554,0.03880356
1757984459786,0.32276651,-0.24524828,0.08535974,0.07114368,-0.00085857,-0.01134445,0.18713879,-0.02503845,-0.98124940,0.03875251
1757984459805,-0.21197991,0.03347359,-0.18824908,0.02739774,-0.00373242,-0.06022991,0.18710494,-0.02477680,-0.98128505,0.03817731
1757984459808,2.37145934,-1.77758692,0.69727292,-0.20129326,0.00382220,-0.12304943,0.18713415,-0.02509887,-0.98127893,0.03798043
1757984459834,-0.30485670,0.25950153,-0.08298410,-0.01409078,0.00053639,-0.00568407,0.18716135,-0.02528417,-0.98127188,0.03790569
1757984459836,29.56435708,4.82754775,18.67461114,-0.08378275,0.02170949,0.15844328,0.18723166,-0.02536795,-0.98125017,0.03806413
1757984459847,-5.35784009,-0.81180229,-3.27623964,-0.02478852,0.00389557,0.00966923,0.18731158,-0.02549933,-0.98122952,0.03811538
1757984459853,1.00424689,-0.07984849,0.35056387,-0.01156429,0.00258688,0.02727897,0.18733211,-0.02553633,-0.98122124,0.03820267
1757984459864,-0.39105985,-0.12304740,-0.34289853,0.01044334,-0.00026108,0.02225786,0.18730763,-0.02547942,-0.98122267,0.03832398
1757984459881,-0.15905547,0.00426131,-0.11184078,-0.00227459,-0.00102560,0.00133506,0.18725790,-0.02549841,-0.98123123,0.03833512
1757984459886,1.45926891,-0.16239811,0.05712658,-0.02492636,0.00327059,-0.00153310,0.18729514,-0.02556447,-0.98122256,0.03833106
1757984459898,-0.50007922,0.17034905,-0.04985797,-0.02269569,0.00141095,-0.01151364,0.18733497,-0.02570064,-0.98121410,0.03826198
1757984459910,0.00993411,0.03078539,0.05960464,-0.00828754,0.00214373,0.00522397,0.18738910,-0.02575037,-0.98120124,0.03829332
1757984459930,-0.10079102,-0.02169045,-0.00438903,-0.01195578,0.00195601,0.01291172,0.18744713,-0.02586693,-0.98118216,0.03841921
1757984459932,9.48925143,-3.07286321,-0.17784136,-0.06979498,0.01722351,0.13076292,0.18750614,-0.02594371,-0.98116322,0.03856305
1757984459945,-1.47112499,0.44759231,-0.03662947,-0.00313821,0.00231383,0.01092855,0.18756974,-0.02596489,-0.98114760,0.03863682
1757984459953,0.36560713,-0.11041434,0.06259466,-0.03635458,0.00362353,0.03909335,0.18759280,-0.02610849,-0.98113329,0.03879124
1757984459965,-0.15048997,0.22776669,0.11843424,0.01249817,0.00163162,0.01329163,0.18763678,-0.02603538,-0.98112374,0.03886899
1757984459975,0.03304387,-0.22032995,0.05600410,0.01415372,-0.00013365,0.03092241,0.18760945,-0.02596036,-0.98112445,0.03903288
1757984459995,-0.17429551,0.06549400,-0.05385143,0.00118318,-0.00158889,-0.00181620,0.18753370,-0.02594883,-0.98113994,0.03901517
1757984459997,6.25023475,-0.44674445,2.37489358,-0.06561296,-0.01070261,-0.01292875,0.18745568,-0.02603084,-0.98115332,0.03899901
1757984460015,-0.85304160,0.00750662,-0.34490740,-0.01156271,-0.00193040,-0.00707619,0.18736400,-0.02613433,-0.98117060,0.03893568
1757984460020,1.51089948,-0.48736489,0.21353442,-0.09821852,-0.00306700,-0.05898883,0.18732708,-0.02634059,-0.98117704,0.03881180
1757984460037,-0.35514627,0.13153367,-0.19079357,-0.01553522,-0.00169428,-0.00127962,0.18723473,-0.02647342,-0.98119152,0.03880086
1757984460042,1.12923859,-0.44754140,-1.24856287,-0.05273397,-0.00600740,0.01249800,0.18712875,-0.02660789,-0.98120684,0.03883273
1757984460055,-0.44363368,0.19847894,0.33132714,-0.00915068,-0.00384665,-0.02818583,0.18702864,-0.02666645,-0.98123146,0.03865234
1757984460064,0.18448022,-0.32364950,0.41752421,-0.00681350,-0.00470751,0.00623262,0.18689650,-0.02669984,-0.98125453,0.03868288
1757984460080,-0.16842757,0.11845937,0.02831119,-0.00584122,0.00016498,-0.00424989,0.18690360,-0.02674540,-0.98125324,0.03864974
1757984460086,0.39408030,-0.32436103,-0.11115085,-0.01622811,-0.00213181,0.02271545,0.18684347,-0.02679895,-0.98126028,0.03872470
1757984460138,-0.08645161,0.06343988,-0.00582077,-0.00128574,-0.00002066,0.00048364,0.18683340,-0.02683187,-0.98126081,0.03873708
1757984460154,0.52268463,0.18276419,-0.87184526,-0.00307366,-0.00070034,-0.02373533,0.18683975,-0.02685661,-0.98126644,0.03854601
1757984460165,-0.28427237,0.00338813,-0.07338194,0.00484847,-0.00057750,-0.02406800,0.18685443,-0.02682946,-0.98126968,0.03841123
1757984460187,-0.18869219,-0.10622497,0.51282497,0.00054512,-0.00117575,0.00133668,0.18678338,-0.02682338,-0.98128279,0.03842613
1757984460202,-0.02974782,0.16838098,0.05247820,0.00447699,0.00114154,0.03831998,0.18677415,-0.02679092,-0.98127451,0.03870395
1757984460221,0.01293562,-0.07443003,0.02424865,0.01042754,0.00022518,0.02879885,0.18674251,-0.02669134,-0.98127236,0.03897898
1757984460225,0.08450478,0.75693342,-2.22771828,0.04240092,0.00238019,0.02637621,0.18676926,-0.02660442,-0.98126748,0.03903305
1757984460244,-0.13002189,-0.22334523,0.51376681,-0.01488296,0.00034298,-0.00479136,0.18677549,-0.02674134,-0.98126433,0.03898897
1757984460255,-0.02482115,-0.00202572,-0.12104114,-0.02638342,0.00202860,0.00226470,0.18681163,-0.02689041,-0.98125286,0.03900177
1757984460265,0.10758660,0.18426371,0.03140246,-0.00023642,0.00107610,0.01603740,0.18682375,-0.02689167,-0.98124711,0.03908757
1757984460276,0.04164880,0.12348220,-0.00832976,0.00135331,0.00310841,0.02333207,0.18688597,-0.02688443,-0.98123048,0.03921239
1757984460287,-0.04184341,-0.02431714,0.18379370,-0.00289736,0.00325474,0.08005672,0.18688482,-0.02689979,-0.98121323,0.03963669
1757984460289,0.90102366,2.80516605,-1.59708772,0.17716243,-0.01568152,0.12939699,0.18677501,-0.02666948,-0.98123361,0.03980491
1757984460303,-0.22420453,-0.66425892,0.20870745,0.05152771,-0.00450359,-0.03383168,0.18671316,-0.02632166,-0.98126401,0.03957655
1757984460311,-0.01950682,-0.02926159,-0.04772203,0.02593846,-0.00422919,-0.03853297,0.18667250,-0.02622050,-0.98128051,0.03942627
1757984460321,-0.04851914,-0.12319629,0.15293326,-0.01213093,-0.00164995,0.01665475,0.18660090,-0.02628298,-0.98128900,0.03951204
1757984460343,0.02675669,0.00349881,0.05061292,-0.00436908,-0.00115635,0.00041007,0.18652423,-0.02633235,-0.98130207,0.03951667
1757984460345,-4.74727260,11.48582959,-9.49023928,-0.17901641,0.00642079,0.00374319,0.18652958,-0.02645766,-0.98129758,0.03951929
1757984460355,0.72953602,-1.55723394,1.21219764,-0.01430836,-0.00112971,-0.00007691,0.18649138,-0.02652634,-0.98130300,0.03951892
1757984460366,-0.03462720,-0.22343751,0.05687116,-0.01506515,-0.00230902,0.00557959,0.18640312,-0.02661221,-0.98131616,0.03955073
1757984460388,-0.00043348,0.00020385,0.01033691,0.00801077,-0.00204692,-0.00490724,0.18630685,-0.02652249,-0.98133909,0.03949577
1757984460402,-0.08197245,-0.18857311,-0.09068596,0.00687344,-0.00383559,-0.02128630,0.18620745,-0.02647610,-0.98136498,0.03935208
1757984460404,-3.10385669,-5.65499067,-6.46379259,-0.03824439,-0.01970400,-0.15728066,0.18613132,-0.02651434,-0.98138468,0.03919480
1757984460444,0.18829219,0.36715521,0.35789690,0.00196055,-0.00029108,-0.00486186,0.18612659,-0.02647454,-0.98139059,0.03909611
1757984460477,-0.05917467,0.02858019,-0.14718813,-0.00633669,0.00077151,0.00668124,0.18615535,-0.02657815,-0.98137797,0.03920535
1757984460489,-0.64324600,0.36790543,-1.42957055,0.06484343,0.00836377,-0.00458808,0.18648596,-0.02618260,-0.98132696,0.03917736
1757984460537,0.17168780,-0.09648361,0.40996157,0.01263557,0.00085464,0.00872564,0.18659186,-0.02587998,-0.98130649,0.03938634
1757984460562,-0.29836442,0.17648673,-0.49016232,0.03044779,0.00519945,0.03326939,0.18689634,-0.02550090,-0.98124175,0.03980054
1757984460589,0.17713208,0.24216194,0.28266650,0.04919319,0.00257409,0.09058575,0.18690375,-0.02484663,-0.98120752,0.04100533
1757984460606,0.02110128,0.32886608,-0.21131232,0.05987430,0.00861015,0.16422748,0.18704575,-0.02432872,-0.98113304,0.04242590
1757984460624,-0.10683093,-0.58022663,-0.07488665,0.02067197,0.00473409,0.03471641,0.18721822,-0.02414681,-0.98109138,0.04273140
1757984460648,0.09414825,-0.34140498,0.14118474,0.01051541,0.00198712,-0.00661804,0.18737745,-0.02402062,-0.98106754,0.04265199
1757984460673,-0.02901659,0.05456685,-0.09219967,0.01122286,0.00458682,0.01706014,0.18764779,-0.02387978,-0.98100997,0.04286609
1757984460684,-0.07713612,0.93491269,-0.99615963,0.07155698,0.01545409,0.17420839,0.18792028,-0.02348621,-0.98092497,0.04382424
1757984460698,0.32682700,-0.22368832,0.97040718,0.02998841,0.00603174,0.09277024,0.18801354,-0.02327779,-0.98088305,0.04446899
1757984460711,-0.08800654,0.17633163,-0.47562909,0.00774494,0.01030882,0.08879795,0.18823515,-0.02322668,-0.98081501,0.04505506
1757984460742,0.06577140,-0.23611006,0.36026823,0.00267647,0.00120584,0.03105818,0.18822158,-0.02318452,-0.98079602,0.04554422
1757984460744,2.58181671,46.53140536,-85.01493533,0.29982015,0.09677589,0.92686653,0.18850455,-0.02291468,-0.98070892,0.04637840
1757984460771,-0.17338602,-3.02248659,5.55155177,-0.00995966,0.00436248,0.03687262,0.18867319,-0.02305063,-0.98064938,0.04688172
1757984460788,0.09536496,0.89790448,-1.14025859,0.03932158,0.02121987,0.22075503,0.18916621,-0.02272230,-0.98047219,0.04872502
1757984460801,0.02418929,-0.48321222,0.89298220,0.01672306,0.01773540,0.16388600,0.18949396,-0.02261527,-0.98035868,0.04977389
1757984460812,0.09058108,-0.04121072,-0.23986788,0.06570027,0.01194623,0.09948604,0.18974060,-0.02224078,-0.98029059,0.05034096
1757984460822,0.11447193,-0.06647603,-0.36266486,0.05124235,0.01928304,0.08396178,0.19014382,-0.02199225,-0.98019707,0.05074818
1757984460856,-0.08135545,-0.25187291,0.41241082,-0.00493456,0.00426563,0.02659570,0.19038583,-0.02207589,-0.98012476,0.05119897
1757984460868,0.63727645,1.48575945,-2.89787050,0.02555801,0.03962717,0.25275130,0.19118450,-0.02192766,-0.97989493,0.05266493
1757984460871,0.69554161,11.10869144,-11.70615026,-0.02645201,0.07985547,0.69723461,0.19154456,-0.02197263,-0.97975917,0.05385023
1757984460888,-0.46685533,-2.92989881,3.89602339,0.01371505,0.01002265,0.11126954,0.19172742,-0.02185468,-0.97967298,0.05480715
1757984460912,-0.07613696,-0.11608540,0.12348363,0.00765846,0.00650421,0.05065227,0.19195793,-0.02176431,-0.97959623,0.05540484
1757984460914,8.91859038,49.18370393,-86.24175186,-0.07287148,0.13089354,0.92821277,0.19236635,-0.02184082,-0.97945879,0.05637947
1757984460934,-1.00692985,-5.01813021,8.96103205,-0.00077985,0.01061603,0.07989263,0.19266539,-0.02184850,-0.97935422,0.05716641
1757984460947,0.09421163,0.30516570,-0.49203513,0.00084894,0.01485286,0.12294256,0.19292358,-0.02184286,-0.97925545,0.05798398
1757984460950,-0.28272192,6.84027321,-15.84472001,0.03384525,0.05799827,0.48966644,0.19318581,-0.02178363,-0.97915395,0.05884089
1757984460979,0.02628023,-1.11439789,2.37553422,0.00354206,0.00579175,0.05256564,0.19337806,-0.02173369,-0.97907229,0.05958207
1757984461001,-0.00068255,0.22960741,-0.41552021,0.02337200,0.01464067,0.11759193,0.19383258,-0.02146841,-0.97890612,0.06091674
1757984461004,6.40684288,39.89581443,-55.54061866,0.32655149,0.14128087,1.15839237,0.19436429,-0.02101124,-0.97870833,0.06253849
1757984461047,-0.41552481,-2.73552291,3.87439737,0.00477051,0.00857413,0.06865245,0.19481719,-0.02090987,-0.97852613,0.06399735
1757984461056,1.78559413,5.67176178,-7.28393865,0.05801760,0.07978502,0.59763147,0.19574384,-0.02064879,-0.97816709,0.06668669
1757984461078,-0.58559473,-2.08569963,2.52743611,0.00122002,0.01571418,0.12991170,0.19611489,-0.02063543,-0.97799502,0.06810923
1757984461099,-0.08266561,-0.10881940,0.32742486,-0.00564758,0.00888791,0.07287432,0.19630758,-0.02069501,-0.97790125,0.06887805
1757984461113,0.02060887,0.18672940,-0.23311673,0.01212867,0.01687747,0.13522512,0.19657785,-0.02060769,-0.97777974,0.06985167
1757984461116,6.72757923,12.41070580,-12.79059303,0.03753942,0.06334938,0.55577491,0.19678207,-0.02054387,-0.97767204,0.07079649
1757984461147,-0.79289531,-1.58620439,1.73143485,0.01031244,0.00774690,0.06154155,0.19704614,-0.02038609,-0.97755352,0.07173807
1757984461149,33.51535084,113.75178947,-106.89706107,0.10561869,0.23020276,1.51377725,0.19761169,-0.02028575,-0.97733482,0.07317616
1757984461166,-3.37706188,-11.88648301,10.86362841,0.01256300,0.02388425,0.14268960,0.19818603,-0.02017645,-0.97712703,0.07441756
1757984461178,0.28203674,0.25141847,-0.05356647,0.01989503,0.02268576,0.15449925,0.19851592,-0.02005808,-0.97699205,0.07533683
1757984461189,-0.14673737,0.11633217,0.43199031,0.04062326,0.02884831,0.21956593,0.19886610,-0.01982856,-0.97682906,0.07657738
1757984461212,-0.14784729,-0.37025558,0.24370973,0.02601411,0.01500134,0.11321630,0.19923229,-0.01953330,-0.97665879,0.07786239
1757984461214,40.23856390,77.26744861,-76.31953051,0.28973900,0.27496171,2.00559827,0.19972770,-0.01928702,-0.97642507,0.07956714
1757984461251,-1.92772567,-3.78993202,3.66635858,0.00569564,0.00890386,0.05896311,0.20010214,-0.01918250,-0.97626169,0.08064912
1757984461256,9.88044019,10.20124944,-19.32842106,0.02284991,0.17826691,0.93135922,0.20147017,-0.01911852,-0.97576254,0.08325692
1757984461283,-2.03640350,-1.94807574,3.89349437,0.01232749,0.01942519,0.11253117,0.20210453,-0.01895642,-0.97550710,0.08473671
1757984461289,2.07011783,6.66883159,-5.82638987,0.16123570,0.10094218,0.63245751,0.20291978,-0.01839209,-0.97515380,0.08695031
1757984461318,-0.58347700,-1.65686661,1.56118740,0.01334507,0.01737193,0.12400505,0.20336409,-0.01820059,-0.97490451,0.08872978
1757984461325,2.07062814,4.31420663,-5.82540708,0.14713751,0.08717736,0.60402515,0.20396184,-0.01766354,-0.97458632,0.09093447
1757984461376,-0.34177785,-0.68187655,0.89005511,0.00662396,0.00615453,0.03672807,0.20430423,-0.01749562,-0.97443030,0.09186553
1757984461402,0.16293987,0.63481376,-0.87851885,-0.02072979,0.04747385,0.27561907,0.20556757,-0.01776303,-0.97381789,0.09542102
1757984461410,1.15405129,1.36302026,-2.45345760,-0.01294469,0.04425279,0.18637945,0.20605962,-0.01781546,-0.97363866,0.09617585
1757984461442,-0.37017015,-0.95313258,1.26753945,-0.00490233,0.01016488,0.03880823,0.20652409,-0.01789292,-0.97347806,0.09678902
1757984461464,0.02099008,-0.16511758,0.03098137,-0.01277271,0.01087893,0.01661830,0.20700019,-0.01803661,-0.97335567,0.09697598
1757984461483,0.09353209,-0.06305588,0.10481203,-0.03108314,0.01281466,-0.01086538,0.20757541,-0.01832258,-0.97323778,0.09687602
1757984461500,-0.12834143,0.17892939,0.21827221,0.03235631,0.01197550,0.04344652,0.20790959,-0.01804269,-0.97313419,0.09725183
1757984461506,0.33664948,0.43253324,0.11239514,0.10217186,0.01637433,0.03558629,0.20811581,-0.01773618,-0.97308506,0.09735859
1757984461518,-0.16504924,-0.19336541,0.06205241,0.02512333,0.00199739,-0.01312999,0.20822585,-0.01757916,-0.97307258,0.09727653
1757984461539,-0.03697227,-0.00557543,0.03762025,0.00394716,0.00115008,-0.01695349,0.20836405,-0.01753909,-0.97306091,0.09710445
1757984461540,16.27474728,6.51760928,7.80475844,0.06371182,-0.00388824,-0.18793991,0.20842381,-0.01748812,-0.97306402,0.09695410
1757984461556,-1.56747514,-0.67340323,-0.74541620,0.00062699,-0.00090757,-0.01970522,0.20846311,-0.01748317,-0.97307119,0.09679843
1757984461561,0.14341386,-0.76604873,0.97790615,-0.03282581,-0.00054405,-0.07884716,0.20854284,-0.01756688,-0.97307258,0.09659737
1757984461572,-0.22765396,0.04089234,-0.37562904,0.00770980,-0.00592228,-0.02457122,0.20845618,-0.01752409,-0.97310544,0.09646099
1757984461580,-0.04934400,-0.02331141,0.51666067,0.01276120,-0.00750158,-0.05471270,0.20842415,-0.01747687,-0.97313320,0.09625856
1757984461591,-0.00205477,0.02667022,-0.16869627,0.00109906,-0.00796751,-0.03037341,0.20829478,-0.01747072,-0.97317782,0.09608847
1757984461608,-0.05237370,0.07782140,-0.08278423,0.00942210,-0.00278186,-0.01169069,0.20823750,-0.01739157,-0.97320119,0.09599026
1757984461612,-0.19602650,-1.00205263,3.05107502,0.01280124,-0.00429647,0.00535019,0.20819131,-0.01736405,-0.97321042,0.09600177
1757984461623,0.27512303,0.42629980,-0.81418822,0.01354026,-0.00826178,-0.00449520,0.20799640,-0.01728958,-0.97325586,0.09597704
1757984461640,-0.09224762,0.04013417,-0.12037497,0.00490540,-0.00038446,-0.00150463,0.20799061,-0.01724886,-0.97325905,0.09596456
1757984461645,0.42101899,0.30041643,1.59619421,0.03640153,-0.00003081,0.02870101,0.20796102,-0.01714512,-0.97325914,0.09604635
1757984461658,-0.06121145,-0.01566314,-0.61609568,0.00522890,-0.00065616,0.01323035,0.20790718,-0.01711296,-0.97326318,0.09612772
1757984461674,-0.00908469,-0.03245076,-0.14367103,0.01151637,-0.00021132,0.00486715,0.20788859,-0.01701968,-0.97326489,0.09616714
1757984461679,0.56875831,-0.56854273,2.30109495,0.01048101,0.00150841,-0.00743624,0.20791585,-0.01699452,-0.97326127,0.09614930
1757984461690,-0.06240564,0.00481497,-0.67098159,0.00746062,-0.00129031,-0.00787733,0.20790592,-0.01695312,-0.97326843,0.09610558
1757984461706,-0.06398567,-0.01310067,-0.14211400,0.00986613,0.00048202,0.00070112,0.20792808,-0.01687320,-0.97326453,0.09611126
1757984461712,0.91941936,-0.46249066,1.63949803,0.03141522,-0.00196355,0.01256643,0.20789007,-0.01677738,-0.97327051,0.09614958
1757984461726,-0.42313268,0.31238600,-0.68609498,0.00613433,-0.00093342,0.00508983,0.20784552,-0.01673352,-0.97327719,0.09618598
1757984461743,-0.10441540,0.08879995,-0.15196608,-0.00013232,-0.00065075,0.00030925,0.20781879,-0.01673463,-0.97328262,0.09618856
1757984461745,-0.38214766,-2.83879914,11.41585172,-0.01309412,-0.00884605,-0.02272857,0.20778203,-0.01674969,-0.97329279,0.09616242
1757984461756,0.17987632,0.30846570,-1.99294217,0.00438550,-0.00926388,-0.05229932,0.20767725,-0.01672535,-0.97334421,0.09587216
1757984461770,0.01283498,-0.08478261,0.03202264,-0.01006623,-0.00949441,-0.07140828,0.20758958,-0.01679631,-0.97341114,0.09536873
1757984461786,-0.06426412,-0.04911604,0.08616112,-0.02307234,-0.00516167,-0.00974327,0.20741989,-0.01697743,-0.97345166,0.09529225
1757984461790,0.51041486,-1.35270631,6.76991027,0.00510094,-0.02676304,-0.06433748,0.20724765,-0.01696825,-0.97349984,0.09517644
1757984461801,-0.10263555,0.74761867,-1.84912936,0.03239334,-0.00518090,0.03524711,0.20703529,-0.01678685,-0.97352885,0.09537382
1757984461818,-0.07136807,0.10262539,-0.24350780,-0.00226333,-0.00058416,0.02891374,0.20689453,-0.01680643,-0.97353390,0.09562393
1757984461823,0.65537802,0.72523399,5.55412494,0.01545954,-0.01133619,0.12157370,0.20662886,-0.01676855,-0.97356168,0.09592178
1757984461837,-0.14942459,-0.23366072,-1.58491439,0.02517179,-0.00602318,-0.01442174,0.20648729,-0.01658731,-0.97360504,0.09581795
1757984461855,0.02346603,-0.07642073,-0.10055563,0.02907811,-0.00861060,-0.03713548,0.20630804,-0.01634015,-0.97367823,0.09550229
1757984461856,2.42747166,-8.87317076,50.32588542,-0.05915221,-0.07401414,-0.29995381,0.20611412,-0.01639339,-0.97374485,0.09523234
1757984461867,-0.55600686,1.02539969,-7.93503060,-0.01379368,-0.01223490,-0.03536191,0.20587766,-0.01646994,-0.97381275,0.09503608
1757984461883,-0.00148278,0.11880457,-0.30915997,-0.00612445,-0.00901426,-0.03982926,0.20568433,-0.01651771,-0.97388306,0.09472541
1757984461890,-0.39979693,-0.67801622,1.73879933,-0.02316207,-0.01657760,-0.06316274,0.20550982,-0.01659646,-0.97393943,0.09451066
1757984461904,0.09087578,0.18893063,-0.80344796,-0.00470916,-0.01330469,-0.03210594,0.20517360,-0.01662896,-0.97403123,0.09428913
1757984461920,0.01238455,-0.02182673,-0.08335164,0.01187765,-0.01256125,-0.02403855,0.20478257,-0.01653156,-0.97413423,0.09409201
1757984461923,-3.85475676,-7.07678961,11.82142635,-0.04410133,-0.06890827,-0.26625130,0.20446838,-0.01659771,-0.97423759,0.09369263
1757984461934,0.82765298,1.89836445,-2.86473239,-0.02738198,-0.01306959,-0.06074998,0.20426080,-0.01675242,-0.97431144,0.09334939
1757984461981,0.06345790,0.08722140,-0.19810773,-0.00863790,-0.00244138,-0.01146484,0.20409612,-0.01695195,-0.97436783,0.09308456
1757984461982,-7.65210106,-46.21292767,105.48009501,-0.58389589,-0.10979791,-0.72593212,0.20385222,-0.01753585,-0.97447763,0.09235862
1757984462005,0.69589321,3.92685829,-9.01916442,0.01100036,-0.00247490,-0.01785007,0.20382047,-0.01741155,-0.97450560,0.09215692
1757984462019,-0.15257956,0.00623195,-0.04896755,0.02434418,-0.00290887,-0.04642942,0.20388292,-0.01724479,-0.97452552,0.09183888
1757984462036,0.08645435,0.07260473,-0.24705464,0.01841228,-0.00541443,-0.03318232,0.20380059,-0.01708368,-0.97457290,0.09154853
1757984462041,-0.93915884,-1.58325097,1.82467672,0.01457226,-0.00878729,-0.13205414,0.20384020,-0.01705235,-0.97459179,0.09126462
1757984462052,0.32613058,0.56528306,-0.67408285,-0.00713825,-0.00674623,-0.04520626,0.20376560,-0.01709447,-0.97463159,0.09099790
1757984462065,-0.09057095,-0.03782324,0.13940160,-0.01173091,-0.00372623,-0.04017496,0.20375993,-0.01716896,-0.97465526,0.09074279
1757984462081,0.03891867,0.04334795,-0.08246797,-0.00577905,-0.00638989,-0.04189530,0.20366233,-0.01721432,-0.97470542,0.09041391
1757984462091,-0.17894382,-0.30032473,0.24284460,-0.00065451,-0.00335196,-0.01977070,0.20362350,-0.01721779,-0.97472318,0.09030913
1757984462114,0.06239157,0.18892737,-0.19672192,0.00316503,-0.00259885,-0.02148376,0.20359347,-0.01718203,-0.97475255,0.09006636
1757984462125,-0.54164518,-0.29661892,0.62456159,0.01374230,-0.01018646,-0.04818404,0.20344728,-0.01710576,-0.97480908,0.08979894
1757984462135,0.42739644,0.44298725,-0.29146372,0.00721928,-0.00081969,-0.00626676,0.20344442,-0.01706858,-0.97481330,0.08976666
1757984462147,0.19436826,0.31065878,-0.12787136,0.00185037,-0.00121775,-0.02686795,0.20348171,-0.01705738,-0.97482067,0.08960411
1757984462151,-1.21362540,1.31690432,2.46927875,0.01549653,-0.00183751,-0.08162954,0.20353568,-0.01702794,-0.97482416,0.08944902
1757984462164,0.32577190,-0.59595753,-0.89272300,0.00765689,-0.00095041,-0.02830152,0.20358718,-0.01698162,-0.97482991,0.08927779
1757984462174,-0.11858234,-0.22944542,0.02292831,0.00990638,0.00128187,-0.01462016,0.20366071,-0.01692713,-0.97482286,0.08919738
1757984462186,0.03044754,0.08286682,-0.09439361,0.01621322,0.00013066,-0.02875540,0.20374655,-0.01683147,-0.97482209,0.08902772
1757984462198,0.08385060,-0.03389418,0.03502194,0.02698219,-0.00073631,0.00132805,0.20373524,-0.01666958,-0.97482651,0.08903569
1757984462202,-2.39836893,-0.35010933,2.13314422,0.04648188,-0.00518250,-0.01994158,0.20371004,-0.01657429,-0.97483713,0.08899481
1757984462215,0.62263303,0.23152189,-0.78512052,0.02450914,-0.00070412,-0.01141201,0.20373253,-0.01642111,-0.97484153,0.08892349
1757984462239,0.11606349,-0.01715703,-0.07304880,0.00424201,-0.00064454,0.00337814,0.20368191,-0.01637021,-0.97484927,0.08896402
1757984462251,0.01067675,0.01404032,-0.04924701,0.00418137,-0.00203274,-0.02162126,0.20368218,-0.01634449,-0.97486177,0.08883105
1757984462253,2.98797909,1.15395199,-4.50965953,-0.03088799,-0.01301434,-0.03586506,0.20363058,-0.01637692,-0.97487544,0.08879340
1757984462268,-0.41589940,-0.17723280,0.63981333,-0.00175233,0.00151156,-0.00115723,0.20368682,-0.01638989,-0.97486425,0.08878483
1757984462291,0.04216855,-0.01502979,0.01185839,0.00342568,-0.00056323,-0.00074178,0.20366259,-0.01635032,-0.97487076,0.08877626
1757984462294,-1.59039548,-7.34502337,7.18727397,-0.14500431,0.01969362,0.01336572,0.20374699,-0.01650983,-0.97484909,0.08879097
1757984462314,0.22044203,0.77009784,-0.76817613,-0.00387539,0.00196024,0.00028108,0.20383907,-0.01654974,-0.97482890,0.08879386
1757984462336,-0.01175590,0.04421379,-0.00627223,-0.00537649,0.00255595,-0.00412760,0.20399251,-0.01661050,-0.97480002,0.08874722
1757984462338,62.76058471,24.37191141,3.47711344,-0.15689337,0.07737477,0.17159250,0.20420406,-0.01672817,-0.97474199,0.08887591
1757984462352,-5.98073817,-2.41306313,-0.52062833,0.02777034,0.00190690,-0.01922138,0.20434207,-0.01653378,-0.97472864,0.08874137
1757984462365,-0.45451951,-0.20521988,0.17876225,-0.00545053,0.00208608,-0.05810281,0.20456569,-0.01656893,-0.97471518,0.08836660
1757984462380,-0.13005124,-0.11398552,0.02770519,-0.01479505,0.00207274,-0.01900111,0.20469137,-0.01667916,-0.97469974,0.08822504
1757984462402,-0.05330238,0.00554366,-0.01056125,-0.01006706,0.00118997,-0.01230904,0.20480142,-0.01678838,-0.97468683,0.08809149
1757984462413,0.42098894,-0.36545634,0.13708707,-0.04691778,0.00362635,-0.03850735,0.20497639,-0.01706285,-0.97466562,0.08786622
1757984462425,-0.26276452,0.04796299,-0.06021099,-0.01535082,-0.00527849,-0.01593707,0.20486491,-0.01715035,-0.97469570,0.08777538
1757984462436,-0.05503661,-0.03990154,0.04402929,-0.01945148,-0.00629538,-0.05015189,0.20480714,-0.01726123,-0.97473159,0.08748952
1757984462446,0.10808562,0.03890734,0.01115299,-0.03892628,-0.00862908,-0.04759270,0.20468557,-0.01745780,-0.97477517,0.08724917
1757984462458,-0.10105896,0.09446027,-0.02823053,-0.02266996,0.00258301,-0.01460709,0.20478670,-0.01759609,-0.97475941,0.08716007
1757984462470,0.09530702,0.16104562,-0.05499141,-0.02741779,-0.00269652,-0.02070060,0.20474928,-0.01775648,-0.97477518,0.08703897
1757984462473,5.26907971,-3.66842488,2.76034069,-0.13219406,-0.00101214,-0.04129304,0.20475096,-0.01794156,-0.97477660,0.08698116
1757984462492,-0.85272654,0.51507675,-0.40137265,-0.02154075,0.00081390,-0.01349693,0.20482608,-0.01815158,-0.97476867,0.08684957
1757984462502,0.48348782,-0.24526137,0.03143321,-0.00984597,-0.00115294,-0.02613167,0.20484775,-0.01819687,-0.97477397,0.08672936
1757984462514,-0.19842077,0.10082112,-0.00679693,-0.01279051,0.00485652,-0.00825314,0.20500175,-0.01827425,-0.97474459,0.08667943
1757984462525,0.05567380,0.07904175,0.05546879,-0.02533923,0.00233443,-0.00549339,0.20506644,-0.01842122,-0.97473105,0.08664757
1757984462537,-0.00395597,0.17130232,-0.07167980,0.02492091,-0.00030863,-0.01258213,0.20510229,-0.01827419,-0.97473287,0.08657333
1757984462548,-0.03898573,0.13476083,0.19291461,0.00146045,0.00139702,-0.02766016,0.20519997,-0.01826645,-0.97472546,0.08642673
1757984462549,19.55732110,2.00437800,11.28414642,-0.17404443,0.01191423,-0.22902034,0.20530300,-0.01839698,-0.97471653,0.08625497
1757984462560,-2.68745850,-0.43320830,-1.68483296,-0.02825611,0.00004568,-0.01450298,0.20532314,-0.01854815,-0.97471628,0.08617738
1757984462580,-0.12457411,0.02025877,-0.08995893,-0.02107217,0.00192168,-0.01885979,0.20547348,-0.01875782,-0.97469716,0.08598972
1757984462582,19.81439102,-1.89300532,5.29975677,-0.13868623,0.03108672,0.07600245,0.20556097,-0.01887570,-0.97467074,0.08605432
1757984462593,-2.77298165,0.23960146,-0.79252713,-0.01704736,0.00356534,0.01597565,0.20561023,-0.01897287,-0.97465042,0.08614539
1757984462613,-0.10882659,0.02212041,-0.03994576,-0.00704944,-0.00182620,-0.01380989,0.20557531,-0.01904266,-0.97466850,0.08600867
1757984462614,9.98093491,-5.58375443,0.16055123,-0.17962149,-0.01260513,-0.14394141,0.20556064,-0.01920432,-0.97467984,0.08587912
1757984462626,-1.34014848,0.80626631,0.02739656,-0.02676720,-0.00140454,-0.01775510,0.20555028,-0.01936225,-0.97468813,0.08577436
1757984462637,0.28640651,0.03774056,-0.01348830,-0.00947383,-0.00057559,0.00019407,0.20553083,-0.01941198,-0.97469115,0.08577538
1757984462648,-0.11073280,0.01991074,-0.06482666,-0.02791126,-0.00065943,-0.01153532,0.20552559,-0.01956410,-0.97469474,0.08571252
1757984462659,-0.03788454,-0.05612114,0.17113730,-0.02357472,-0.00061926,-0.00556710,0.20550968,-0.01969494,-0.97469818,0.08568162
1757984462670,-0.21714650,-0.07851716,0.02468681,-0.01479572,0.00155304,-0.00231052,0.20554939,-0.01978001,-0.97468925,0.08566833
1757984462683,0.04948402,0.01051451,-0.04692217,-0.02415467,-0.00145315,-0.00448325,0.20550378,-0.01992977,-0.97469826,0.08564054
1757984462692,0.12594799,-0.10403547,0.27400433,-0.01197642,0.00266393,0.00499636,0.20554791,-0.01998606,-0.97468574,0.08566402
1757984462703,-0.02252519,0.01998825,-0.00953447,-0.01438506,-0.00162614,-0.01784546,0.20553842,-0.02006734,-0.97469493,0.08556319
1757984462716,-0.07268685,0.06209438,-0.08646555,-0.00616178,0.00268440,-0.00678560,0.20563035,-0.02010523,-0.97467842,0.08552146
1757984462727,0.15271356,0.05090394,0.15959054,0.00203262,0.00151549,0.00778046,0.20565481,-0.02009324,-0.97466948,0.08556737
1757984462738,0.15507883,0.19617027,0.01686038,-0.01253772,0.00247322,0.00016623,0.20570953,-0.02015906,-0.97465649,0.08556824
1757984462749,-0.10594045,0.02532621,0.00467213,-0.01742776,0.00775906,0.00241858,0.20589329,-0.02025317,-0.97461459,0.08558130
1757984462771,-0.13335742,-0.05789132,-0.10988840,-0.01376770,0.00345686,0.00107857,0.20605697,-0.02040806,-0.97457570,0.08559343
1757984462781,0.48106987,-0.23654244,0.14595567,-0.02628132,0.00974630,-0.01414325,0.20630114,-0.02053815,-0.97452746,0.08552342
1757984462792,-0.21367739,-0.07656492,-0.01923331,0.00443069,0.00532030,-0.00668586,0.20645838,-0.02051356,-0.97449793,0.08548632
1757984462794,34.53274747,-18.00668848,23.19748337,-0.04358765,0.03984880,-0.26141981,0.20667717,-0.02054625,-0.97446805,0.08529025
1757984462805,-4.67641951,2.30155208,-2.97924704,-0.04692187,0.00793379,-0.01939062,0.20690095,-0.02080432,-0.97442441,0.08518360
1757984462816,0.03347322,0.07302958,0.06205785,-0.01284019,0.00677829,-0.02011467,0.20712065,-0.02087687,-0.97438611,0.08506996
1757984462830,-0.02790234,0.05555036,0.10118903,-0.01704611,0.00518288,-0.00568022,0.20729552,-0.02099619,-0.97434983,0.08503020
1757984462841,0.13511324,0.18684508,0.28824159,-0.02666260,0.01052881,0.00954004,0.20753113,-0.02114284,-0.97429192,0.08508267
1757984462850,0.52996942,0.17636228,0.51834157,0.03261769,0.00369733,0.03031118,0.20756940,-0.02099117,-0.97427473,0.08522361
1757984462861,-0.45660108,-0.05187396,-0.37790945,0.03725883,0.00476329,-0.00161847,0.20770857,-0.02079742,-0.97424996,0.08521520
1757984462872,-0.21371097,-0.12896087,-0.04634039,0.02324983,-0.00065753,-0.07311077,0.20787761,-0.02066257,-0.97425378,0.08479115
1757984462885,0.02231536,-0.16406740,-0.08285404,-0.03171752,-0.00428884,-0.08383133,0.20794362,-0.02085605,-0.97427994,0.08427978
1757984462895,-0.02360735,-0.20265213,0.03892867,-0.06864513,-0.00156727,-0.09415529,0.20806243,-0.02119927,-0.97428777,0.08380901
1757984462905,0.06361099,-0.04734798,0.16581374,-0.02272428,0.00645568,-0.02810641,0.20827410,-0.02132198,-0.97425291,0.08365723
1757984462917,-0.08750194,0.11956609,-0.25920071,-0.02485014,0.00595293,0.00044927,0.20841845,-0.02146487,-0.97421868,0.08365982
1757984462928,-0.08958703,0.04626311,0.26321206,0.00775745,0.00579104,0.01489365,0.20853770,-0.02142259,-0.97418712,0.08374099
1757984462957,-0.10749361,0.09504722,-0.24795719,0.00388362,-0.00050411,-0.00288815,0.20852606,-0.02136589,-0.97419448,0.08369882
1757984462967,0.56849078,-0.50858205,2.18785804,0.01294258,0.00126100,-0.04557725,0.20865090,-0.02130248,-0.97418830,0.08347549
1757984462970,1.27830355,-1.04067413,1.32074984,-0.03196404,0.01264727,-0.06545722,0.20878607,-0.02135522,-0.97416744,0.08336749
1757984462984,-0.66457891,0.56069591,-1.77889873,-0.01552405,0.00146542,-0.02664113,0.20889873,-0.02146544,-0.97415703,0.08317833
1757984462986,14.89445512,-23.92202043,42.14002189,-0.01998156,0.01232745,-0.07838502,0.20895503,-0.02147842,-0.97414902,0.08312738
1757984462995,-1.97796856,2.96074385,-5.42075345,-0.01046548,0.00359400,-0.03539811,0.20909331,-0.02152709,-0.97413231,0.08296278
1757984463007,-0.07306584,0.13612382,-0.20580091,0.01107976,-0.00156442,-0.06809306,0.20921704,-0.02146116,-0.97414161,0.08255763
1757984463017,0.06809340,-0.11717876,0.21999408,0.01003828,0.00200586,-0.03624288,0.20934274,-0.02140997,-0.97413138,0.08237279
1757984463027,0.09667899,0.50720115,0.38653969,0.01188351,0.00243893,-0.01029590,0.20942828,-0.02134877,-0.97411882,0.08231977
1757984463039,-0.07246433,0.21782600,-0.13972049,0.03544042,0.00293248,0.00312161,0.20952430,-0.02113613,-0.97410123,0.08233850
1757984463050,0.01964435,-0.05322695,0.18443479,0.04721018,0.00239422,-0.00258742,0.20961460,-0.02088355,-0.97408842,0.08232465
1757984463061,-0.01864484,-0.29175304,-0.24895444,0.01503246,-0.00606621,-0.03367579,0.20954177,-0.02080238,-0.97412118,0.08214280
1757984463072,-0.17354129,-0.14342653,-0.21543056,-0.00599258,0.00254026,-0.03490581,0.20967857,-0.02083534,-0.97410721,0.08195082
1757984463083,0.01520560,0.08760432,-0.13826783,-0.01014907,-0.00125692,-0.00396514,0.20964783,-0.02089420,-0.97411450,0.08192782
1757984463094,-0.00126769,0.11662323,-0.04108801,0.00220519,0.00430353,0.01023765,0.20973293,-0.02088262,-0.97409190,0.08198157
1757984463107,-0.00880586,0.01792902,-0.08482377,-0.00961372,-0.00078384,-0.00613919,0.20971830,-0.02094655,-0.97409712,0.08194075
1757984463117,-0.01174851,0.00632042,0.03827993,-0.00304099,0.00026332,0.00592764,0.20971160,-0.02096115,-0.97409585,0.08196920