UnixTime(ms),Ax,Ay,Az,Gx,Gy,Gz,QuatW,QuatX,QuatY,QuatZ
1755649404990,0.00000000,0.00000000,0.00000000,0.00000000,0.00000000,0.00000000,0.99025388,0.06114298,-0.11068696,0.05837104
1755649404999,-0.42568854,0.13777129,-1.37936285,0.00858590,0.02763517,-0.00153200,0.99026513,0.06117947,-0.11056951,0.05836453
1755649405010,0.08624560,0.05229557,0.27447079,-0.00234758,0.01786048,0.00806820,0.99027461,0.06116609,-0.11046771,0.05841052
1755649405022,-0.02485500,-0.05608088,-0.04683882,0.01212849,0.01768043,0.03817968,0.99026835,0.06123947,-0.11036074,0.05864150
1755649405032,-0.12914865,-0.06252873,-0.15944551,-0.00012873,0.04276959,0.03900260,0.99028051,0.06123883,-0.11014903,0.05883457
1755649405043,-0.04308421,-0.10998982,0.18451161,-0.03584939,0.04989595,0.01901892,0.99031827,0.06103449,-0.10986463,0.05894298
1755649405056,0.02655735,-0.14161942,0.40468338,-0.01785133,0.04489392,0.00185607,0.99035584,0.06092202,-0.10958179,0.05895467
1755649405067,0.03086962,-0.03150297,-0.11181246,0.00707421,0.00975070,-0.00786087,0.99036195,0.06096093,-0.10952816,0.05891143
1755649405077,0.01070094,0.08577787,-0.12564589,-0.02635401,0.01096460,-0.01186333,0.99038035,0.06082389,-0.10947115,0.05884974
1755649405088,0.03668468,0.05824050,-0.46873960,-0.03139160,0.04095862,-0.00468268,0.99041599,0.06065752,-0.10925407,0.05882493
1755649405100,0.02707285,0.07843841,0.08784924,-0.01487593,0.05151343,-0.00441481,0.99045810,0.06056603,-0.10893726,0.05879777
1755649405110,-0.02587714,0.14482959,-0.27922111,-0.00025769,0.02205687,0.02086615,0.99046411,0.06056474,-0.10882698,0.05890211
1755649405122,0.10428129,-0.02005804,0.08504947,0.04072355,0.01086855,0.02503847,0.99044833,0.06079483,-0.10876557,0.05904357
1755649405133,-0.07024026,0.07094670,0.11604108,0.00957513,0.00387762,0.01954691,0.99044089,0.06084845,-0.10874385,0.05915304
1755649405144,-0.03867703,-0.08852373,0.07170255,0.00419515,0.00201129,0.02311701,0.99043287,0.06087215,-0.10873249,0.05928365
1755649405156,-0.03023017,-0.22166516,0.02621463,0.01029401,0.00935958,0.01608588,0.99042951,0.06093289,-0.10867727,0.05937855
1755649405167,-0.00375898,-0.07947686,-0.11298121,-0.00610662,0.02592388,0.01709253,0.99044125,0.06090022,-0.10853858,0.05947000
1755649405179,0.05661396,0.18023475,0.09642311,-0.00669588,0.01088867,0.00476987,0.99044909,0.06086038,-0.10847379,0.05949838
1755649405189,0.04124889,0.08233409,-0.12440141,-0.01214829,0.00686200,0.01687174,0.99045155,0.06079842,-0.10843879,0.05958443
1755649405200,0.00755404,-0.16459722,0.21809604,-0.00138280,0.00730917,0.02410799,0.99044832,0.06079054,-0.10839713,0.05972184
1755649405211,-0.04320690,0.03314631,0.11119472,-0.01076330,0.00322319,0.01079525,0.99045036,0.06072972,-0.10837892,0.05978283
1755649405222,0.15153393,-0.03179575,0.02933412,-0.01683762,-0.00227684,0.01882583,0.99044839,0.06063628,-0.10839156,0.05988732
1755649405234,-0.01208887,-0.07509741,-0.07073531,-0.01328531,0.00280460,0.00144622,0.99045418,0.06056188,-0.10837585,0.05989542
1755649405245,0.13464313,-0.16156356,0.35632927,-0.03632219,0.02603774,-0.00997197,0.99048648,0.06035484,-0.10822743,0.05983858
1755649405255,0.09582964,-0.04329350,0.30172028,-0.03258038,0.00931423,-0.01578362,0.99050703,0.06018542,-0.10817900,0.05975650
1755649405267,0.00204686,0.10439000,0.00526336,-0.01356547,0.00723670,0.00045160,0.99051592,0.06010946,-0.10813847,0.05975903
1755649405278,-0.15585398,0.12354279,-0.19196649,-0.00201060,0.02369334,0.01443722,0.99052620,0.06009820,-0.10800579,0.05983988
1755649405289,-0.15356073,0.15580678,-0.25344085,-0.00166806,0.00708705,0.02066086,0.99052411,0.06008894,-0.10796646,0.05995455
1755649405301,0.00232251,-0.01888054,0.03896294,0.00963427,0.00568631,0.02802554,0.99051455,0.06014434,-0.10793376,0.06011569
1755649405312,-0.10503097,-0.01919000,-0.06862137,0.00747110,-0.00629015,0.02908455,0.99049856,0.06018543,-0.10796836,0.06027566
1755649405323,0.07239780,0.08338706,0.02577984,-0.00256663,0.00859390,0.01213896,0.99050054,0.06017105,-0.10792023,0.06034364
1755649405334,0.03611251,-0.01568043,-0.03611251,0.00628550,0.00178329,0.01011789,0.99049603,0.06020625,-0.10791025,0.06040030
1755649405345,0.03554286,0.01189069,0.13878720,0.00583000,0.00204761,-0.00456653,0.99049686,0.06023919,-0.10789868,0.06037450
1755649405356,0.05537139,-0.02292564,0.09565526,0.01567611,-0.00507282,0.00653652,0.99048619,0.06032698,-0.10792709,0.06041110
1755649405367,-0.01618544,0.01854289,0.02079477,0.02055971,0.00029773,0.01182763,0.99047551,0.06044006,-0.10792545,0.06047615
1755649405379,-0.03162004,0.00602163,-0.09264845,0.03349730,0.00708403,0.02117058,0.99046112,0.06062764,-0.10788578,0.06059471
1755649405390,-0.02888749,0.04460672,0.02142812,0.00174975,0.02688131,0.00380069,0.99047534,0.06063727,-0.10773793,0.06061561
1755649405401,-0.02376401,-0.07346357,0.00237640,0.00121598,0.00905374,-0.00411216,0.99048202,0.06064426,-0.10768587,0.06059197
1755649405412,0.09183784,-0.06457348,0.08421325,-0.01567878,0.02458430,-0.01969803,0.99050861,0.06055802,-0.10755066,0.06048363
1755649405423,0.03167395,-0.06767208,0.09744915,-0.02981088,0.02814833,-0.03185286,0.99054712,0.06038959,-0.10739162,0.06030366
1755649405434,-0.11923545,-0.03885440,0.07919968,-0.01541979,0.03144380,-0.02757033,0.99058025,0.06030478,-0.10721868,0.06015202
1755649405445,0.17930653,0.07487526,0.22265537,-0.00114358,0.02337631,-0.00511474,0.99059624,0.06029849,-0.10709011,0.06012389
1755649405457,0.17192318,0.05096356,0.16045012,0.02239346,0.02823154,0.00545270,0.99060383,0.06042390,-0.10693201,0.06015443
1755649405468,-0.07455858,0.03086669,0.00017593,0.04323863,0.02744487,0.01260184,0.99060136,0.06066171,-0.10678107,0.06022374
1755649405479,-0.18990788,0.12430666,-0.15989741,0.02912317,0.01186823,0.01801521,0.99059231,0.06082626,-0.10671401,0.06032552
1755649405490,-0.09059244,0.02388017,-0.14105239,0.04615732,0.01141065,0.00262664,0.99058239,0.06108474,-0.10665011,0.06034023
1755649405501,-0.03306877,0.11644475,-0.02491388,0.03883988,0.01530240,-0.00505882,0.99057992,0.06130030,-0.10656518,0.06031215
1755649405513,-0.05808757,0.05963593,-0.07626887,0.05450939,0.01620623,-0.01003898,0.99057396,0.06161645,-0.10647119,0.06025393
1755649405524,-0.04572410,0.14085893,0.13195098,0.04415045,0.03378661,0.01582750,0.99057347,0.06186149,-0.10628367,0.06034177
1755649405535,-0.07652290,-0.01029095,-0.00618142,0.07542908,0.01099084,0.02853501,0.99054386,0.06228389,-0.10622212,0.06050157
1755649405548,0.07689346,0.03693086,0.06190109,0.07365991,0.02693721,0.00901948,0.99052893,0.06275900,-0.10604838,0.06055974
1755649405557,-0.10922172,0.37063286,0.33508505,0.07438406,0.04190328,0.04340638,0.99051602,0.06309001,-0.10586191,0.06075290
1755649405568,0.04833298,-0.03316234,-0.02089429,0.03854451,0.01695435,0.00067882,0.99051220,0.06330393,-0.10576781,0.06075667
1755649405580,0.05037233,-0.24389098,0.00725022,0.04661025,0.01503989,0.02132896,0.99049619,0.06358126,-0.10567832,0.06088358
1755649405590,-0.05598064,-0.09092761,0.10246748,0.03751484,0.03092943,0.00862629,0.99049800,0.06377259,-0.10552058,0.06092757
1755649405602,-0.04215890,-0.11596259,-0.01705822,0.00931861,0.01228829,0.00926832,0.99049881,0.06382710,-0.10544870,0.06098179
1755649405613,-0.01745309,0.01599866,0.01210710,0.01993110,0.04206086,0.00948375,0.99051287,0.06393473,-0.10522157,0.06103300
1755649405625,0.02614300,-0.08395147,-0.15275807,0.01969972,0.04460607,0.02721473,0.99052346,0.06405194,-0.10495616,0.06119493
1755649405636,-0.03883126,-0.05672649,-0.05967786,0.01273562,0.06130178,0.02029428,0.99054792,0.06412262,-0.10461594,0.06130756
1755649405646,-0.03182096,-0.02958355,0.26440128,0.01428858,0.04322108,0.01127391,0.99056377,0.06419978,-0.10438254,0.06136844
1755649405657,0.01635244,-0.12111026,0.35975369,0.01866371,0.03285208,0.00458137,0.99057438,0.06430057,-0.10420514,0.06139318
1755649405669,0.08462388,-0.05118825,-0.02538716,0.00056000,0.03286208,0.00303608,0.99059376,0.06430393,-0.10400797,0.06141140
1755649405680,-0.07347713,0.01565063,-0.32829580,0.02964543,0.04666470,0.00625709,0.99060717,0.06445808,-0.10376531,0.06144393
1755649405690,0.01761032,0.22985792,-0.28931240,0.00951083,0.05697715,0.01018413,0.99063259,0.06450944,-0.10345764,0.06149893
1755649405702,0.06386160,0.09517556,-0.14746224,0.03284628,0.05057218,0.02417304,0.99064212,0.06470159,-0.10316179,0.06164034
1755649405713,0.01438890,0.03700180,-0.08107400,0.05421233,0.05234098,0.01807034,0.99064639,0.06500247,-0.10287130,0.06174063
1755649405724,0.02234703,0.05482574,-0.01514016,0.04078236,0.04267203,0.00372130,0.99065441,0.06521862,-0.10264513,0.06176035
1755649405735,-0.00043542,-0.02846326,0.05876286,-0.00589818,0.03118128,-0.01478417,0.99067914,0.06518647,-0.10247520,0.06167978
1755649405746,0.18132068,-0.21604087,0.10447895,0.00045940,0.04296291,-0.02661209,0.99071401,0.06518911,-0.10222816,0.06152676
1755649405757,0.11245215,-0.07826050,0.16392471,-0.02543068,0.02569673,-0.04344038,0.99075293,0.06504797,-0.10208554,0.06128567
1755649405768,0.11061489,-0.04898904,0.08278994,-0.02161824,0.00736152,-0.04187446,0.99077960,0.06492691,-0.10204432,0.06105117
1755649405780,0.04292943,-0.07494305,-0.04106427,0.00769226,-0.00367300,-0.02406366,0.99078313,0.06497229,-0.10206599,0.06090919
1755649405791,0.04754532,-0.05817289,-0.07527410,0.01345076,-0.01235789,-0.02146218,0.99077869,0.06504358,-0.10213149,0.06079544
1755649405802,0.00956032,-0.01704767,-0.01380094,-0.01000243,0.00836577,-0.01845306,0.99079313,0.06498907,-0.10208589,0.06069488
1755649405813,-0.08812777,-0.08650175,-0.11344663,-0.01740464,0.01782422,-0.02395045,0.99081800,0.06489160,-0.10198608,0.06056075
1755649405824,-0.01862494,-0.04125390,0.03230857,-0.02511014,0.04079913,-0.02162584,0.99085773,0.06475224,-0.10175964,0.06044073
1755649405835,-0.02145518,0.00192206,-0.00921220,-0.02948091,0.03603300,-0.02511173,0.99089777,0.06458715,-0.10155786,0.06030010
1755649405847,0.15402561,0.07122216,0.17953827,-0.01887974,0.01456004,-0.01422406,0.99091839,0.06447859,-0.10147414,0.06021832
1755649405858,0.19019127,-0.02533259,0.21349027,-0.00020391,0.00320101,-0.00450220,0.99092187,0.06447744,-0.10145605,0.06019288
1755649405869,-0.00418331,-0.00868912,0.06473993,-0.01162034,0.00457932,-0.01787951,0.99093422,0.06441527,-0.10143155,0.06009722
1755649405880,-0.14693556,0.04244131,-0.25919696,-0.02408425,0.00677951,-0.01100167,0.99095104,0.06427679,-0.10139257,0.06003396
1755649405891,-0.12107842,-0.06157249,-0.21750570,-0.02505271,0.02584785,-0.02180052,0.99098064,0.06414401,-0.10125558,0.05991842
1755649405902,-0.05017021,-0.00129101,-0.04091795,-0.01749849,0.02168693,-0.02026583,0.99100624,0.06404602,-0.10113413,0.05980493
1755649405914,-0.03063128,0.07017992,-0.02828122,-0.01429248,0.01939218,-0.02574295,0.99103184,0.06396383,-0.10102262,0.05965691
1755649405925,0.02269908,-0.01493360,-0.03733822,-0.01046053,0.01219835,0.00166438,0.99104193,0.06390578,-0.10095492,0.05966615
1755649405936,0.00844965,-0.03324831,-0.03102939,-0.00797646,0.02860524,0.00300639,0.99105978,0.06386191,-0.10079759,0.05968268
1755649405947,0.22303361,0.01720960,0.17824719,-0.01285947,0.02452719,-0.00403391,0.99107973,0.06378989,-0.10066024,0.05966009
1755649405958,0.04679704,0.05636756,0.12392418,-0.02592598,0.01027471,-0.01079381,0.99109821,0.06364730,-0.10060373,0.05960073
1755649405969,0.10206789,0.09676436,0.01270845,-0.00336756,-0.00432329,-0.01565315,0.99110230,0.06362811,-0.10062837,0.05951150
1755649405981,-0.16015157,0.02095465,-0.26367721,0.00244251,0.00346794,-0.01322656,0.99110779,0.06364166,-0.10060913,0.05943810
1755649405992,-0.10767331,0.08355994,-0.06666292,0.01648979,-0.00051631,-0.02395365,0.99110962,0.06373483,-0.10061204,0.05930276
1755649406003,-0.08396537,0.09079428,0.00766991,0.02433264,0.00804480,-0.01685385,0.99111106,0.06387109,-0.10056699,0.05920838
1755649406014,-0.13989715,0.06941106,0.10076609,0.01355661,0.01478744,-0.00033833,0.99111458,0.06394498,-0.10048640,0.05920653
1755649406025,-0.03016588,0.02510398,0.06511103,0.02684160,0.03717156,-0.00033454,0.99112617,0.06409663,-0.10027638,0.05920464
1755649406036,-0.06902756,0.03712764,0.08831041,0.03585905,0.01058032,-0.00294466,0.99112035,0.06429027,-0.10021925,0.05918874
1755649406047,0.17978625,-0.00056056,-0.03934098,0.04254971,0.00041773,-0.01294015,0.99110924,0.06453280,-0.10021687,0.05911498
1755649406058,0.11431271,0.06821093,0.00654825,0.02362429,0.00891367,-0.02031703,0.99111235,0.06466155,-0.10016829,0.05900425
1755649406069,-0.08749991,-0.03163050,-0.08837354,0.02128657,0.01473186,-0.01741362,0.99111876,0.06478182,-0.10008505,0.05890587
1755649406082,-0.11110669,0.01039565,0.01217588,0.04175666,0.03640869,-0.01903448,0.99113117,0.06503236,-0.09986660,0.05879166
1755649406092,-0.30080477,0.32067299,0.04172325,0.02697170,0.02438335,-0.00057017,0.99113476,0.06516722,-0.09974468,0.05878881
1755649406104,0.06012167,-0.13761463,0.00504814,0.04971902,0.04415418,0.01564539,0.99113616,0.06546802,-0.09947755,0.05888346
1755649406114,-0.25871371,0.15697696,0.10118012,0.04611899,0.03905089,0.02811899,0.99113212,0.06569862,-0.09928230,0.05902406
1755649406125,0.02614041,-0.04869778,0.01757717,0.03282824,0.02850090,0.00634495,0.99113382,0.06588738,-0.09911842,0.05906054
1755649406136,0.00025701,-0.13366604,-0.05482856,0.05085016,0.04470999,0.00298635,0.99113877,0.06616706,-0.09887251,0.05907697
1755649406147,0.02936012,-0.01783332,-0.02744265,0.03123664,0.04850443,-0.01562355,0.99115916,0.06634042,-0.09860331,0.05899026
1755649406158,0.01354541,0.02322070,0.02709082,0.01975556,0.07364647,-0.01088312,0.99119599,0.06645006,-0.09819457,0.05892986
1755649406170,-0.09318363,0.02567601,-0.02315036,0.00603344,0.08381933,0.00088857,0.99123982,0.06648385,-0.09772519,0.05893483
1755649406181,-0.12164213,-0.00570197,-0.04561580,0.04002763,0.06496463,0.01575344,0.99125531,0.06670800,-0.09736138,0.05902305
1755649406192,-0.12209452,-0.05434438,-0.07543823,0.05987653,0.05919341,0.03094665,0.99125486,0.06703733,-0.09703582,0.05919326
1755649406203,-0.08345618,-0.05211260,-0.02854443,0.07696992,0.06016328,0.02543984,0.99125003,0.06746836,-0.09669891,0.05933572
1755649406214,-0.12924477,0.05892041,0.03231119,0.03993775,0.07215702,0.02504575,0.99126571,0.06769201,-0.09629483,0.05947598
1755649406225,-0.10073489,0.07127469,-0.06462238,0.04730359,0.09130101,0.01303753,0.99129274,0.06795691,-0.09578354,0.05954899
1755649406237,-0.02797417,0.05097200,-0.00228395,0.03695839,0.09707708,0.02165113,0.99132389,0.06816572,-0.09523506,0.05967132
1755649406248,0.18742423,0.19970874,-0.10264469,0.02563963,0.10192574,0.03329475,0.99135654,0.06830546,-0.09467956,0.05985277
1755649406259,0.01117727,-0.13127184,-0.12397872,0.06612773,0.07325357,0.03033287,0.99135978,0.06867577,-0.09426934,0.06002264
1755649406270,0.06842370,-0.09835907,0.07032436,0.07177349,0.09171784,0.00394138,0.99137923,0.06907771,-0.09375572,0.06004471
1755649406281,-0.29977860,-0.01542864,0.13446930,0.06406360,0.07077288,0.00180082,0.99139085,0.06943326,-0.09336293,0.06005470
1755649406292,-0.05451978,0.06518316,-0.01352721,0.04649122,0.08319691,0.01162921,0.99141240,0.06969361,-0.09289703,0.06011983
1755649406303,-0.02880772,0.04899230,-0.08972405,0.02472555,0.08614167,0.02527015,0.99143939,0.06983331,-0.09241033,0.06026260
1755649406315,0.02048080,-0.09339227,-0.05949021,0.03162366,0.09329341,0.04251682,0.99146076,0.07000882,-0.09189255,0.06049857
1755649406326,0.01535787,-0.13232076,-0.08160025,0.02027862,0.09459396,0.03723383,0.99148920,0.07012339,-0.09135809,0.06070894
1755649406337,0.04015783,-0.10532929,-0.17951578,0.04135166,0.11358358,-0.00294149,0.99153144,0.07035083,-0.09073338,0.06069276
1755649406348,0.23250737,-0.08423466,-0.13792810,0.00743427,0.09602315,-0.01866375,0.99158301,0.07039172,-0.09020526,0.06059011
1755649406359,0.06189235,-0.06578870,0.04941712,0.01830725,0.11086451,-0.03380825,0.99164355,0.07049424,-0.08958441,0.06040079
1755649406370,-0.19793639,-0.07001460,0.03037481,0.00083853,0.08954070,-0.01492683,0.99169392,0.07049898,-0.08907851,0.06031645
1755649406381,-0.15918403,0.31870808,0.36576231,-0.02353763,0.11593547,0.01545250,0.99175502,0.07036952,-0.08844086,0.06040144
1755649406393,0.08587272,0.01137275,-0.01996171,0.03623151,0.05500433,0.02991096,0.99175783,0.07057423,-0.08813009,0.06057044
1755649406404,0.13838147,-0.15207402,-0.10954037,0.06108972,0.04248140,0.02026048,0.99174778,0.07091022,-0.08789644,0.06068187
1755649406415,0.07068077,-0.08629283,-0.02406948,0.04138602,0.06664234,-0.02099036,0.99177159,0.07114405,-0.08751991,0.06056327
1755649406426,-0.15339488,-0.00297740,0.05034114,-0.00936738,0.07754019,-0.00765714,0.99181539,0.07109253,-0.08709344,0.06052116
1755649406437,-0.13160158,0.02357693,0.09659461,-0.01279730,0.09890956,-0.00727269,0.99187099,0.07102151,-0.08654449,0.06048080
1755649406448,-0.11223340,0.05950305,0.01935059,-0.00110949,0.09290347,0.02095170,0.99190919,0.07101535,-0.08602888,0.06059708
1755649406459,0.04205421,0.04855668,-0.05820124,0.02617517,0.07503838,0.03101476,0.99192442,0.07116193,-0.08560867,0.06077076
1755649406471,0.12924477,-0.00047516,-0.00760263,0.01916157,0.06726404,0.03547450,0.99193696,0.07126923,-0.08523199,0.06096942
1755649406482,0.15370787,0.01133637,0.11891521,-0.01222435,0.03979284,0.02309801,0.99195318,0.07120017,-0.08500716,0.06109992
1755649406493,0.07149611,-0.29563181,-0.00099448,0.00356806,0.05090842,0.00614618,0.99197346,0.07121961,-0.08472971,0.06113342
1755649406504,0.02812626,-0.15850008,-0.03538014,-0.02059687,0.05290978,-0.01613384,0.99201256,0.07110427,-0.08443341,0.06104307
1755649406515,-0.03041053,-0.00332615,-0.05892041,-0.03564853,0.08138339,-0.03557115,0.99207777,0.07090464,-0.08397766,0.06084387
1755649406526,-0.09172923,0.12805850,-0.02983751,-0.02606355,0.08069393,-0.01835287,0.99213166,0.07076129,-0.08353385,0.06074293
1755649406537,-0.03915356,0.13319295,0.07111918,0.01249410,0.07548377,0.01933252,0.99215553,0.07083126,-0.08311114,0.06085119
1755649406549,-0.03421185,-0.07935248,-0.22237702,0.03706775,0.05135605,0.04160332,0.99215043,0.07103883,-0.08282354,0.06108417
1755649406560,0.04181448,0.00285099,-0.13494674,0.02962634,0.06428142,0.04224962,0.99215392,0.07120474,-0.08246357,0.06132077
1755649406571,0.05773980,-0.02274758,-0.04750075,0.01293900,0.07948623,0.02284633,0.99217728,0.07127591,-0.08202639,0.06144642
1755649406582,0.04022484,0.05085125,0.15499005,-0.01746623,0.05570366,0.02313145,0.99220201,0.07117810,-0.08171445,0.06157596
1755649406593,-0.04333149,-0.17055296,0.04538749,-0.00576222,0.05820363,0.01130034,0.99222696,0.07114612,-0.08139142,0.06163868
1755649406604,-0.05398897,-0.02673764,0.05575264,-0.01298663,0.08327621,-0.01210786,0.99227452,0.07107339,-0.08092508,0.06157087
1755649406615,-0.03066722,0.08938416,0.01340719,-0.03263070,0.08619566,0.01939715,0.99231969,0.07089229,-0.08044669,0.06167853
1755649406627,0.03544253,0.03834001,-0.02610670,0.00555281,0.08935822,0.00992081,0.99235477,0.07092366,-0.07994182,0.06173458
1755649406638,0.02550135,0.00684150,-0.13150241,0.01957192,0.07958102,0.01964855,0.99237531,0.07103033,-0.07950810,0.06184166
1755649406649,0.02595464,0.02488059,-0.16937977,0.00221377,0.07757187,0.00972811,0.99240547,0.07104262,-0.07907758,0.06189565
1755649406660,0.08514258,0.04644141,0.04837647,0.00060002,0.07986492,-0.01019526,0.99244398,0.07104595,-0.07863433,0.06183907
1755649406671,0.00796222,-0.07821808,0.03667757,0.01075842,0.06712021,-0.01390154,0.99247422,0.07110619,-0.07825845,0.06176122
1755649406682,-0.02931959,0.02425734,0.22422492,0.01331293,0.07426820,-0.02753722,0.99251084,0.07118008,-0.07784626,0.06160839
1755649406693,0.00624991,0.07621897,0.18071665,-0.01298302,0.08493704,-0.02010027,0.99256022,0.07110738,-0.07737062,0.06149583
1755649406704,-0.06462238,-0.00000000,0.02470856,0.00188437,0.09147138,-0.00969669,0.99260262,0.07111793,-0.07685838,0.06144153
1755649406716,0.03916173,0.12465428,-0.00833902,-0.00455841,0.07991505,0.03018586,0.99262807,0.07109286,-0.07641884,0.06160755
1755649406727,0.18138681,0.07002726,-0.02527465,0.01626467,0.05385518,0.03525113,0.99263248,0.07118475,-0.07611456,0.06180672
1755649406738,0.09666731,-0.15126850,0.01054864,0.02948624,0.04877300,0.01525083,0.99263617,0.07134840,-0.07584387,0.06189136
1755649406749,0.03096094,-0.15045081,-0.30380421,0.01535992,0.03214788,-0.02018754,0.99265064,0.07143365,-0.07566545,0.06177932
1755649406760,-0.08320752,0.06434070,0.04257129,-0.01680482,0.03632811,-0.02399075,0.99268097,0.07134038,-0.07546383,0.06164617
1755649406771,-0.00774023,0.11852234,0.02322070,0.00095200,0.04062760,-0.01781812,0.99270384,0.07134567,-0.07523835,0.06154728
1755649406782,0.04425691,0.16809972,0.46056791,0.01771398,0.04230868,0.03275623,0.99270324,0.07144575,-0.07499930,0.06173235
1755649406794,-0.16438031,-0.17985581,-0.01468211,0.09249075,0.04821412,0.08470211,0.99265742,0.07195445,-0.07473413,0.06219821
1755649406805,-0.10138718,-0.03590902,0.11885368,0.05931517,0.07779268,0.01230012,0.99266171,0.07228958,-0.07429460,0.06226771
1755649406816,0.18042282,0.57870670,-0.22506616,-0.00915733,-0.01934683,0.06648492,0.99263415,0.07223876,-0.07440197,0.06263670
1755649406827,0.31843732,-0.10092752,-0.08419403,0.09107279,0.05158454,0.02573917,0.99260941,0.07274876,-0.07411310,0.06278084
1755649406838,0.02346889,-0.18126814,0.10995544,0.06238682,-0.04511502,0.02385381,0.99255733,0.07309189,-0.07436123,0.06291204
1755649406850,-0.20789412,-0.05355097,0.08645183,0.00919937,-0.02844907,0.01962895,0.99253401,0.07314479,-0.07452481,0.06302490
1755649406861,-0.12381641,-0.21620326,0.01181997,-0.00186971,-0.00394176,-0.00848296,0.99253606,0.07313469,-0.07454610,0.06297910
1755649406872,0.12544345,-0.11824559,-0.04280001,-0.01021552,0.00000025,0.01514841,0.99253489,0.07307748,-0.07454610,0.06306393
1755649406883,0.30010687,-0.09772478,0.02259872,-0.03118872,0.00235161,0.00244624,0.99254773,0.07290439,-0.07453305,0.06307750
1755649406894,0.16633329,0.05313710,-0.02619826,-0.05019814,0.00346969,0.01446357,0.99256465,0.07262328,-0.07451362,0.06315850
1755649406905,0.10745725,-0.08406753,-0.11364994,0.00247566,-0.02461606,0.02904587,0.99254330,0.07263689,-0.07464900,0.06331825
1755649406916,0.09593141,-0.09134391,0.07550797,-0.02399727,-0.01891409,0.01641145,0.99253929,0.07250251,-0.07475492,0.06341016
1755649406927,0.03611251,-0.08695512,0.03801317,-0.04988146,-0.01213931,0.00832219,0.99255155,0.07222317,-0.07482290,0.06345676
1755649406938,0.08201539,0.01125617,-0.09352208,-0.04059082,-0.03029036,-0.01463319,0.99256042,0.07199789,-0.07499102,0.06337555
1755649406950,0.02515376,-0.01590731,-0.28934526,-0.03567802,-0.04045764,-0.03966553,0.99257191,0.07179810,-0.07521758,0.06315342
1755649406961,-0.04279590,-0.01587785,-0.28082539,-0.02443634,-0.03946818,-0.03654523,0.99257797,0.07166247,-0.07543663,0.06295059
1755649406972,0.04811576,0.05184859,0.02172915,-0.03457955,-0.02363339,-0.00853568,0.99258490,0.07146883,-0.07556897,0.06290279
1755649406983,0.14495663,0.15280053,0.26059366,-0.01705492,-0.03382521,-0.00672221,0.99257976,0.07137417,-0.07575670,0.06286548
1755649406994,-0.04450635,-0.00580518,0.12964893,-0.00659559,-0.04165865,-0.00263938,0.99256565,0.07133757,-0.07598791,0.06285084
1755649407005,0.04489663,-0.04209701,0.05419445,-0.00855042,-0.03746626,-0.00462828,0.99255464,0.07128969,-0.07619772,0.06282492
1755649407016,0.09402312,-0.03782867,-0.07403327,-0.01593217,-0.03990289,-0.02788934,0.99255375,0.07120126,-0.07641918,0.06267013
1755649407028,0.08357760,-0.04756355,-0.09578633,-0.02763357,-0.04994418,-0.04282729,0.99255838,0.07104652,-0.07669887,0.06243030
1755649407039,-0.02047361,-0.09133218,0.09858433,-0.04187694,-0.03100445,-0.03686752,0.99257452,0.07081410,-0.07687094,0.06222568
1755649407050,-0.31422505,0.06105651,0.07525580,-0.03984886,-0.02454554,-0.03410406,0.99259172,0.07059094,-0.07700840,0.06203470
1755649407061,-0.00996901,0.03030872,-0.00240155,-0.02817099,-0.03114505,-0.01419413,0.99259432,0.07043460,-0.07718125,0.06195592
1755649407072,0.05611670,0.10739576,0.02128565,-0.02970832,-0.02571058,0.01285933,0.99259044,0.07026971,-0.07732395,0.06202729
1755649407083,0.20705128,-0.17125269,-0.02322070,0.00107956,-0.03813113,0.00948862,0.99257022,0.07027571,-0.07753557,0.06207995
1755649407094,-0.00575334,0.00521397,0.06701961,-0.01707898,-0.03333086,-0.00888469,0.99256550,0.07018006,-0.07772223,0.06203020
1755649407106,-0.05788218,-0.03740169,0.07085233,-0.04044369,-0.02192615,-0.01629909,0.99257767,0.06995156,-0.07784611,0.06193811
1755649407117,-0.00420879,0.01989851,0.05530027,-0.05871709,-0.01880043,-0.02614100,0.99260101,0.06963155,-0.07794857,0.06179564
1755649407128,0.01687924,0.00221453,0.04575530,-0.04089181,-0.02268010,0.00506047,0.99260530,0.06940255,-0.07807558,0.06182398
1755649407139,0.04989687,0.07296208,0.03842474,-0.03028999,-0.04697216,-0.00627923,0.99259867,0.06923444,-0.07833628,0.06178913
1755649407150,-0.06772705,0.18528187,0.07546729,-0.02084170,-0.05146918,-0.01449459,0.99258915,0.06911877,-0.07862193,0.06170869
1755649407161,-0.01382713,-0.02812946,0.00042053,-0.02597062,-0.05216002,-0.00875234,0.99257905,0.06897204,-0.07891663,0.06165924
1755649407172,-0.03367120,0.08142292,-0.01543191,-0.03533441,-0.04725755,-0.03017472,0.99258213,0.06877770,-0.07917655,0.06149327
1755649407183,0.04948623,-0.12791430,-0.10954703,-0.02522662,-0.03156414,-0.02277195,0.99258568,0.06863643,-0.07935331,0.06136575
1755649407195,-0.07032436,0.01377977,-0.00950329,-0.00387145,-0.02360106,-0.01582951,0.99258208,0.06861475,-0.07948548,0.06127711
1755649407206,-0.07222502,0.13589707,0.07412567,-0.01922251,-0.02611959,0.00896730,0.99257469,0.06850711,-0.07963175,0.06132732
1755649407217,-0.06437317,0.04035199,0.03813251,-0.00714737,-0.02018710,0.02047664,0.99256105,0.06846637,-0.07974681,0.06144404
1755649407228,-0.01424828,0.05386487,0.00838456,0.01464530,-0.02632676,0.01794093,0.99253837,0.06854472,-0.07988766,0.06154002
1755649407239,0.02021448,0.09040561,0.11283160,-0.01436482,-0.02183572,0.02077463,0.99252685,0.06846427,-0.08000994,0.06165636
1755649407250,-0.10107226,-0.08589414,-0.18797713,0.00827501,-0.03631451,0.01075798,0.99250370,0.06851020,-0.08021149,0.06171607
1755649407262,0.02129580,-0.00639210,0.06355097,-0.01342712,-0.02983522,-0.00194542,0.99249598,0.06843434,-0.08038005,0.06170508
1755649407273,0.01925032,-0.05774208,-0.00776051,-0.02001169,-0.03960655,-0.00953163,0.99248922,0.06832527,-0.08059591,0.06165313
1755649407284,0.09606171,-0.11451902,0.04990536,-0.02650958,-0.03614578,-0.01458398,0.99248804,0.06817682,-0.08079833,0.06157146
1755649407295,0.09883423,-0.09218193,0.07602633,-0.03557289,-0.02022947,-0.00878948,0.99249553,0.06797761,-0.08091161,0.06152224
1755649407306,-0.07982765,-0.04846679,-0.02660922,-0.03539078,-0.02658199,-0.01411134,0.99250183,0.06777942,-0.08106047,0.06144321
1755649407317,-0.00950329,0.02328306,0.00570197,-0.03003092,-0.02688092,-0.01267375,0.99250539,0.06761125,-0.08121100,0.06137224
1755649407328,0.04447179,0.00547259,-0.06822810,-0.02200384,-0.03237845,-0.01792740,0.99250512,0.06748913,-0.08139070,0.06127274
1755649407340,0.00967529,0.03773364,-0.00580518,-0.03620699,-0.03357371,-0.00776537,0.99250613,0.06728818,-0.08157704,0.06122965
1755649407351,-0.09094776,-0.10884705,-0.18576563,-0.03367057,-0.02263287,-0.01167384,0.99251244,0.06710131,-0.08170265,0.06116486
1755649407362,-0.00302784,-0.02715803,0.02228826,-0.02951885,-0.03399570,0.00107733,0.99250750,0.06693453,-0.08189473,0.06117094
1755649407373,0.00667844,-0.14791525,-0.04746401,-0.01119171,-0.03105995,-0.00730390,0.99250001,0.06687297,-0.08206556,0.06113077
1755649407384,-0.04711830,0.16845815,0.19814268,-0.03614171,-0.02425581,-0.01632636,0.99250823,0.06666516,-0.08220503,0.06103690
1755649407395,0.01182241,0.06919964,0.03323982,-0.03269141,-0.02255813,-0.01527740,0.99251517,0.06648536,-0.08232910,0.06095287
1755649407406,-0.05123044,0.03251162,0.01970401,-0.01569619,-0.02508291,-0.01270784,0.99251379,0.06639903,-0.08246705,0.06088298
1755649407418,-0.08901992,0.04801754,-0.00805188,-0.00888627,-0.02041444,-0.00222531,0.99250837,0.06634926,-0.08258137,0.06087052
1755649407429,-0.04837647,0.05799129,0.00112303,-0.02443731,-0.01265733,0.00800220,0.99250886,0.06621364,-0.08265162,0.06091493
1755649407440,-0.01935059,-0.00919153,-0.02322070,-0.01773651,-0.01719227,0.00238286,0.99250666,0.06611520,-0.08274704,0.06092815
1755649407451,-0.08707764,-0.11707105,-0.11997364,-0.02393015,-0.01101919,-0.00329676,0.99251152,0.06598239,-0.08280820,0.06090986
1755649407462,0.01434310,-0.04157370,0.06092268,-0.02911862,-0.03819525,-0.02060731,0.99251155,0.06582223,-0.08301827,0.06079652
1755649407473,-0.02602174,-0.04450996,0.04865685,-0.02588702,-0.03257105,-0.02148461,0.99251325,0.06567727,-0.08320067,0.06067620
1755649407484,0.09123160,0.07174985,0.14635069,-0.02957140,-0.00429932,-0.01168997,0.99252617,0.06551167,-0.08322474,0.06061074
1755649407496,-0.05321843,0.12544345,-0.03041053,-0.02842784,-0.00067602,0.00573572,0.99253439,0.06535247,-0.08322853,0.06064286
1755649407507,-0.06541029,0.00020232,-0.11832965,-0.02009835,0.00926504,0.02384243,0.99253791,0.06524193,-0.08317757,0.06077399
1755649407518,-0.02508869,-0.00922683,-0.03583605,-0.00124879,0.03372556,0.01228870,0.99254996,0.06523494,-0.08298871,0.06084281
1755649407529,0.00750201,0.13185201,-0.00981930,-0.01890548,0.00508418,0.00443524,0.99255784,0.06512812,-0.08295998,0.06086787
1755649407540,0.03024289,0.10141047,0.05187286,-0.01011681,-0.00845894,-0.00260605,0.99255848,0.06507298,-0.08300608,0.06085366
1755649407551,-0.39585963,0.14518219,-0.21876630,-0.00066200,-0.01693428,-0.00379708,0.99255197,0.06506921,-0.08310261,0.06083202
1755649407562,0.05183920,0.05708423,0.07780973,0.00585004,-0.00737936,-0.00662269,0.99254867,0.06510168,-0.08314357,0.06079526
1755649407573,-0.08964439,0.14173577,-0.09504081,0.02339731,-0.01999437,-0.00862391,0.99253390,0.06523036,-0.08325353,0.06074783
1755649407585,0.29425646,-0.05259640,0.17361650,0.04465867,-0.01150636,0.04158993,0.99249775,0.06548045,-0.08331797,0.06098074
1755649407596,-0.08612574,-0.01500403,-0.04271889,0.03934006,0.01476039,0.05454842,0.99247083,0.06570469,-0.08323384,0.06129166
1755649407607,-0.00139062,0.00218275,0.01744439,0.02607424,0.00779789,0.04801176,0.99244878,0.06584679,-0.08319134,0.06155333
1755649407618,0.14491637,-0.07702510,0.02121463,0.00547525,-0.00210958,0.02505017,0.99243715,0.06587718,-0.08320305,0.06169236
1755649407629,0.06323542,-0.14477109,0.08910834,-0.01839250,-0.02142016,0.00025126,0.99243383,0.06577418,-0.08332300,0.06169376
1755649407640,0.12544345,-0.27321963,0.03801317,-0.00813490,-0.02534203,0.00049316,0.99242476,0.06572863,-0.08346491,0.06169652
1755649407651,-0.05865463,-0.31544017,-0.13511324,-0.05766710,-0.04237570,-0.03810198,0.99243909,0.06541146,-0.08369798,0.06148696
1755649407663,0.13436814,0.00373433,-0.13307810,-0.02466344,-0.01128264,-0.02699883,0.99245232,0.06527211,-0.08376173,0.06133442
1755649407674,-0.07695028,0.03261625,-0.13126710,-0.02665420,0.00403155,-0.01037806,0.99246735,0.06512551,-0.08373955,0.06127734
1755649407685,0.08237602,0.20631349,0.14085230,-0.00827268,0.02841578,0.00506455,0.99248218,0.06507877,-0.08357900,0.06130596
1755649407696,-0.05309622,0.22351851,-0.02055844,-0.02013056,0.02391288,0.02290875,0.99249271,0.06496805,-0.08344748,0.06143195
1755649407707,0.05408237,0.13522320,-0.07004790,0.00272581,0.00084124,0.01605372,0.99248654,0.06498332,-0.08344277,0.06152185
1755649407718,0.25575189,0.00408443,-0.07860440,0.02879766,0.00191810,0.02202876,0.99246906,0.06514603,-0.08343193,0.06164632
1755649407730,0.09187248,-0.02967661,-0.04943818,0.01467745,-0.02932868,0.01074144,0.99244631,0.06522749,-0.08359471,0.06170593
1755649407741,0.25552254,-0.16828891,-0.02610546,-0.01740789,-0.05697502,-0.01714065,0.99243214,0.06513261,-0.08390522,0.06161252
1755649407752,-0.07318406,-0.21719381,-0.15039613,-0.03573206,-0.04724750,-0.02002664,0.99242980,0.06493251,-0.08416981,0.06150037
1755649407763,0.04949660,-0.11325119,0.01555417,-0.04763603,-0.04382117,-0.04873972,0.99244337,0.06466337,-0.08441740,0.06122499
1755649407774,0.08408087,0.03867121,-0.05130474,-0.05047515,-0.05172291,-0.04404823,0.99245218,0.06438323,-0.08470446,0.06098052
1755649407785,0.21092140,0.16786634,0.02902588,-0.02868120,-0.03910840,-0.04552019,0.99245944,0.06422405,-0.08492151,0.06072788
1755649407796,0.05418164,0.09481787,-0.12771387,-0.02125784,-0.04527242,-0.01836687,0.99245176,0.06410607,-0.08517277,0.06062595
1755649407807,0.11803858,-0.01741553,0.10642823,-0.02671512,-0.03326168,0.00418058,0.99244405,0.06395780,-0.08535738,0.06064915
1755649407819,-0.04352679,-0.05595384,0.10160817,-0.04299105,-0.06618263,-0.01358388,0.99243224,0.06371705,-0.08572800,0.06057308
1755649407830,0.10643687,-0.17581089,0.06652304,-0.04039920,-0.05408265,-0.04405652,0.99243556,0.06349082,-0.08603086,0.06032636
1755649407841,0.06230198,-0.22959385,0.02579502,-0.07437690,-0.05516568,-0.04752064,0.99245129,0.06307802,-0.08633703,0.06006262
1755649407852,0.13351905,-0.23414210,-0.12964893,-0.07931484,-0.04000976,-0.06913571,0.99248297,0.06263783,-0.08655909,0.05967892
1755649407863,0.01880111,0.04050029,-0.04912602,-0.05516945,-0.02714246,-0.06214975,0.99251002,0.06232888,-0.08671108,0.05933088
1755649407874,-0.11213884,0.11166368,-0.05511909,-0.03424109,-0.02348042,-0.05957707,0.99253044,0.06213713,-0.08684257,0.05899725
1755649407886,-0.12448302,0.26637292,0.08776873,-0.03243641,-0.00873006,-0.02345808,0.99254518,0.06195711,-0.08689103,0.05886706
1755649407897,-0.09675293,0.13642164,-0.04450635,-0.02269330,-0.00920395,-0.00437092,0.99255000,0.06183116,-0.08694211,0.05884280
1755649407908,0.03483106,0.12384376,0.22446681,-0.03318617,-0.01128352,0.01139108,0.99255222,0.06164698,-0.08700473,0.05890602
1755649407919,-0.05284173,0.07867184,0.16230937,-0.01264960,-0.04975797,-0.01168165,0.99253603,0.06157614,-0.08728338,0.05884060
1755649407930,0.10556436,-0.08228319,0.03940954,-0.00831504,-0.05840192,-0.01613144,0.99251564,0.06152999,-0.08760751,0.05875107
1755649407941,0.07974203,-0.03439164,0.04837261,-0.02569178,-0.06187187,-0.04008870,0.99250717,0.06138612,-0.08795399,0.05852657
1755649407952,0.02403274,-0.14332392,-0.02945781,-0.04357048,-0.06491438,-0.04991016,0.99250640,0.06114430,-0.08831426,0.05824957
1755649407963,0.05030751,-0.07985761,0.02729414,-0.04534852,-0.05399044,-0.03193549,0.99250554,0.06089035,-0.08861661,0.05807073
1755649407975,-0.03721532,-0.10180223,0.15242043,-0.06863092,-0.05600641,-0.02428115,0.99250891,0.06050945,-0.08892745,0.05793597
1755649407985,-0.00044196,0.08074017,0.04380907,-0.05528378,-0.06112819,-0.02824784,0.99250633,0.06021091,-0.08925754,0.05778344
1755649407997,-0.04251843,-0.04443669,0.01766908,-0.02625260,-0.07483584,-0.02915633,0.99248695,0.06006390,-0.08967662,0.05762016
1755649408008,0.03041053,0.01710592,0.07982765,-0.03367711,-0.06237226,-0.03618970,0.99247847,0.05987531,-0.09002590,0.05741750
1755649408019,-0.02941528,0.08828982,-0.04479145,-0.05293343,-0.05711244,-0.03782231,0.99247946,0.05958417,-0.09034002,0.05720948
1755649408030,-0.04333501,-0.03396995,-0.07004790,-0.03967905,-0.04589018,-0.02860562,0.99247857,0.05936197,-0.09059701,0.05704928
1755649408041,-0.14503562,-0.15654136,0.05752869,-0.03436842,-0.02218880,-0.02416925,0.99248635,0.05917294,-0.09071905,0.05691635
1755649408052,-0.31751361,-0.44448623,0.25330592,-0.04782599,-0.02684351,-0.00654977,0.99249063,0.05890512,-0.09086937,0.05687967
1755649408063,-0.00573607,0.15594932,0.11620718,-0.02336522,-0.03355054,-0.02424385,0.99248895,0.05877544,-0.09105557,0.05674512
1755649408075,0.03609538,0.20894399,-0.03534197,-0.00836302,-0.04770007,0.01100848,0.99246366,0.05872861,-0.09132269,0.05680677
1755649408086,0.15515024,0.47031428,-0.13462480,0.00192601,-0.03852761,0.02103710,0.99243663,0.05873930,-0.09153652,0.05692352
1755649408097,-0.09294390,0.08792685,-0.07374897,-0.00324613,-0.04170759,0.00305892,0.99241516,0.05872112,-0.09177009,0.05694065
1755649408108,-0.01458205,-0.01808934,-0.09780685,-0.01850346,-0.00563315,0.00348044,0.99241723,0.05861843,-0.09180135,0.05695997
1755649408119,-0.04446856,-0.03243961,-0.10263555,-0.00508065,-0.00394837,-0.00363509,0.99241803,0.05858997,-0.09182346,0.05693961
1755649408130,-0.00931247,0.00225469,0.07259925,-0.00704701,-0.02006715,-0.00299417,0.99241098,0.05855086,-0.09193483,0.05692300
1755649408141,-0.02498253,0.05098388,0.11431347,-0.00513572,-0.02817894,-0.01508623,0.99240289,0.05852210,-0.09209264,0.05683851
1755649408153,0.03294783,-0.01177449,-0.06309673,0.00590009,-0.04067515,-0.00719345,0.99238227,0.05855485,-0.09231838,0.05679859
1755649408164,0.05418164,0.05224658,0.02515576,0.00520438,-0.03081349,0.00955857,0.99236160,0.05858373,-0.09248940,0.05685164
1755649408175,-0.08377020,-0.00038689,-0.02508060,0.01679649,-0.03485406,0.01290178,0.99233344,0.05867863,-0.09268632,0.05692454
1755649408186,-0.04116918,0.09370305,0.10894751,0.00018112,-0.05243520,0.01316411,0.99230225,0.05867963,-0.09297472,0.05699694
1755649408197,0.02529603,-0.03006496,-0.08781041,0.01755747,-0.02655712,-0.00081953,0.99228275,0.05877795,-0.09312344,0.05699235
1755649408208,0.04181448,-0.02993537,-0.12164213,0.01729623,-0.02321425,-0.01293850,0.99226896,0.05887481,-0.09325344,0.05691989
1755649408219,0.06803805,0.06724761,-0.01041822,-0.01397156,-0.04086402,-0.02323310,0.99225960,0.05879727,-0.09348023,0.05679095
1755649408231,-0.03289600,-0.09917176,0.04063623,-0.00196248,-0.03729346,-0.02863557,0.99224981,0.05878638,-0.09368721,0.05663202
1755649408242,0.00318489,-0.16840518,-0.01094163,-0.01264140,-0.03581492,-0.01546461,0.99223998,0.05871558,-0.09388777,0.05654542
1755649408253,0.06082107,-0.21382406,-0.05321843,-0.02778593,-0.01771760,-0.01160223,0.99224348,0.05855998,-0.09398699,0.05648045
1755649408264,-0.01233600,-0.06374463,-0.04556027,-0.02994929,-0.01808013,-0.00474552,0.99224527,0.05839376,-0.09408734,0.05645411
1755649408275,-0.09231035,-0.07842356,-0.01186627,-0.01809180,-0.01647611,-0.01183663,0.99224624,0.05829245,-0.09417960,0.05638782
1755649408286,-0.05779260,0.11299360,-0.06929929,-0.02973849,-0.00354416,-0.02247116,0.99226114,0.05812740,-0.09419927,0.05626311
1755649408297,-0.05418164,0.01209412,-0.09675293,-0.05709228,-0.00286851,-0.02839749,0.99228706,0.05781054,-0.09421519,0.05610550
1755649408309,0.05031153,-0.06530823,-0.01548047,-0.03502470,0.01088605,-0.03456220,0.99231493,0.05761615,-0.09415478,0.05591368
1755649408320,-0.01161035,0.00628894,-0.05031153,-0.03132610,-0.00816729,-0.02580797,0.99232877,0.05744229,-0.09420010,0.05577045
1755649408331,-0.08666035,0.07932882,-0.02202990,-0.03463149,-0.01434642,-0.02191075,0.99233970,0.05723970,-0.09428403,0.05564227
1755649408342,0.03399420,0.03053818,0.01204033,-0.02988478,0.00930231,-0.01630489,0.99235887,0.05707683,-0.09423333,0.05555341
1755649408353,0.00634285,-0.01310122,0.48543783,-0.03469820,0.00989453,-0.01097470,0.99237784,0.05689119,-0.09418040,0.05549470
1755649408364,-0.11260589,0.11665432,0.00485114,-0.04033890,0.01090754,-0.00461766,0.99239819,0.05666328,-0.09411877,0.05546861
1755649408375,0.00010462,0.05895511,-0.13049986,-0.00695858,-0.00540501,-0.00464419,0.99239898,0.05662500,-0.09414850,0.05544306
1755649408386,-0.08369808,0.10835480,-0.45864613,-0.00097485,-0.00445171,0.00090844,0.99239664,0.05661954,-0.09417343,0.05544815
1755649408398,0.03430920,0.02939955,0.00653509,-0.01171912,0.00225115,-0.00551207,0.99240336,0.05655333,-0.09416071,0.05541701
1755649408409,-0.00283979,0.06618462,-0.02174512,-0.00111023,-0.01021610,-0.00371793,0.99239935,0.05654695,-0.09421945,0.05539563
1755649408420,0.02106113,-0.03485899,0.05895236,0.00091007,-0.01630961,-0.00353900,0.99239198,0.05655173,-0.09430508,0.05537705
1755649408431,-0.05348268,-0.02045305,0.03090492,0.00055323,-0.00768005,-0.01426046,0.99239217,0.05655491,-0.09434924,0.05529505
1755649408444,-0.06808524,0.01690296,0.00904481,-0.00644280,-0.00106627,-0.01187073,0.99239815,0.05651335,-0.09435611,0.05521848
1755649408453,0.35725138,-0.39503693,0.04846407,-0.01147846,0.00852805,-0.00470756,0.99240591,0.05646170,-0.09431774,0.05519730
1755649408464,-0.06852618,0.04685177,-0.02430162,-0.00123741,0.01115250,-0.00424201,0.99241343,0.05645489,-0.09425640,0.05517397
1755649408475,0.04608415,-0.00704270,-0.15553401,0.01328264,0.01104794,0.00050282,0.99241486,0.05652662,-0.09419674,0.05517668
1755649408486,-0.23693718,0.28931815,-0.05950305,0.00952846,0.02141082,0.00039246,0.99242299,0.05657950,-0.09407791,0.05517886
1755649408497,-0.11855998,0.00362581,0.04946849,-0.00193261,0.01647553,0.00898381,0.99242955,0.05656868,-0.09398565,0.05522917
1755649408509,0.01178250,-0.10154761,0.14852067,-0.01535871,0.00575751,0.00928197,0.99243475,0.05648037,-0.09395254,0.05528254
1755649408520,0.04669554,-0.08886286,0.01912493,-0.01734770,-0.00702541,-0.00255726,0.99243727,0.05638582,-0.09399083,0.05526861
1755649408531,0.12254784,-0.01699722,-0.08409104,-0.02198794,-0.00807120,0.00088863,0.99243973,0.05626159,-0.09403643,0.05527363
1755649408542,-0.08044999,-0.03966152,-0.05395851,-0.02468707,-0.00699339,-0.01385313,0.99244816,0.05612334,-0.09407560,0.05519605
1755649408554,-0.02859938,-0.30067022,0.05739532,-0.03249810,0.00428818,-0.01402850,0.99246538,0.05593810,-0.09405115,0.05511609
1755649408565,-0.07757160,0.12420443,-0.05610459,-0.01886630,0.00408033,0.00304044,0.99247242,0.05583434,-0.09402871,0.05513281
1755649408576,0.10101006,0.05789344,-0.02394195,-0.00054178,0.00533774,0.01945800,0.99246939,0.05583133,-0.09399909,0.05524080
1755649408586,-0.10928497,0.34255278,-0.06918669,0.01429012,-0.00449070,0.01684040,0.99245757,0.05590921,-0.09402356,0.05533258
1755649408598,-0.00762284,0.05569811,0.09563665,-0.00013147,-0.00484068,0.00068414,0.99245481,0.05590847,-0.09405091,0.05533645
1755649408609,0.01149437,-0.05215895,-0.02274522,-0.01227330,-0.00700707,-0.00346463,0.99245606,0.05583851,-0.09409085,0.05531670
1755649408620,-0.00612578,-0.08797449,-0.03923669,-0.00403880,-0.00584055,-0.00480300,0.99245574,0.05581650,-0.09412268,0.05529052
1755649408631,-0.06873896,0.09373495,0.01892452,-0.00217090,-0.00362545,-0.00651372,0.99245652,0.05580445,-0.09414280,0.05525437
1755649408642,-0.06139784,0.02253217,0.02726737,0.00483394,-0.00657063,0.00688451,0.99244930,0.05583176,-0.09417993,0.05529327
1755649408654,-0.18432844,-0.21040139,0.08863319,0.01646850,-0.01347180,0.01780148,0.99243170,0.05592234,-0.09425402,0.05539118
1755649408665,-0.07716673,-0.04125292,0.05802191,0.00702594,-0.01046238,0.01258328,0.99241999,0.05596169,-0.09431261,0.05546164
1755649408676,0.05406070,0.05932596,0.06193915,-0.01907050,-0.00384840,0.00791269,0.99242146,0.05585584,-0.09433397,0.05550556
1755649408687,0.22391810,0.07092366,-0.06518744,-0.02708976,-0.00634013,0.01298971,0.99242254,0.05570414,-0.09436947,0.05557830
1755649408698,0.00489082,-0.08120869,-0.10446646,-0.03285223,-0.01757924,0.01254416,0.99241960,0.05552345,-0.09446616,0.05564729
1755649408709,0.00785908,-0.02507521,0.00274983,-0.03362616,0.01221267,-0.01026365,0.99244003,0.05533347,-0.09439716,0.05558930
1755649408721,-0.01625107,-0.01006487,-0.05796614,-0.02300560,-0.00069792,-0.01478177,0.99245136,0.05520579,-0.09440103,0.05550727
1755649408731,0.02709082,0.12964893,-0.02515576,-0.00336296,-0.00376400,-0.02252102,0.99245740,0.05518712,-0.09442192,0.05538227
1755649408743,-0.16602507,0.12148802,-0.01356145,-0.00264024,0.00069062,0.00404799,0.99245732,0.05517234,-0.09441805,0.05540494
1755649408754,-0.15950412,0.15461464,0.09302103,0.00390851,0.02779407,0.01436550,0.99246633,0.05519403,-0.09426380,0.05548467
1755649408765,0.01933192,0.13186459,0.01234572,0.01083019,0.02269838,0.02814613,0.99246619,0.05525468,-0.09413669,0.05564229
1755649408776,-0.02850987,0.03421185,-0.00950329,0.04305641,0.01162817,0.03523662,0.99244783,0.05549579,-0.09407157,0.05583961
1755649408787,0.07009000,-0.07132150,-0.04918967,0.03868854,-0.00550480,0.03313717,0.99242277,0.05570858,-0.09410185,0.05602187
1755649408798,0.05280374,-0.07962894,0.04260930,0.03466045,-0.01018061,0.01979322,0.99240018,0.05590268,-0.09415886,0.05613271
1755649408810,0.05131777,0.03801317,0.07032436,0.01862252,-0.02195913,0.00013644,0.99238258,0.05600696,-0.09428183,0.05613347
1755649408821,0.00038704,0.00444220,0.08796435,0.01559066,-0.02269308,0.00107896,0.99236554,0.05609271,-0.09440664,0.05613941
1755649408832,0.03779180,-0.01484321,0.02951963,0.02838021,-0.02218448,0.00673692,0.99234217,0.05625448,-0.09453309,0.05617781
1755649408843,-0.07463328,0.00011235,0.16447667,0.03589196,-0.01251123,0.03088246,0.99231477,0.05645189,-0.09460190,0.05634766
1755649408854,-0.12081803,0.03516529,0.32484358,0.04117512,-0.00738388,0.03084029,0.99228810,0.05668041,-0.09464288,0.05651883
1755649408865,-0.03397213,0.06178852,-0.02782495,0.04478028,-0.00549685,0.03362570,0.99226007,0.05693118,-0.09467367,0.05670713
1755649408876,0.02653795,0.01795976,-0.17704059,0.03021930,-0.00185282,0.03285251,0.99223901,0.05709889,-0.09468395,0.05688946
1755649408888,0.13545411,-0.04644141,-0.14319434,0.00612035,0.00571544,0.02487030,0.99223216,0.05713286,-0.09465223,0.05702749
1755649408899,-0.09022134,-0.07298271,0.07599209,-0.00543213,-0.01028844,0.00157541,0.99222790,0.05710244,-0.09470984,0.05703631
1755649408910,0.06974850,-0.16243695,0.08973835,0.01005106,0.00243225,0.01064375,0.99222258,0.05715823,-0.09469635,0.05709539
1755649408921,0.06579199,-0.02418823,-0.09868799,0.00031138,-0.01603944,-0.00361931,0.99221514,0.05715995,-0.09478536,0.05707530
1755649408932,0.04623223,0.00249568,-0.08996449,0.00469152,-0.00611532,-0.00680299,0.99221255,0.05718623,-0.09481961,0.05703720
1755649408943,-0.10083038,-0.04944334,-0.10273088,0.00166956,0.00655187,0.00010829,0.99221545,0.05719549,-0.09478325,0.05703780
1755649408955,-0.12524547,-0.14062845,-0.31241951,0.00572715,0.02655650,0.00631209,0.99222595,0.05722814,-0.09463187,0.05707378
1755649408966,-0.03290916,0.11760186,-0.20540571,0.01687340,0.05082452,0.02009679,0.99224085,0.05732094,-0.09435234,0.05718432
1755649408977,0.06449023,0.05788024,-0.03287841,0.02281579,0.03890484,0.03431854,0.99224304,0.05744757,-0.09413642,0.05737478
1755649408988,0.07933741,0.08562635,0.13932422,0.02379572,0.03111335,0.02714512,0.99224303,0.05757963,-0.09396374,0.05752544
1755649408999,0.03483106,-0.02225317,0.06966211,0.00805176,0.03320070,-0.00302678,0.99225884,0.05762432,-0.09377948,0.05750864
1755649409010,0.08587287,-0.10746725,0.01377667,0.00453248,0.01333853,-0.00384646,0.99226573,0.05764993,-0.09370411,0.05748691
1755649409021,0.08286503,-0.09426133,-0.10884277,-0.00050794,0.01912154,-0.00573409,0.99227775,0.05764711,-0.09359799,0.05745508
1755649409032,-0.01320702,-0.07447141,-0.04065063,-0.01526526,0.02276633,0.00691309,0.99229223,0.05756315,-0.09347277,0.05749311
1755649409044,0.05612126,-0.02798287,-0.10712801,-0.00071428,0.00931187,-0.00189307,0.99229799,0.05755915,-0.09342063,0.05748250
1755649409055,0.10159058,0.04640253,-0.24637443,-0.00103111,-0.00417752,-0.01265939,0.99230020,0.05755343,-0.09344381,0.05741224
1755649409066,0.15867481,-0.05805176,-0.13351905,-0.00943879,-0.01298944,-0.01301507,0.99230062,0.05750104,-0.09351590,0.05734001
1755649409077,0.00667807,-0.08561214,0.14037397,-0.02058733,0.00121846,-0.02232273,0.99231529,0.05738473,-0.09350902,0.05721389
1755649409088,-0.04289547,-0.12500279,0.08418671,-0.05093839,-0.01348239,-0.04619169,0.99233907,0.05710456,-0.09358317,0.05695983
1755649409099,0.05684696,0.01352059,0.07996588,-0.05126964,0.01151592,-0.02932901,0.99237105,0.05681745,-0.09351868,0.05679559
1755649409110,-0.01971341,-0.07351927,-0.00901876,-0.04234793,0.00430728,-0.02116143,0.99239344,0.05658242,-0.09349478,0.05667815
1755649409122,0.02333871,0.03580001,0.03364679,-0.03101205,0.00126715,-0.02341445,0.99241148,0.05640876,-0.09348768,0.05654702
1755649409133,0.04417808,0.00257864,-0.02233956,-0.02144480,-0.01666155,-0.01466947,0.99241416,0.05628974,-0.09358015,0.05646561
1755649409144,-0.07609482,0.02215294,-0.02537636,-0.03834853,-0.00104419,-0.01706115,0.99243119,0.05607499,-0.09358600,0.05637007
1755649409155,-0.13220597,-0.02767393,-0.02857667,-0.04182441,0.00675060,-0.01626623,0.99245294,0.05584286,-0.09354853,0.05627979
1755649409166,-0.02128565,0.07014588,-0.05611670,-0.04013289,-0.00969398,-0.03465972,0.99247126,0.05562012,-0.09360234,0.05608743
1755649409177,0.03322029,0.00240475,0.00639615,-0.02182190,0.00818922,-0.03946541,0.99249531,0.05549574,-0.09355566,0.05586247
1755649409188,0.01327253,0.01011282,0.04082094,-0.02201052,0.01941777,-0.00993375,0.99251503,0.05537578,-0.09344983,0.05580834
1755649409199,-0.04134635,0.21351775,0.11008531,-0.01755709,0.00015018,0.00355759,0.99251943,0.05527834,-0.09344900,0.05582808
1755649409211,-0.10451908,0.04143778,0.06164297,-0.00013770,0.00632767,-0.00573828,0.99252461,0.05527757,-0.09341356,0.05579595
1755649409222,-0.06842370,0.00522681,0.00760263,0.00785753,0.00138396,0.00734597,0.99252058,0.05532157,-0.09340581,0.05583708
1755649409233,0.02937143,-0.00257864,-0.04664874,0.00217082,0.00747349,-0.00505758,0.99252539,0.05533362,-0.09336433,0.05580901
1755649409244,-0.03676611,-0.03386353,-0.07933741,-0.00852415,-0.00065464,-0.01337710,0.99253185,0.05528631,-0.09336797,0.05573477
1755649409255,0.00922932,-0.12638950,0.11155666,-0.02344913,0.00254454,-0.00316160,0.99254149,0.05515499,-0.09335372,0.05571707
1755649409266,-0.05892041,-0.03088570,0.06082107,-0.01457936,-0.00606662,0.00097639,0.99254253,0.05507335,-0.09338769,0.05572253
1755649409278,-0.05822453,0.09241633,0.08923730,-0.01888440,-0.01019689,0.00492657,0.99254147,0.05496854,-0.09344428,0.05574988
1755649409289,0.00448624,0.03480259,-0.06373198,-0.01804687,0.00095653,0.01472107,0.99254294,0.05486748,-0.09343893,0.05583231
1755649409300,0.04595258,0.09990991,-0.06213802,-0.01681521,0.03111463,0.01361160,0.99255993,0.05477500,-0.09326780,0.05590718
1755649409311,0.03540018,0.11615684,-0.00852227,-0.00564345,0.01149149,0.01128490,0.99256427,0.05474255,-0.09320172,0.05597207
1755649409322,-0.06069955,0.00688313,-0.12605599,0.01091526,-0.01058126,0.00290384,0.99255476,0.05480149,-0.09325886,0.05598775
1755649409333,-0.01914737,0.08340018,0.10390265,0.00811266,0.00038820,-0.00686367,0.99255462,0.05484692,-0.09325669,0.05594931
1755649409344,0.00950329,0.03753800,-0.02280790,-0.00277642,0.00853805,-0.00304786,0.99256094,0.05483137,-0.09320887,0.05593224
1755649409355,0.03043567,0.02156886,-0.12920204,-0.00268137,-0.00098759,0.00318361,0.99256025,0.05481662,-0.09321430,0.05594975
1755649409367,-0.06220336,-0.07345180,0.03946458,0.00315168,-0.02124562,0.00621441,0.99254614,0.05483427,-0.09333328,0.05598455
1755649409378,0.03837361,-0.04990662,0.14258114,0.00254760,-0.01671438,0.00841670,0.99253355,0.05484892,-0.09342939,0.05603295
1755649409389,-0.01028036,-0.05529975,0.04326316,0.00855942,-0.02495162,0.00275743,0.99251717,0.05489600,-0.09356662,0.05604811
1755649409400,0.11625369,-0.06896405,-0.05320084,0.02203004,-0.02720800,-0.00119273,0.99249671,0.05501716,-0.09371627,0.05604155
1755649409411,-0.12637650,0.06019903,0.04582314,-0.00352514,-0.01633792,-0.01826399,0.99249493,0.05499742,-0.09380776,0.05593928
1755649409422,-0.04078027,0.02343370,0.03215977,-0.01164974,-0.00809468,-0.00457983,0.99249569,0.05493335,-0.09385228,0.05591409
1755649409433,0.01344284,-0.03346887,0.01783163,-0.01180144,-0.00167820,0.00251567,0.99249766,0.05486726,-0.09386168,0.05592818
1755649409445,-0.00369976,-0.05459438,0.01822361,-0.00769933,0.00154166,0.00778018,0.99249844,0.05482183,-0.09385258,0.05597408
1755649409456,0.11152820,-0.09909174,0.02976752,-0.00515547,-0.00575776,0.01935260,0.99249148,0.05479528,-0.09388223,0.05607374
1755649409467,0.04958319,0.00134707,0.03325229,-0.01154836,-0.00415224,0.01171277,0.99248914,0.05473061,-0.09390549,0.05613934
1755649409478,-0.04751646,-0.02898504,0.03231119,-0.02183308,-0.00167601,0.00916000,0.99249208,0.05460835,-0.09391487,0.05619063
1755649409489,-0.14319434,-0.08887880,-0.02144114,-0.02578143,-0.00424567,0.00523578,0.99249607,0.05446526,-0.09393843,0.05621969
1755649409500,-0.08996449,0.02678901,-0.02626676,-0.04057941,0.00420258,-0.01882833,0.99251671,0.05423802,-0.09391490,0.05611425
1755649409512,0.04014420,-0.00152110,-0.06145572,-0.02621272,0.01047646,-0.01653607,0.99253600,0.05408729,-0.09385466,0.05601917
1755649409523,-0.03574554,0.14721041,-0.04956208,-0.02624148,0.01794168,-0.01810222,0.99255818,0.05394690,-0.09375867,0.05592232
1755649409534,-0.07890337,-0.00529881,0.00249568,-0.00834683,0.00721192,-0.00603649,0.99256636,0.05390058,-0.09371865,0.05588882
1755649409545,-0.01136893,0.15929491,0.08516950,-0.00074704,0.01409675,-0.00748105,0.99257667,0.05389628,-0.09363759,0.05584580
1755649409556,-0.00684314,0.19469180,0.06581857,0.01209893,0.01502808,0.01271429,0.99257690,0.05396162,-0.09355644,0.05591446
1755649409567,-0.04192482,-0.00476301,-0.00465063,0.02416486,0.01600372,0.02507804,0.99257000,0.05409815,-0.09346602,0.05605615
1755649409578,-0.12298773,0.04758794,-0.05535457,0.02974824,0.01303886,0.04445049,0.99255369,0.05426474,-0.09339300,0.05630507
1755649409589,0.07684947,-0.00481605,-0.03750904,0.01276682,-0.00158856,0.03083412,0.99253926,0.05433559,-0.09340182,0.05647620
1755649409601,0.02128565,-0.02805835,-0.03096094,0.01281740,-0.02309188,0.01112998,0.99251978,0.05440673,-0.09352998,0.05653798
1755649409612,0.08898481,-0.10263112,0.01942863,0.02275620,-0.02266494,-0.00067952,0.99250086,0.05453530,-0.09365803,0.05653414
1755649409623,-0.10159693,0.02505738,0.02720617,0.00303930,-0.00859004,-0.00040439,0.99249566,0.05455187,-0.09370485,0.05653193
1755649409634,0.01397806,0.06218609,0.03537340,0.00285666,-0.00393977,-0.00252623,0.99249348,0.05456801,-0.09372711,0.05651766
1755649409645,-0.12115522,0.02866199,-0.04573931,0.02204146,0.00246927,0.02046209,0.99248157,0.05469034,-0.09371340,0.05663122
1755649409656,-0.00967529,0.15383716,0.16060987,0.03199040,0.01779030,0.04202183,0.99246775,0.05486788,-0.09361467,0.05686444
1755649409667,0.02929753,0.02255962,-0.00421227,0.03238218,-0.00735606,0.03146618,0.99244371,0.05504922,-0.09365586,0.05704066
1755649409679,0.07602633,-0.03136086,-0.05321843,0.01735712,-0.00505031,0.01694135,0.99243019,0.05514642,-0.09368414,0.05713553
1755649409690,0.08529808,-0.14592416,-0.06396060,-0.00666592,-0.02015705,0.02031724,0.99241518,0.05510943,-0.09379602,0.05724829
1755649409701,0.00669511,-0.21412799,-0.02974273,-0.00144907,-0.02075486,-0.00649685,0.99240674,0.05510131,-0.09391224,0.05721191
1755649409712,0.02660922,-0.13637223,0.00380132,-0.00875894,-0.01115372,-0.01412071,0.99240810,0.05505226,-0.09397470,0.05713283
1755649409723,-0.04676185,-0.00191762,-0.09250331,-0.05289190,-0.00044623,-0.04602107,0.99243850,0.05476136,-0.09397716,0.05687971
1755649409734,-0.02402991,-0.02322950,-0.06598550,-0.03423632,0.01676543,-0.01718659,0.99246324,0.05457134,-0.09388411,0.05678433
1755649409746,0.06497443,-0.01170166,0.03620132,-0.01253889,0.01872399,-0.01084818,0.99248172,0.05449611,-0.09377177,0.05671924
1755649409757,-0.03804064,0.02938983,0.02646804,-0.01104729,-0.00749153,0.00640679,0.99247933,0.05443977,-0.09380997,0.05675191
1755649409768,0.09242751,0.04079274,0.06425533,-0.01275070,-0.00545970,-0.00383151,0.99248156,0.05436900,-0.09384027,0.05673065
1755649409779,-0.01270010,-0.03884885,-0.04999298,-0.01011551,-0.00449319,0.00503486,0.99248066,0.05431185,-0.09386566,0.05675910
1755649409790,-0.07252778,0.04413144,-0.06623710,-0.01485126,0.01018599,-0.00283055,0.99249151,0.05422868,-0.09380862,0.05674324
1755649409801,-0.07093445,0.03961035,0.01710027,-0.01854912,0.00904771,0.00108388,0.99250144,0.05412666,-0.09375886,0.05674921
1755649409812,0.12478686,-0.05458345,-0.10042387,0.00147886,-0.00542836,0.01196622,0.99249428,0.05413495,-0.09378926,0.05681622
1755649409823,0.05028042,-0.01338817,-0.05932316,0.01657931,-0.01382667,-0.00412387,0.99248341,0.05422613,-0.09386530,0.05679353
1755649409835,-0.01115208,0.01144064,0.05691465,-0.00967973,-0.01006023,-0.00622473,0.99248303,0.05417144,-0.09392214,0.05675837
1755649409846,-0.07764209,-0.07461535,0.11007573,-0.02734263,-0.00812927,-0.00610312,0.99248897,0.05401969,-0.09396726,0.05672449
1755649409857,0.06732782,-0.22664922,0.13503236,-0.01777778,-0.00172399,0.00562102,0.99249167,0.05392013,-0.09397691,0.05675597
1755649409868,-0.02536309,0.02018854,0.01275065,-0.03725725,0.00388291,0.01984438,0.99249862,0.05371336,-0.09395536,0.05686611
1755649409879,-0.04063623,0.20511622,-0.25349269,-0.02599258,0.00202229,0.01270353,0.99250344,0.05356910,-0.09394414,0.05693661
1755649409890,0.13573440,0.13260516,-0.06361212,-0.01480488,0.00354582,0.01131467,0.99250615,0.05348619,-0.09392428,0.05699997
1755649409902,0.00518472,0.04321575,0.02955792,-0.01073181,-0.02329385,0.00133816,0.99249652,0.05342556,-0.09405589,0.05700753
1755649409913,-0.06946973,-0.08092596,0.01956452,-0.01897201,-0.00604152,-0.00092875,0.99249927,0.05332121,-0.09408912,0.05700243
1755649409924,0.01755626,0.05188596,0.06114785,-0.03671805,0.01899313,-0.02046170,0.99252670,0.05311742,-0.09398371,0.05688886
1755649409935,-0.00190081,0.05675095,0.07586418,-0.02079037,0.00085443,-0.00660921,0.99253558,0.05299996,-0.09397888,0.05685152
1755649409946,-0.01379281,-0.08405593,0.02587678,-0.00019572,-0.01649189,0.00840011,0.99252440,0.05299888,-0.09406959,0.05689772
1755649409957,0.01182241,-0.01674841,0.03940803,0.01425866,-0.01630084,0.01186100,0.99250796,0.05307731,-0.09415924,0.05696296
1755649409968,0.05515365,0.03570646,-0.11535268,0.03814230,-0.01699262,0.01082661,0.99248400,0.05329090,-0.09425440,0.05702359
1755649409980,0.10359325,0.12517263,0.04140061,0.02663483,-0.00323327,0.01253684,0.99246949,0.05344805,-0.09427348,0.05709755
1755649409991,-0.07026006,-0.02771600,-0.04275193,0.01050098,-0.00057242,0.00752965,0.99246380,0.05350475,-0.09427657,0.05713821
1755649410002,-0.06336571,-0.06183266,0.07563004,0.00324523,0.00858492,0.00241059,0.99246651,0.05352228,-0.09423021,0.05715123
1755649410013,0.05849173,0.02960163,0.06046213,-0.00480975,0.01046885,0.00291785,0.99247248,0.05349582,-0.09417263,0.05716728
1755649410024,0.04754967,0.06772705,0.05914243,0.00997391,0.00324300,0.01712581,0.99246572,0.05355118,-0.09415463,0.05726233
1755649410035,0.06529018,0.07400153,0.01765386,0.04299569,-0.02259513,0.03269853,0.99243010,0.05379195,-0.09428117,0.05744544
1755649410047,0.22711172,0.02276496,-0.03220949,0.04567684,-0.04237117,0.03275395,0.99238132,0.05405688,-0.09452692,0.05763541
1755649410057,0.19271548,-0.00476179,0.00154388,0.01963059,-0.03195143,0.02708948,0.99235086,0.05416190,-0.09469786,0.05778034
1755649410069,-0.03350132,-0.13306829,0.01858027,-0.01051863,-0.04993068,0.01347428,0.99232296,0.05410300,-0.09497747,0.05785580
1755649410080,0.03809209,-0.22710565,0.04188025,-0.01378727,-0.04290544,-0.01588720,0.99230847,0.05402097,-0.09523276,0.05776127
1755649410091,0.04846604,-0.14778326,0.04795721,-0.06542137,-0.06063282,-0.04867599,0.99231135,0.05367750,-0.09555108,0.05750572
1755649410102,-0.00957052,-0.11618332,-0.07046531,-0.05201613,-0.05667819,-0.04514603,0.99231107,0.05339141,-0.09586281,0.05725742
1755649410113,-0.04475263,0.03907499,0.06032106,-0.07004319,-0.04508412,-0.03692975,0.99231951,0.05300267,-0.09611303,0.05705246
1755649410124,-0.03975972,0.04801303,0.01880111,-0.05420350,-0.03426347,-0.01545243,0.99232205,0.05269913,-0.09630490,0.05696592
1755649410135,-0.00883570,0.12796764,-0.08625646,-0.03861780,-0.03831447,0.00731134,0.99231021,0.05248094,-0.09652138,0.05700723
1755649410146,0.14594921,-0.00549271,-0.21208844,0.00127426,-0.04984366,0.00352763,0.99228202,0.05248795,-0.09679552,0.05702663
1755649410158,0.09935259,-0.03913628,-0.06009536,-0.00044619,-0.02427035,-0.01549424,0.99227387,0.05248545,-0.09693143,0.05693987
1755649410169,-0.11594016,0.03468701,0.05321843,-0.02173154,-0.01786459,-0.03809958,0.99228274,0.05236376,-0.09703148,0.05672651
1755649410180,-0.16915859,0.10216038,0.04941712,-0.02793402,-0.01585317,-0.01938783,0.99228850,0.05220733,-0.09712025,0.05661794
1755649410191,-0.14781530,0.06159264,0.00791679,-0.01591059,-0.00312073,0.00049489,0.99229126,0.05211982,-0.09713742,0.05662066
1755649410202,-0.02880530,0.04926351,-0.08240997,-0.00325128,-0.00592464,0.00856025,0.99228619,0.05210145,-0.09717089,0.05666902
1755649410213,0.07162042,0.03680025,-0.14725429,0.01553134,-0.00331371,0.01848491,0.99227421,0.05218609,-0.09718895,0.05676977
1755649410224,0.10263555,0.04595583,0.02101186,0.00205027,-0.01077679,0.01556310,0.99226271,0.05219758,-0.09724930,0.05685692
1755649410236,0.07565361,-0.10298594,0.03345897,-0.01214364,-0.01761265,0.01271033,0.99225244,0.05212896,-0.09734881,0.05692873
1755649410247,0.05550022,-0.23204008,0.22345647,-0.02134032,-0.03763663,-0.01763518,0.99224375,0.05201053,-0.09755770,0.05683086
1755649410258,-0.00193506,-0.15867481,0.16060987,-0.03969490,-0.04682564,-0.01892719,0.99223570,0.05179022,-0.09781758,0.05672581
1755649410269,0.04734523,-0.12705730,-0.02095861,-0.03158769,-0.03345740,-0.03012690,0.99223606,0.05161333,-0.09800494,0.05655710
1755649410281,0.02325511,0.15402567,-0.21634621,-0.03828303,-0.01863236,-0.02267126,0.99224460,0.05138554,-0.09811580,0.05642221
1755649410291,0.13356783,-0.04959688,-0.29463492,-0.03101691,-0.02969019,-0.00805311,0.99224013,0.05122736,-0.09826722,0.05638114
1755649410302,-0.09313226,0.07205731,0.12376640,-0.03907732,-0.02240682,-0.01192517,0.99224276,0.05100853,-0.09839270,0.05631436
1755649410314,-0.01052188,-0.12597750,0.06031509,-0.02921777,-0.01649583,0.00361310,0.99224086,0.05084637,-0.09848425,0.05633441
1755649410325,-0.11691617,0.03837275,0.01434911,-0.03773539,-0.03315471,0.00664543,0.99223111,0.05063505,-0.09866992,0.05637162
1755649410336,0.08894359,0.06529095,-0.00673815,-0.02565980,-0.04845645,0.00263761,0.99221076,0.05049264,-0.09893885,0.05638626
1755649410347,0.10761836,0.08686950,0.08460498,-0.01357105,-0.05144688,-0.00735177,0.99218819,0.05041664,-0.09922695,0.05634509
1755649410358,0.00751563,0.01732482,0.08104786,-0.02145040,-0.04096183,-0.00443549,0.99217287,0.05029759,-0.09945429,0.05632047
1755649410369,-0.02515576,-0.00483765,0.10449317,-0.02853142,-0.04113718,-0.02361677,0.99216540,0.05013924,-0.09968260,0.05618940
1755649410381,-0.16442717,-0.09788240,-0.13519278,-0.03346431,-0.04252106,-0.01340413,0.99215488,0.04994682,-0.09992710,0.05611233
1755649410392,-0.09878465,-0.04016587,-0.05077237,-0.03749737,-0.01090913,0.00152168,0.99215879,0.04973683,-0.09998819,0.05612085
1755649410403,0.00983581,0.06091602,-0.16183535,-0.02135730,-0.02055127,0.00777319,0.99215107,0.04962257,-0.10009814,0.05616244
1755649410414,0.01954418,0.02101872,-0.05934800,-0.01519489,-0.01502711,0.02039840,0.99214026,0.04953672,-0.10018304,0.05627769
1755649410425,-0.05272527,0.03289780,-0.00923447,-0.04043575,0.00396099,0.01327870,0.99214931,0.04931635,-0.10016146,0.05635006
1755649410436,0.02925667,-0.05320968,0.04138185,-0.02375506,-0.01083801,0.00087226,0.99214950,0.04918451,-0.10022161,0.05635490
1755649410447,0.05022190,0.12377823,0.09313226,-0.02077977,-0.04608723,-0.02292979,0.99213645,0.04906814,-0.10047970,0.05622649
1755649410458,0.12354279,-0.06604788,0.13114542,-0.02992556,-0.03933341,-0.03747994,0.99213426,0.04890056,-0.10069996,0.05601660
1755649410469,-0.12544345,0.01520527,0.01710592,-0.06286911,-0.02624833,-0.03747785,0.99214845,0.04854849,-0.10084695,0.05580673
1755649410481,-0.06383797,-0.02056304,-0.00973827,-0.04736775,-0.01482302,-0.01823212,0.99215896,0.04827612,-0.10093219,0.05570189
1755649410492,-0.01130451,-0.00646543,0.01350854,-0.02566235,-0.01806367,-0.01957218,0.99216170,0.04813755,-0.10102973,0.05559620
1755649410503,-0.15157960,0.10396909,0.04364632,-0.01324689,-0.00860716,0.00222007,0.99215971,0.04806403,-0.10107750,0.05560852
1755649410514,-0.01660936,0.05972947,0.04684866,-0.01382482,0.00379980,0.01048270,0.99216233,0.04798661,-0.10105622,0.05566723
1755649410525,-0.06644853,0.06454371,-0.02405001,-0.01172935,-0.00397422,-0.00427940,0.99216456,0.04792151,-0.10107828,0.05564348
1755649410537,0.04240923,0.03284212,0.05105489,0.00492096,-0.00006975,0.00467299,0.99216154,0.04795079,-0.10107869,0.05567128
1755649410547,0.05859961,-0.01219461,0.03699305,-0.00962068,-0.00775307,0.00415476,0.99215870,0.04790173,-0.10111823,0.05569247
1755649410558,-0.01417146,-0.06028561,0.09316738,-0.00403258,-0.01237087,-0.00964611,0.99215578,0.04787934,-0.10118689,0.05563893
1755649410570,0.00808208,0.02901072,0.07734481,-0.00441075,-0.02601006,-0.00555677,0.99214385,0.04785464,-0.10133255,0.05560782
1755649410581,-0.05601570,0.05565505,0.12086302,0.00863655,-0.02371175,-0.00621449,0.99213014,0.04790215,-0.10146296,0.05557364
1755649410592,-0.12431939,0.02914903,0.00246127,0.01029047,-0.01694131,0.00516200,0.99211591,0.04796029,-0.10155868,0.05560280
1755649410603,-0.01342235,0.04755010,0.00615611,-0.00070256,-0.00638351,0.02471876,0.99210467,0.04795635,-0.10159443,0.05574123
1755649410614,-0.01428541,-0.00200559,-0.03047085,0.00312318,-0.00182472,0.01995258,0.99209664,0.04797353,-0.10160446,0.05585097
1755649410626,-0.01089867,-0.01020214,0.11603393,0.00043446,0.00179771,0.00764280,0.99209510,0.04797603,-0.10159413,0.05589491
1755649410637,0.03503888,-0.07652440,0.08361356,-0.00294649,-0.01514874,0.00179804,0.99208679,0.04795982,-0.10167745,0.05590480
1755649410648,0.02628415,0.02188956,0.10953952,0.00013024,-0.01993521,-0.01672579,0.99208047,0.04796056,-0.10179108,0.05580946
1755649410659,-0.07849338,0.05474626,0.11281711,-0.02192977,-0.01598332,-0.01186162,0.99208093,0.04784324,-0.10187659,0.05574600
1755649410670,-0.08430173,-0.03655809,-0.09077574,-0.00868287,0.00686906,-0.00427791,0.99208864,0.04779418,-0.10183778,0.05572183
1755649410681,-0.12240901,0.08181090,-0.06498837,-0.01158917,0.01389758,0.00986520,0.99209650,0.04773044,-0.10176134,0.05577609
1755649410692,-0.06139413,0.00264311,-0.08779889,0.00743511,0.01672159,0.02846856,0.99209513,0.04777171,-0.10166853,0.05593409
1755649410703,-0.02364693,0.09475467,0.03808166,0.03141421,0.02972635,0.03411450,0.99209290,0.04794763,-0.10150207,0.05612513
1755649410714,-0.02234295,0.07572851,0.08923104,0.01385607,0.00269983,0.04364948,0.99207712,0.04802383,-0.10148722,0.05636521
1755649410726,-0.00314024,-0.01834067,0.06597890,0.03816854,0.00458415,0.02124184,0.99206248,0.04823949,-0.10146132,0.05648522
1755649410737,-0.07254387,0.11170602,0.05110924,0.02652465,0.00084092,0.01897710,0.99205002,0.04838405,-0.10145673,0.05658865
1755649410748,0.15273272,-0.16886216,-0.14122414,0.03328135,0.01232033,0.02484022,0.99204002,0.04857042,-0.10138774,0.05672775
1755649410759,0.07032436,-0.08695512,-0.12164213,0.03388213,0.01771257,0.02201496,0.99203379,0.04876016,-0.10128855,0.05685104
1755649410770,-0.00594339,0.00950684,0.04424719,0.01359416,0.02569332,0.01926677,0.99203849,0.04883561,-0.10114595,0.05695797
1755649410781,-0.11029834,0.05321411,0.08901270,0.01717305,0.02102850,0.02360401,0.99203816,0.04893092,-0.10102924,0.05708897
1755649410792,-0.01974287,0.00911374,0.09410827,0.01290776,0.00155870,0.01250269,0.99203145,0.04900320,-0.10102052,0.05715898
1755649410803,0.07603744,-0.03531914,0.05791354,0.01094549,-0.00238388,0.02247708,0.99201990,0.04906395,-0.10103375,0.05728373
1755649410815,0.05545991,-0.02271720,-0.02314614,0.00542481,0.00971001,0.00183739,0.99202337,0.04909460,-0.10097888,0.05729411
1755649410826,0.06544951,-0.05814594,-0.01707304,0.00368125,0.00926371,0.01765337,0.99202193,0.04911503,-0.10092747,0.05739209
1755649410837,-0.03096094,-0.04837647,-0.11029834,-0.00184154,0.00882196,0.01606742,0.99202225,0.04910481,-0.10087851,0.05748126
1755649410848,-0.06095805,0.17727491,-0.01614703,-0.00334997,0.01313404,0.01088266,0.99202712,0.04908605,-0.10080496,0.05754221
1755649410859,-0.06652304,0.09930940,0.01710592,-0.01249264,0.00692293,0.00603277,0.99203256,0.04901609,-0.10076619,0.05757599
1755649410870,0.03381169,-0.02751843,0.05901929,-0.00456463,0.01276862,-0.00029088,0.99204110,0.04899076,-0.10069532,0.05757438
1755649410882,0.10523825,-0.21838735,0.02323598,0.01566880,0.00850041,-0.00350593,0.99204273,0.04907850,-0.10064772,0.05755474
1755649410893,-0.00556329,0.08538446,0.00751563,0.01402702,0.00691672,-0.00513914,0.99204443,0.04915635,-0.10060933,0.05752622
1755649410904,0.02513834,0.05537129,-0.07660501,0.01452012,0.00896688,0.00397362,0.99204419,0.04923912,-0.10055822,0.05754887
1755649410915,0.02026085,0.01191271,-0.10883824,0.02663232,0.00770572,0.01046654,0.99203792,0.04938426,-0.10051623,0.05760591
1755649410926,-0.03017064,-0.00707718,-0.03163489,0.02034362,0.02086674,0.01076694,0.99204053,0.04949615,-0.10040146,0.05766513
1755649410937,0.00124407,-0.06247118,0.10298112,-0.01304799,0.03417721,0.02258238,0.99205616,0.04942309,-0.10021007,0.05779159
1755649410948,-0.10995280,-0.05221635,-0.10953814,0.00267087,0.02268720,0.00829372,0.99206545,0.04943791,-0.10008415,0.05783762
1755649410960,0.02724277,-0.01714873,-0.09861163,-0.00522251,0.01100647,0.00836874,0.99207039,0.04940866,-0.10002252,0.05788449
1755649410971,0.03611251,-0.00285099,-0.01710592,-0.00916393,0.02588354,0.01198325,0.99208363,0.04935735,-0.09987757,0.05795159
1755649410982,0.07718229,0.01631442,0.14185030,0.01325638,0.02629357,-0.00908422,0.99209797,0.04943291,-0.09972770,0.05789981
1755649410993,-0.00919521,0.11236474,0.05333911,0.01226786,0.00166457,-0.00464843,0.99209702,0.04950038,-0.09971854,0.05787425
1755649411004,0.01790075,0.03269132,-0.02190941,0.02788563,0.00413672,-0.00319075,0.99209259,0.04965654,-0.09969538,0.05785638
1755649411015,-0.07536786,0.02927454,-0.01907067,0.02283363,0.02354188,0.01605309,0.99209414,0.04978212,-0.09956589,0.05794467
1755649411026,-0.09852007,0.00049260,0.06699365,0.01540803,0.02606437,0.03592279,0.99209270,0.04986687,-0.09942254,0.05814225
1755649411038,-0.06482465,0.06404808,0.05574343,0.02624122,0.01380270,0.01747404,0.99208726,0.05001513,-0.09934456,0.05824097
1755649411049,0.08810511,0.13107882,0.10699333,0.02714488,0.01433210,0.02390621,0.99207982,0.05016579,-0.09926501,0.05837365
1755649411060,0.03096094,0.00145129,-0.03096094,0.04767014,-0.00695357,0.01729993,0.99205689,0.05043035,-0.09930360,0.05846967
1755649411071,0.03289600,0.00435388,0.03870117,0.03718805,-0.00230950,0.00866445,0.99204226,0.05063675,-0.09931642,0.05851776
1755649411082,-0.00184929,-0.14873936,0.00345886,0.02933106,0.01845137,0.00812414,0.99204151,0.05080100,-0.09921309,0.05856325
1755649411093,-0.08327663,-0.04971546,0.03908127,0.02651301,0.02769132,0.00813362,0.99204666,0.05094815,-0.09905941,0.05860839
1755649411104,-0.00869851,0.03596696,0.03349268,0.01623173,0.03279300,0.02126754,0.99205326,0.05103905,-0.09887577,0.05872749
1755649411116,0.00883905,-0.05171895,0.03577710,0.02341892,0.02191028,0.03049682,0.99204831,0.05117839,-0.09874540,0.05890895
1755649411127,0.06987119,0.05689538,0.22421020,0.03220573,0.01069904,0.02097192,0.99203871,0.05134586,-0.09868977,0.05901800
1755649411138,0.06154975,-0.10187898,0.00997299,0.03009100,-0.00543432,0.02118857,0.99202005,0.05151286,-0.09871993,0.05913560
1755649411149,-0.02883521,0.02753814,-0.04321857,0.00191460,-0.00619476,0.02494290,0.99200771,0.05152359,-0.09875462,0.05927528
1755649411160,0.04743038,-0.01028303,-0.06685291,0.01938712,-0.00466421,0.02173396,0.99199246,0.05163022,-0.09878027,0.05939482
1755649411171,0.06142932,0.02981310,-0.10106284,0.02650304,-0.01029063,0.00341044,0.99197797,0.05177731,-0.09883738,0.05941374
1755649411182,0.05599237,-0.02942596,0.17722355,0.01938663,-0.00541072,0.00330323,0.99196817,0.05188587,-0.09886768,0.05943224
1755649411193,-0.04101633,0.00211647,0.10369841,0.02396215,-0.01633517,0.00461348,0.99195063,0.05201886,-0.09895834,0.05945785
1755649411205,-0.03917753,0.10909094,0.05118079,0.01938396,-0.00813142,0.01221142,0.99193628,0.05212741,-0.09900388,0.05952623
1755649411216,0.05291935,0.03838764,0.01896511,0.04628456,-0.01935147,0.03286686,0.99190138,0.05238198,-0.09911031,0.05970700
1755649411227,-0.00635857,0.13430743,0.07070449,0.03754565,-0.01570361,0.02485097,0.99187308,0.05259223,-0.09919825,0.05984616
1755649411238,-0.08776873,0.02210632,0.05559838,0.04608529,-0.02349361,0.01685289,0.99184078,0.05284801,-0.09932864,0.05993970
1755649411249,-0.13738917,0.17318775,0.16835010,0.04363885,-0.00568646,0.01524004,0.99181957,0.05309020,-0.09936020,0.06002428
1755649411260,-0.06010260,0.08511170,0.00644257,0.03696274,-0.00080045,0.01257287,0.99180362,0.05329904,-0.09936472,0.06009532
1755649411271,0.00774211,0.06051138,0.01461236,0.03871367,0.00719507,0.02071922,0.99178921,0.05351197,-0.09932515,0.06020927
1755649411282,0.06140854,-0.16779357,-0.09644977,0.05378210,0.00197401,0.02234067,0.99176641,0.05381315,-0.09931410,0.06033438
1755649411294,0.11926527,-0.04309825,0.06853909,0.04315330,-0.00322249,0.00918272,0.99174850,0.05405265,-0.09933198,0.06038534
1755649411305,0.02815029,-0.11266537,0.00239723,0.04544986,-0.00973242,0.00732077,0.99172663,0.05430717,-0.09938648,0.06042634
1755649411316,-0.02453378,-0.00435820,0.16012611,0.02199891,-0.00487497,-0.00098249,0.99171756,0.05442926,-0.09941354,0.06042089
1755649411327,-0.06966211,-0.00048376,0.00774023,0.02108343,0.00138607,-0.00151133,0.99171241,0.05454627,-0.09940585,0.06041250
1755649411338,0.11996407,-0.00280390,-0.05612935,0.03638263,0.01000946,0.01096623,0.99170306,0.05475002,-0.09934979,0.06047391
1755649411350,-0.02765346,0.03490888,-0.29169737,0.03039824,-0.01207619,-0.00070309,0.99168668,0.05492481,-0.09941923,0.06046987
1755649411360,0.11558449,-0.04103765,0.01642412,0.06315729,0.04633557,0.01525772,0.99168775,0.05526270,-0.09917134,0.06055150
1755649411372,-0.01865422,-0.00406589,-0.10942996,0.01319465,0.00282749,0.02964591,0.99167495,0.05533725,-0.09915536,0.06071900
1755649411383,-0.05077707,-0.06446962,0.37092372,0.06107964,0.00838059,0.01481909,0.99165576,0.05567319,-0.09910927,0.06080050
1755649411394,-0.00763719,0.02564161,0.02422475,0.02630006,-0.02563862,0.00454093,0.99163156,0.05582047,-0.09925284,0.06082593
1755649411405,0.13056463,-0.02370447,-0.09822150,0.03916200,-0.02453061,-0.00333711,0.99160680,0.05603781,-0.09938899,0.06080741
1755649411416,0.06579199,-0.07982117,-0.04450635,0.03509721,-0.00808201,-0.00525270,0.99159307,0.05623260,-0.09943384,0.06077826
1755649411427,0.01446898,-0.06703245,-0.04861233,0.02365510,-0.01453310,-0.00295349,0.99157839,0.05636507,-0.09951523,0.06076172
1755649411438,0.02603691,-0.01218482,0.03356981,0.01546490,-0.02517340,-0.00885152,0.99156249,0.05645090,-0.09965494,0.06071259
1755649411449,-0.12384376,0.02902588,0.23027198,0.00662368,-0.01777408,-0.00850301,0.99155336,0.05648766,-0.09975359,0.06066540
1755649411461,0.07740235,-0.07691858,0.07159717,0.00696329,-0.04668078,-0.01873243,0.99153142,0.05652631,-0.10001267,0.06056143
1755649411472,0.04112956,-0.01220873,0.10090612,-0.02008280,-0.04847640,-0.03016039,0.99152071,0.05641385,-0.10028413,0.06039254
1755649411483,0.17716153,-0.16135279,-0.21404859,-0.01771677,-0.05914197,-0.02276306,0.99150073,0.05631552,-0.10061237,0.06026620
1755649411494,0.06020353,-0.02050099,-0.10787516,0.00025185,-0.03899090,-0.02952080,0.99148839,0.05631694,-0.10083267,0.06009941
1755649411505,0.03150899,0.01241963,-0.14457167,-0.02038175,-0.02087425,-0.00689816,0.99148537,0.05620484,-0.10094748,0.06006147
1755649411516,-0.05059207,0.04438037,-0.16045012,-0.01182167,0.00435539,-0.00500581,0.99149330,0.05613864,-0.10092309,0.06003344
1755649411528,-0.04920578,0.01748032,0.02023173,0.00173305,-0.00822225,0.00513888,0.99148638,0.05614826,-0.10096872,0.06006196
1755649411539,-0.03841111,0.03014989,0.05521596,0.01592379,-0.01718220,-0.01037999,0.99147454,0.05624141,-0.10106924,0.06000123
1755649411550,0.26998315,0.18631000,0.28512084,0.00596435,-0.02519917,-0.00444161,0.99146068,0.05627273,-0.10120153,0.05997792
1755649411561,-0.08379969,-0.12844890,-0.17924376,0.00059149,-0.00843108,-0.01381297,0.99146033,0.05627619,-0.10125086,0.05989711
1755649411572,0.05012626,-0.08339591,0.08078978,-0.00112861,0.01370849,-0.03398423,0.99147878,0.05627026,-0.10117889,0.05971869
1755649411583,-0.38215903,-0.00779270,-0.07957423,-0.04459339,0.01521988,-0.03191208,0.99151236,0.05602054,-0.10109366,0.05953998
1755649411595,-0.02401030,-0.04614675,-0.05728883,-0.00918827,0.00781572,-0.00811020,0.99152291,0.05596679,-0.10104793,0.05949254
1755649411605,-0.01138943,0.12848025,0.17796898,-0.00359292,-0.00339549,-0.01153696,0.99152581,0.05594774,-0.10106593,0.05943139
1755649411617,0.07944694,0.01699109,-0.09374081,0.02200424,-0.03673626,-0.00202081,0.99149878,0.05606987,-0.10126982,0.05942018
1755649411628,-0.02902588,-0.06240564,0.04063623,0.02658989,-0.04461764,0.00089814,0.99146480,0.05621744,-0.10151744,0.05942516
1755649411639,-0.07873177,-0.04691287,-0.02744825,0.00361984,-0.02532073,-0.00881666,0.99145208,0.05623771,-0.10165924,0.05937579
1755649411650,0.16196110,0.07231671,0.06681579,-0.00516093,-0.00988527,-0.00144078,0.99144843,0.05620804,-0.10171608,0.05936751
1755649411662,-0.03609315,-0.03571566,-0.02563702,0.00941181,-0.01834500,0.00886585,0.99143178,0.05626121,-0.10181973,0.05941760
1755649411672,-0.00499495,0.00740793,0.15403614,0.00420500,-0.01105869,0.00300511,0.99142354,0.05628350,-0.10187834,0.05943352
1755649411683,-0.28485524,-0.09118508,-0.20316291,0.00855444,-0.01632601,0.00183622,0.99141091,0.05633098,-0.10196895,0.05944372
1755649411694,-0.10449317,0.06095435,0.01548047,-0.01515523,-0.00249216,0.00157637,0.99141374,0.05624687,-0.10198278,0.05945246
1755649411706,0.02515576,-0.12432752,-0.15286964,-0.01292558,0.01131504,0.00568071,0.99142238,0.05617513,-0.10191998,0.05948399
1755649411717,-0.03600977,-0.02319745,-0.09809794,-0.02109442,0.02500195,-0.00877501,0.99144639,0.05605700,-0.10177997,0.05943485
1755649411728,-0.07032436,-0.07792699,-0.10453621,-0.03629509,0.04311246,-0.01766998,0.99148854,0.05585375,-0.10153854,0.05933590
1755649411739,-0.07653848,-0.04793158,-0.04129277,-0.03983443,0.05126536,-0.02538902,0.99153849,0.05563267,-0.10125402,0.05919499
1755649411750,0.01313338,-0.04230249,-0.00469172,-0.03214375,0.05571405,-0.00549594,0.99158222,0.05545266,-0.10094202,0.05916421
1755649411762,-0.01900658,-0.03326152,0.04181448,-0.04358381,0.06082971,-0.01280431,0.99163474,0.05520859,-0.10060137,0.05909251
1755649411772,-0.02339852,-0.02403186,-0.03490425,-0.02728446,0.03754507,-0.02667620,0.99167274,0.05505853,-0.10039488,0.05894579
1755649411784,-0.07150921,-0.08522174,-0.16734739,-0.02312479,0.03395402,-0.03142182,0.99170927,0.05493019,-0.10020643,0.05877140
1755649411795,0.06078818,0.08818253,0.03832729,-0.03364551,0.04275777,-0.00983760,0.99174779,0.05473841,-0.09996271,0.05871533
1755649411806,-0.05706834,0.02925589,-0.00114418,-0.02089877,0.01501766,-0.01680171,0.99176773,0.05462451,-0.09988087,0.05862376
1755649411817,0.02263486,0.04760422,-0.08274595,-0.01198421,0.01114558,-0.00982479,0.99178084,0.05455800,-0.09981901,0.05856923
1755649411828,0.02331436,0.00916342,-0.04106086,-0.00103337,0.01920977,0.00453877,0.99179056,0.05455216,-0.09971047,0.05859487
1755649411839,-0.04308502,0.01244089,0.02051505,-0.01706116,0.00358823,0.00685180,0.99179552,0.05445747,-0.09969056,0.05863290
1755649411851,0.05955396,-0.15589679,-0.07487909,-0.00673624,0.02226148,-0.00889226,0.99181306,0.05441974,-0.09956589,0.05858310
1755649411862,-0.10846695,-0.07635707,0.04072262,-0.03368209,0.01800386,-0.01291640,0.99183756,0.05423281,-0.09946597,0.05851142
1755649411873,-0.02444419,0.00586313,0.03723648,-0.03316588,0.01729120,-0.00261722,0.99185863,0.05404376,-0.09936741,0.05849650
1755649411884,-0.09908627,0.15364181,0.15865422,-0.02718975,-0.00728396,-0.00858994,0.99186548,0.05389558,-0.09940711,0.05844968
1755649411895,0.11477186,0.00998717,0.00491730,-0.02066328,0.00541622,0.01728220,0.99186909,0.05377987,-0.09937678,0.05854646
1755649411907,0.01039822,-0.06514580,-0.04413609,-0.02230967,0.01373623,0.01018063,0.99188049,0.05365158,-0.09929780,0.05860500
1755649411918,-0.13338761,-0.04484805,0.01130839,-0.04013294,0.00499605,0.00659235,0.99189301,0.05343085,-0.09927032,0.05864126
1755649411929,-0.07255210,0.03249065,0.08227558,-0.04400103,0.01870080,-0.00146364,0.99191657,0.05319105,-0.09916840,0.05863328
1755649411940,-0.01553373,-0.02163183,-0.03628679,-0.02118210,0.02826712,0.01253476,0.99193442,0.05307349,-0.09901152,0.05870285
1755649411951,-0.09173905,0.05564165,-0.31091515,-0.00895698,0.03175307,0.01159510,0.99195070,0.05302422,-0.09883687,0.05876663
1755649411962,-0.05708886,0.10740447,0.07689027,-0.01152929,0.01945822,0.01765893,0.99195914,0.05295966,-0.09872791,0.05886552
1755649411973,-0.08562635,0.14996705,-0.03650696,0.01461117,0.01231295,0.02645223,0.99195288,0.05304075,-0.09865957,0.05901232
1755649411985,0.04433882,0.16172299,0.15890512,0.02432476,0.02371703,0.05096288,0.99194147,0.05318062,-0.09852320,0.05930536
1755649411996,0.06524630,-0.02664091,-0.00599819,0.02046914,0.00752845,0.05912266,0.99191926,0.05329729,-0.09848029,0.05964236
1755649412006,-0.02834048,-0.00344297,0.02879575,0.03344903,0.00267904,0.04431768,0.99189719,0.05347290,-0.09846622,0.05987503
1755649412017,0.08312212,0.05255320,0.03839330,-0.01335064,-0.00846148,0.02402198,0.99188838,0.05339814,-0.09851361,0.06000955
1755649412029,0.03707661,-0.09818049,0.06533418,-0.00244745,-0.01357199,0.00971217,0.99187819,0.05338431,-0.09859029,0.06006443
1755649412040,-0.04327339,-0.02760455,0.04767437,0.00279379,0.00069364,0.00788697,0.99187508,0.05339981,-0.09858644,0.06010820
1755649412051,-0.18770069,0.09917176,0.03676611,-0.02190344,-0.00034597,0.00190502,0.99188079,0.05327825,-0.09858836,0.06011877
1755649412062,0.00442009,0.08019623,-0.24686823,0.00829105,0.01317526,0.01449246,0.99188070,0.05332385,-0.09851589,0.06019848
1755649412073,0.12063997,0.02158975,-0.05729621,0.04053496,0.02575686,0.04914243,0.99186605,0.05355085,-0.09837166,0.06047368
1755649412084,0.09503292,0.11213884,-0.09123160,0.02599189,-0.00876096,0.02990220,0.99184309,0.05369640,-0.09842072,0.06064113
1755649412096,-0.00985264,-0.02137656,0.03757674,-0.00427937,-0.01369810,0.02165653,0.99182923,0.05367222,-0.09849811,0.06076349
1755649412107,0.00184689,-0.19938909,0.16096392,-0.00238845,0.00723488,0.00128760,0.99183342,0.05365921,-0.09845868,0.06077051
1755649412119,0.05526037,-0.14287495,-0.03589342,-0.00192460,-0.01069206,-0.00008756,0.99182770,0.05364766,-0.09852283,0.06076998
1755649412131,0.02935782,0.04246030,-0.00842487,-0.01947947,-0.01477872,-0.00839774,0.99182831,0.05352689,-0.09861446,0.06071791
1755649412142,-0.09576157,0.03203243,0.03833253,-0.00899447,-0.00043042,0.00019025,0.99183057,0.05347966,-0.09861672,0.06071891
1755649412151,-0.28670215,0.18104327,-0.15060783,0.01641812,0.00056991,0.01780622,0.99182174,0.05355519,-0.09861410,0.06080082
1755649412163,0.18220538,-0.03875526,-0.10198842,0.01190963,0.00039698,0.01454947,0.99181253,0.05362843,-0.09861166,0.06089030
1755649412173,-0.26040627,0.11580039,0.26034693,-0.01730417,0.00728037,0.01304217,0.99181678,0.05354278,-0.09857562,0.06095486
1755649412184,0.17996046,-0.33417877,0.03776296,-0.02154508,0.00440105,0.00856752,0.99182273,0.05342320,-0.09855119,0.06100241
1755649412195,-0.03676611,-0.10642823,0.04257129,-0.03900698,-0.00877808,0.02345964,0.99182151,0.05320671,-0.09859991,0.06113261
1755649412206,0.02914343,-0.11452751,0.06446828,-0.01011841,0.00373397,0.02135713,0.99181925,0.05315005,-0.09857900,0.06125221
1755649412218,-0.11784082,-0.03468701,-0.05321843,-0.00335776,0.00912881,0.02483921,0.99181673,0.05313125,-0.09852788,0.06139131
1755649412229,0.02657758,0.19317785,-0.04878884,-0.01939599,0.01614992,0.03429442,0.99181972,0.05301875,-0.09843421,0.06159022
1755649412240,-0.11714445,0.13889409,0.03812133,-0.00184781,0.00967027,0.03624517,0.99181338,0.05300896,-0.09838296,0.06178232
1755649412251,0.09243535,0.10678111,-0.06957737,0.01501160,-0.00136130,0.02885526,0.99179764,0.05309527,-0.09839079,0.06194824
1755649412262,0.01771150,0.08030812,0.10110386,0.02239960,-0.02267712,0.02490819,0.99177034,0.05321735,-0.09851438,0.06208398
1755649412273,0.06622661,0.03518833,-0.02580710,0.02628742,-0.02799321,0.02023984,0.99173975,0.05336456,-0.09867114,0.06219733
1755649412285,-0.00380132,-0.04323998,0.15585398,-0.00282128,0.00088881,0.02365023,0.99173278,0.05334876,-0.09866616,0.06232977
1755649412296,-0.07802433,0.00040170,-0.01973069,0.00313385,0.01374682,0.02056149,0.99173225,0.05336615,-0.09858987,0.06244389
1755649412307,-0.01770523,0.08133020,0.04996505,0.01705315,0.00645424,0.03765478,0.99171740,0.05346165,-0.09855372,0.06265475
1755649412318,-0.03801317,0.01900658,-0.05131777,0.04358740,0.00868082,0.05526810,0.99168944,0.05370574,-0.09850511,0.06296425
1755649412329,0.03421185,0.11594016,0.03041053,0.03716381,0.01518313,0.05556277,0.99166678,0.05391386,-0.09842008,0.06327541
1755649412340,0.01783018,0.01011155,-0.01964430,0.04458110,0.00818812,0.03969400,0.99164373,0.05416128,-0.09837464,0.06349571
1755649412351,-0.07353223,-0.35653456,0.02128565,0.03165648,0.01308158,0.03328949,0.99162947,0.05433698,-0.09830204,0.06368046
1755649412363,0.02479417,0.06488351,-0.01873261,0.02707554,0.00639568,0.01940022,0.99161771,0.05448860,-0.09826622,0.06378910
1755649412374,0.09689115,0.05644065,-0.10881250,0.04113614,0.01796814,0.02067851,0.99160763,0.05471691,-0.09816650,0.06390387
1755649412385,0.12875043,0.30180823,-0.04392048,0.04312518,0.03007749,0.02829185,0.99160065,0.05496056,-0.09799656,0.06406372
1755649412396,-0.01680450,0.07468669,0.04294485,0.03059809,0.02337779,0.03663700,0.99159070,0.05513344,-0.09786448,0.06427072
1755649412407,0.00010092,-0.00291827,0.03660029,0.04810629,0.00399111,0.03334552,0.99156577,0.05540284,-0.09784213,0.06445745
1755649412418,0.09664514,0.02027326,-0.04156780,0.04994661,0.00890724,0.03346243,0.99154344,0.05567505,-0.09779358,0.06463982
1755649412430,0.08270479,-0.05346691,-0.13060487,0.04421244,0.00353389,0.02703750,0.99152158,0.05592264,-0.09777379,0.06479123
1755649412441,0.10833752,-0.01758109,-0.07792699,0.02092436,0.00830704,0.01209679,0.99151512,0.05603981,-0.09772727,0.06485898
1755649412452,-0.09405767,0.02265919,-0.03820013,0.02372042,0.01440168,-0.00357488,0.99151684,0.05617146,-0.09764734,0.06483913
1755649412463,0.00188164,-0.05307214,-0.01757385,0.01465671,0.00228228,0.01358645,0.99150862,0.05625207,-0.09763479,0.06491386
1755649412474,0.06108245,-0.13891330,-0.04728964,0.01428030,0.01405970,0.01678113,0.99150573,0.05633061,-0.09755746,0.06500616
1755649412485,0.31230917,-0.16671681,-0.02491819,0.01272038,0.00958479,0.01161724,0.99150266,0.05640248,-0.09750331,0.06507179
1755649412496,-0.03853459,-0.08764053,-0.03485101,0.01043174,0.00063931,0.00266445,0.99149871,0.05646090,-0.09749973,0.06508671
1755649412508,0.02973195,0.01025664,-0.03349683,-0.00308491,0.00948204,-0.01276182,0.99150941,0.05644394,-0.09744758,0.06501652
1755649412518,0.03349683,0.04827484,-0.11428329,-0.00650585,0.00921186,-0.00537947,0.99151836,0.05640815,-0.09739691,0.06498694
1755649412530,0.02533059,-0.04608232,-0.14185823,0.00711473,0.01697652,0.00271425,0.99152443,0.05644800,-0.09730184,0.06500214
1755649412541,-0.00380132,-0.01282944,-0.16345662,0.00101165,0.01379337,-0.00347991,0.99153296,0.05645366,-0.09722460,0.06498265
1755649412552,0.09663199,-0.10261426,-0.06504907,-0.00899273,0.00272845,-0.00230002,0.99153812,0.05640375,-0.09720946,0.06496989
1755649412563,-0.01594156,-0.01329177,0.04926301,-0.02982852,-0.00190061,0.00753355,0.99154380,0.05623671,-0.09722010,0.06501207
1755649412574,-0.02298950,-0.13477363,0.07410320,-0.02019697,0.00408899,0.01469605,0.99154709,0.05612260,-0.09719700,0.06509511
1755649412585,-0.13278414,-0.03374095,0.24431235,-0.01101317,0.00028810,0.04879255,0.99153301,0.05606203,-0.09719541,0.06536346
1755649412597,-0.06866083,0.09399489,-0.01376611,0.00143395,-0.01980232,0.03677089,0.99150786,0.05607013,-0.09730730,0.06557122
1755649412608,0.08826701,0.09703355,-0.19472100,0.02353862,0.01396881,0.04478771,0.99149175,0.05619959,-0.09723047,0.06581755
1755649412619,0.07416552,0.18183834,-0.27250904,0.01888777,0.01190560,0.04007285,0.99147749,0.05630442,-0.09716439,0.06603996
1755649412630,0.06838945,0.09716902,-0.06568401,0.01347423,0.01700862,0.01925176,0.99147535,0.05637987,-0.09706914,0.06614777
1755649412641,-0.08642110,-0.04386277,0.00822400,-0.01173756,0.01961986,-0.00189595,0.99149041,0.05631473,-0.09696025,0.06613724
1755649412661,-0.00163822,-0.07628213,0.12008778,-0.01465565,0.00996691,-0.00178605,0.99150927,0.05617110,-0.09686258,0.06611974
1755649412672,-0.40596796,-0.17168753,-0.12927189,-0.08972610,0.00114975,-0.04562110,0.99155687,0.05565069,-0.09685591,0.06585514
1755649412684,0.52418846,-0.04577965,0.19498133,-0.01531621,-0.00407662,-0.00811575,0.99156247,0.05556492,-0.09687874,0.06580969
1755649412695,0.14525733,-0.05898417,-0.16717369,-0.00203276,-0.00555232,0.00168073,0.99155939,0.05555334,-0.09691039,0.06581927
1755649412706,0.07607836,0.05951578,0.03539120,-0.02475038,-0.00783507,0.00472176,0.99156109,0.05541597,-0.09695387,0.06584548
1755649412717,-0.01105161,-0.17157753,0.06561999,-0.03137460,-0.00429295,-0.01010162,0.99157240,0.05523870,-0.09697813,0.06578840
1755649412729,-0.03560333,-0.03922779,0.16283692,-0.03290540,-0.00303892,-0.02970217,0.99159235,0.05505114,-0.09699545,0.06561910
1755649412740,0.05221809,0.05918717,-0.04935043,-0.03713890,-0.01706111,-0.01935737,0.99160169,0.05484317,-0.09709099,0.06551070
1755649412751,0.23046660,-0.07005481,-0.27473026,-0.00875553,-0.00021296,-0.02555708,0.99161352,0.05479501,-0.09709216,0.06537013
1755649412762,0.11644334,0.02996803,-0.04211311,-0.00975129,0.00953308,0.00157737,0.99162124,0.05473992,-0.09703830,0.06537905
1755649412773,-0.02072222,-0.08830072,0.04432066,-0.02036820,0.00609913,-0.00059891,0.99163110,0.05462585,-0.09700414,0.06537569
1755649412785,-0.08833656,0.18454825,0.27478015,-0.03991855,0.00982636,-0.02896095,0.99166020,0.05439632,-0.09694764,0.06520917
1755649412796,-0.00456056,-0.07179027,-0.03871852,-0.03118176,-0.00015851,-0.03195196,0.99168219,0.05421547,-0.09694856,0.06502385
1755649412809,-0.02683351,0.01585746,0.03699599,-0.02030669,0.01875969,-0.04447193,0.99171730,0.05409363,-0.09683600,0.06475701
1755649412820,0.04494656,0.13665131,-0.01632753,-0.03118780,-0.00057525,-0.03622412,0.99174012,0.05391586,-0.09683928,0.06455054
1755649412829,0.09720652,0.15692687,-0.12346679,-0.00685049,0.00199957,-0.04076024,0.99175508,0.05388400,-0.09682999,0.06436100
1755649412854,-0.12275497,0.02138521,0.03682649,0.01030419,-0.00217724,0.00019210,0.99174533,0.05401177,-0.09685698,0.06436338
1755649412859,3.69434923,-0.00306308,-0.82414747,0.01168887,-0.04127420,0.01892517,0.99173088,0.05404041,-0.09695811,0.06440975
1755649412870,-1.31597471,0.00767103,0.45851933,0.01833131,-0.01505051,0.00602103,0.99171557,0.05413848,-0.09703863,0.06444196
1755649412882,-0.16512408,0.05937410,0.04610138,0.00564827,-0.02110236,0.00221354,0.99169932,0.05417492,-0.09717474,0.06445624
1755649412892,0.05546158,0.03945527,0.00717806,0.00909242,-0.01993657,-0.00562330,0.99168910,0.05421947,-0.09727242,0.06442869
1755649412904,0.01432765,0.01174124,-0.04620286,-0.00082484,-0.01415215,-0.01273192,0.99168618,0.05421481,-0.09735238,0.06435675
1755649412915,0.02043102,0.02718126,-0.05367259,-0.00112327,-0.02047129,-0.01513483,0.99168056,0.05420829,-0.09747112,0.06426897
1755649412927,0.05315515,-0.01683247,0.05138331,0.01287177,-0.00780957,-0.01109669,0.99167620,0.05428295,-0.09751641,0.06420461
1755649412938,-0.08415329,0.04782777,0.12229753,0.01235851,-0.01391223,-0.00826287,0.99166774,0.05435216,-0.09759432,0.06415834
1755649412951,-0.01711164,-0.08280277,-0.04667555,0.02542997,-0.01003308,-0.00847311,0.99165626,0.05451109,-0.09765703,0.06410538
1755649412961,0.14421508,0.13603952,-0.11222338,0.02506700,-0.02348291,0.00073099,0.99163737,0.05463768,-0.09777562,0.06410907
1755649412972,0.00753465,0.01563190,-0.04702490,0.00953585,-0.02072981,-0.00439126,0.99162376,0.05469442,-0.09789896,0.06408294
1755649412983,0.05830814,0.06180752,0.07676346,0.01863056,-0.02421966,0.00031137,0.99160553,0.05479316,-0.09802732,0.06408459
1755649412995,-0.03018812,-0.01148352,0.06117857,0.01623087,-0.02233548,-0.00846725,0.99159068,0.05488730,-0.09815687,0.06403548
1755649413006,0.00537428,-0.05118669,-0.10571593,0.01550756,-0.04047978,-0.00408596,0.99156488,0.05497414,-0.09838356,0.06401260
1755649413017,0.03231119,-0.05274327,0.01900658,-0.01374504,-0.00889037,-0.01085018,0.99156812,0.05489717,-0.09843334,0.06395184
1755649413028,0.01001935,-0.08781104,0.02252270,-0.01296282,-0.00538118,-0.02058144,0.99157665,0.05482393,-0.09846375,0.06383556
1755649413040,-0.10006925,-0.01490447,-0.05268623,-0.00467882,-0.03441354,-0.02826756,0.99156851,0.05479563,-0.09867195,0.06366454
1755649413052,0.18930915,-0.13061297,-0.04627797,0.00492113,-0.01901509,-0.01407723,0.99156138,0.05482343,-0.09877938,0.06358500
1755649413063,-0.01133636,-0.14931632,-0.15651714,0.01341600,-0.00904199,0.00289115,0.99155123,0.05489789,-0.09882957,0.06360105
1755649413073,0.00275833,0.16180427,-0.08580290,0.00324532,-0.01324332,-0.01319681,0.99154793,0.05491428,-0.09889645,0.06353440
1755649413084,-0.07474668,0.14303865,0.06059525,0.02508899,-0.00857317,0.00691021,0.99153287,0.05505478,-0.09894445,0.06357310
1755649413096,-0.08659816,-0.00043460,0.05904127,0.03412104,-0.00415672,0.00239711,0.99151869,0.05525097,-0.09896836,0.06358688
1755649413107,-0.00801582,-0.04469439,0.17315824,0.00039706,-0.00900026,-0.00273609,0.99151451,0.05525320,-0.09901876,0.06357156
1755649413118,0.01710592,0.00617714,0.04181448,-0.00068931,-0.02639079,-0.01352428,0.99150481,0.05524934,-0.09916655,0.06349582
1755649413129,0.11942040,0.02816619,-0.15942659,0.00168573,-0.04229197,-0.03061391,0.99149177,0.05525861,-0.09939915,0.06332745
1755649413140,0.11796056,-0.09698112,-0.14795242,0.02294042,-0.02731919,-0.00482331,0.99147172,0.05538249,-0.09954668,0.06330140
1755649413151,-0.05335202,-0.16292711,0.26026338,-0.01979276,-0.01391876,-0.00894775,0.99147333,0.05526769,-0.09962740,0.06324951
1755649413163,-0.07187836,-0.00848165,-0.02000161,-0.03969004,0.00563363,-0.01220968,0.99149376,0.05503947,-0.09959501,0.06317930
1755649413173,0.18560121,0.08389194,-0.14253872,-0.01673682,-0.00102310,-0.03016195,0.99150817,0.05495160,-0.09960038,0.06302095
1755649413185,0.01261951,0.12937143,-0.24303286,0.00942407,-0.02780062,-0.03775634,0.99150287,0.05500579,-0.09976024,0.06280385
1755649413196,-0.06116242,0.05870173,0.17429854,-0.00417958,-0.01886017,-0.04389240,0.99150918,0.05498197,-0.09986774,0.06255366
1755649413208,-0.16471780,0.06439824,0.04535433,0.00065189,0.00264659,-0.03918563,0.99152470,0.05498571,-0.09985252,0.06232835
1755649413219,-0.03000525,0.07124662,-0.00939814,0.00856286,-0.00429785,-0.00508749,0.99152155,0.05503153,-0.09987551,0.06230113
1755649413229,-0.01756295,-0.01877558,-0.02803201,0.01725734,0.00455327,0.00296282,0.99151795,0.05512213,-0.09985161,0.06231668
1755649413241,-0.02689103,-0.05092417,0.00918111,0.03778865,0.00829975,0.01811024,0.99150374,0.05534508,-0.09980264,0.06242353
1755649413251,0.18592232,-0.25904047,-0.12493174,0.03777718,-0.01043032,0.02010670,0.99148048,0.05554341,-0.09985740,0.06252909
1755649413263,0.03928027,0.00991510,0.04232133,0.02271072,-0.02170499,-0.02364274,0.99146944,0.05567059,-0.09997895,0.06239669
1755649413275,-0.01805814,-0.02168939,0.03370271,0.01853548,-0.01757353,-0.01458310,0.99145796,0.05578273,-0.10008527,0.06230847
1755649413286,-0.06792105,0.28097149,0.08333052,0.02392566,-0.01625053,-0.02342360,0.99144945,0.05591671,-0.10017627,0.06217729
1755649413296,0.11965452,0.11549075,-0.05381179,0.01938987,-0.01790494,0.01315623,0.99143043,0.05601560,-0.10026759,0.06224439
1755649413307,0.00967529,-0.01674679,0.01684639,0.03052937,-0.00313197,0.01538263,0.99141372,0.05618504,-0.10028497,0.06232976
1755649413319,-0.04587625,-0.01821322,0.02657758,0.02277616,-0.00995785,0.01551183,0.99139472,0.05631714,-0.10034272,0.06241973
1755649413330,0.10251579,0.03084469,0.17238775,-0.00252478,-0.01728452,-0.00220767,0.99138672,0.05630338,-0.10043692,0.06240770
1755649413343,-0.03936688,-0.11557038,0.01382770,-0.00337210,-0.04378351,-0.00844603,0.99136273,0.05628163,-0.10071933,0.06235322
1755649413352,0.59194467,-0.38543860,-0.26516193,0.02756453,-0.03600611,-0.03054035,0.99134718,0.05641118,-0.10088856,0.06220969
1755649413365,-0.32586585,0.10455626,0.02079523,-0.00207511,-0.03723540,-0.03090156,0.99133578,0.05639759,-0.10113245,0.06200728
1755649413375,0.48257083,0.00249526,-0.19745403,0.00065577,-0.03814800,-0.02126348,0.99132316,0.05640077,-0.10131747,0.06190415
1755649413387,-0.29315115,0.14843064,0.12508700,0.00032774,-0.01862934,-0.01849148,0.99131850,0.05640276,-0.10143017,0.06179228
1755649413396,0.27850801,-0.04111553,-0.07445106,-0.00070489,-0.02674537,-0.00294887,0.99130681,0.05639948,-0.10155454,0.06177857
1755649413407,-0.18083201,0.02069981,0.07046834,-0.00886778,-0.01796888,-0.01246840,0.99130372,0.05635071,-0.10165337,0.06170999
1755649413421,-0.11518064,0.01941481,0.00630312,-0.00202699,-0.03797500,-0.01721623,0.99128541,0.05633702,-0.10190970,0.06159378
1755649413460,-0.15230068,-0.02222530,0.03795861,0.00401293,-0.01096692,-0.00610197,0.99126604,0.05641648,-0.10212685,0.06147296
1755649413462,97.82730582,-12.14097015,-43.00520376,-0.22468599,-0.60441079,-0.46423679,0.99124396,0.05618056,-0.10276148,0.06098551
1755649413501,-5.32968600,0.62678286,2.31259448,-0.00512121,-0.00879413,-0.01342930,0.99124783,0.05608249,-0.10292988,0.06072834
1755649413502,125.82203572,-21.80709221,-68.11774774,-0.31236786,-0.44486882,-0.47476386,0.99124812,0.05581698,-0.10330802,0.06032479
1755649413558,-3.80946934,0.67259378,2.05341758,-0.00509651,-0.00556443,-0.00456593,0.99124767,0.05567427,-0.10346383,0.06019695
1755649413561,55.77139709,-6.54510698,-55.03394167,-0.18941747,-0.07099872,-0.12608995,0.99126285,0.05540909,-0.10356323,0.06002042
1755649413609,-3.20735962,0.36081989,3.12361166,-0.01798549,-0.01453007,-0.00590488,0.99125895,0.05497564,-0.10391340,0.05987811
1755649413645,0.14824008,-0.07129321,-0.10114786,-0.02737185,-0.03934386,-0.02207899,0.99123605,0.05449253,-0.10460782,0.05948842
1755649413679,0.08988226,-0.07777636,-0.18601788,-0.05095363,-0.00970373,-0.00178043,0.99126768,0.05362631,-0.10477278,0.05945815
1755649413716,-0.04591059,-0.04430125,0.00229698,-0.04447808,-0.04226274,-0.02589414,0.99125758,0.05280792,-0.10555042,0.05898170
1755649413752,0.03174363,0.11685150,-0.13446433,-0.04090850,0.01929995,-0.01045422,0.99134681,0.05205315,-0.10519433,0.05878882
1755649413787,-0.02046278,-0.02770368,0.10452758,-0.03390308,0.00989769,-0.00137767,0.99139758,0.05145985,-0.10502112,0.05876471
1755649413821,0.07322022,0.07456917,-0.01655970,-0.04399106,-0.00861170,-0.03899303,0.99145948,0.05071420,-0.10516709,0.05810378
1755649413856,-0.09611300,0.04035707,0.00059511,-0.01315817,0.00375530,-0.00006495,0.99147805,0.05048657,-0.10510212,0.05810265
1755649413890,0.07729515,-0.07672870,0.03233150,-0.01030106,-0.00143766,0.00748599,0.99147689,0.05031042,-0.10512671,0.05823066
1755649413925,-0.04792262,0.03705652,-0.10305552,-0.03043534,-0.01961582,-0.03370350,0.99150150,0.04978389,-0.10546606,0.05764759
1755649413959,0.08636993,-0.05473286,0.09461017,-0.05250343,0.01165941,0.00514590,0.99156189,0.04889133,-0.10526785,0.05773507
1755649413992,0.10441840,-0.18184681,-0.15463144,-0.04724671,-0.08539437,-0.02756762,0.99147581,0.04811176,-0.10667686,0.05728021
1755649414025,-0.06555940,0.16344942,0.10062501,-0.12731760,0.00014045,-0.03327748,0.99160851,0.04599192,-0.10667452,0.05672614
1755649414056,0.12392747,-0.18572648,0.05840667,-0.08285416,-0.08273666,-0.01269675,0.99154014,0.04471597,-0.10794867,0.05653061
1755649414086,0.14128531,-0.08274113,-0.27279908,-0.12068863,-0.10699042,-0.04197248,0.99148023,0.04291770,-0.10954282,0.05590522
1755649414096,6.15130775,-3.69333515,-3.77902230,-0.41497227,-0.40187674,-0.02922084,0.99134675,0.04075985,-0.11163258,0.05575327
1755649414119,-2.94761067,1.42835597,1.67964257,-0.18752822,-0.09463231,-0.19382288,0.99143137,0.03864078,-0.11270193,0.05356307
1755649414152,-0.32949634,0.47401665,0.48650386,-0.08944126,-0.01345495,-0.07031648,0.99152480,0.03716053,-0.11292461,0.05239933
1755649414162,1.88177724,-1.21853975,-1.74851071,-0.11870952,-0.08176123,0.00931923,0.99149640,0.03653730,-0.11335385,0.05244826
1755649414186,-0.77066204,0.36209230,0.55004207,0.00200842,-0.05742618,0.02046531,0.99140346,0.03656140,-0.11404297,0.05269384
1755649414209,0.01766890,-0.00228549,0.03350248,-0.02492045,-0.02285962,-0.00586669,0.99138751,0.03627856,-0.11430242,0.05262726
1755649414245,-0.09737935,0.02359774,0.15367265,-0.04566655,-0.02567038,-0.03883648,0.99140059,0.03546569,-0.11475936,0.05193597
1755649414264,0.61907478,-0.02786551,-1.10071139,-0.09553251,-0.05373485,-0.07721419,0.99141200,0.03451992,-0.11529133,0.05117155
1755649414275,0.46654728,-0.10158514,-1.39679572,-0.08107356,0.04347478,0.10848730,0.99142423,0.03407402,-0.11505222,0.05176823
1755649414298,-0.62663841,0.30839909,1.36393833,-0.01515953,-0.00434551,0.01346104,0.99141652,0.03390423,-0.11510089,0.05191899
1755649414309,0.51621388,-0.70910409,-0.59880155,-0.00829220,-0.00412059,-0.05310474,0.99143121,0.03385696,-0.11512438,0.05161629
1755649414331,-0.56641109,0.59145032,0.65344783,-0.04194427,-0.00242127,-0.03114003,0.99146168,0.03339348,-0.11515113,0.05127220
1755649414344,0.57868555,-0.21386377,-0.59012955,0.04248159,-0.01745457,0.02203349,0.99143220,0.03366536,-0.11526284,0.05141321
1755649414354,0.15668571,-0.56851655,-0.39018691,0.03144590,-0.03280632,0.02548021,0.99140115,0.03382259,-0.11542687,0.05154061
1755649414374,-0.48085236,0.31981756,0.68673854,0.04431277,-0.01982742,0.02370429,0.99134971,0.03427236,-0.11562812,0.05178121
1755649414377,18.88724220,3.02809824,-21.79264239,0.10372898,-0.14057217,-0.05502977,0.99132916,0.03439684,-0.11579681,0.05171517
1755649414388,-3.65122020,-0.66032462,4.20021035,0.00039831,-0.00717965,-0.01538959,0.99132887,0.03439911,-0.11583773,0.05162745
1755649414409,-0.26237505,-0.02817533,0.26537148,-0.00841040,-0.00141685,-0.00730633,0.99133408,0.03431248,-0.11585233,0.05155220
1755649414411,17.13868950,0.44026353,-16.62163881,0.02151106,-0.08287935,0.01726801,0.99131935,0.03434045,-0.11596007,0.05157465
1755649414422,-3.81669344,0.00935709,3.78117810,0.00369820,-0.02461678,-0.00246279,0.99130422,0.03435986,-0.11608931,0.05156172
1755649414435,-0.02337897,-0.08591185,0.02721031,0.02227894,-0.02861215,0.01940512,0.99127031,0.03450690,-0.11627815,0.05168979
1755649414468,-0.18148564,0.00310345,0.14943394,0.00097345,0.00090170,0.00180524,0.99126994,0.03452301,-0.11626322,0.05171967
1755649414503,0.07282182,0.00708391,-0.21684904,0.00298130,-0.00959735,0.00436381,0.99124442,0.03457519,-0.11643118,0.05179603
1755649414529,0.18378183,-0.11525412,-0.06719252,-0.01614785,0.00402514,-0.04123704,0.99128574,0.03436527,-0.11637885,0.05125995
1755649414532,11.14706572,8.05700407,-24.19682354,0.37036176,0.12582158,0.40032300,0.99125626,0.03493933,-0.11618383,0.05188045
1755649414565,-1.27882283,-0.64315403,2.47932750,0.03388843,-0.01331285,0.02664232,0.99118856,0.03549001,-0.11640016,0.05231339
1755649414574,0.51933743,0.19402207,-1.21666575,-0.02825869,-0.01784343,-0.01854806,0.99118803,0.03535155,-0.11648759,0.05222251
1755649414623,-0.14946878,-0.08696216,0.33930146,0.00213776,-0.00649747,0.00565155,0.99116048,0.03540328,-0.11664483,0.05235927
1755649414657,0.07452711,-0.02028618,-0.06942312,-0.00226034,-0.02304609,0.00800258,0.99110801,0.03536451,-0.11704007,0.05249652
1755649414668,1.19910574,-0.30400016,-1.99592573,-0.07453188,0.03421664,-0.03829397,0.99115415,0.03496950,-0.11685873,0.05229356
1755649414707,-0.37759915,0.09512591,0.60643680,-0.01336549,0.00182178,-0.01276846,0.99118047,0.03471020,-0.11682338,0.05204585
1755649414710,6.82937884,1.08770316,-5.44295637,0.05385770,-0.08456184,-0.25279225,0.99118265,0.03479638,-0.11695868,0.05164138
1755649414755,-0.53883663,-0.01487859,0.43691383,0.01197421,0.00453799,0.01086780,0.99117247,0.03506460,-0.11685703,0.05188482
1755649414766,-0.38697644,0.66964681,-0.28254233,0.15311148,0.03270835,0.11788200,0.99112618,0.03596796,-0.11666405,0.05258033
1755649414799,0.07052006,-0.25637022,0.15374715,0.00898755,-0.00859069,-0.01188360,0.99111484,0.03611176,-0.11680150,0.05239019
1755649414812,0.16725136,-0.13486453,0.27971903,0.00015743,-0.00136805,-0.01998808,0.99112088,0.03611283,-0.11681081,0.05225427
1755649414842,-0.00584697,-0.00310037,-0.05598743,-0.01180568,-0.01901884,0.00020775,0.99109376,0.03593751,-0.11709323,0.05225736
1755649414845,1.22359499,-0.21710905,6.92073113,0.02263118,-0.14118911,0.08936557,0.99105707,0.03597486,-0.11732620,0.05240481
1755649414868,-0.12637264,0.01114109,-1.12100573,0.00524070,-0.00382772,0.01789633,0.99103876,0.03603512,-0.11737022,0.05261062
1755649414903,-0.02168826,0.02379109,0.02363454,0.00513691,-0.00773003,-0.01114727,0.99102979,0.03612502,-0.11750549,0.05241554
1755649414914,-0.35180111,0.31889541,0.48747733,0.00784901,-0.03590960,-0.05738279,0.99102142,0.03616819,-0.11770299,0.05209993
1755649414937,0.12922230,-0.09043108,-0.17728083,0.02042059,-0.00588175,0.00064610,0.99100403,0.03640813,-0.11777210,0.05210753
1755649414940,-1.93017594,18.66354587,23.70869860,0.25523994,-0.48627802,0.15682434,0.99092845,0.03666337,-0.11825838,0.05226435
1755649414959,0.29445238,-1.88786950,-2.23560806,0.01443606,-0.07236092,-0.00889708,0.99084247,0.03680557,-0.11897114,0.05217671
1755649414972,0.01226303,0.06261586,0.10849401,0.02545885,-0.10518327,-0.02809757,0.99076724,0.03696341,-0.11962327,0.05200251
1755649414983,0.10748258,0.04346810,-0.10052587,0.04662799,-0.05598051,-0.01898530,0.99072476,0.03722686,-0.11993956,0.05189524
1755649414998,-0.08011347,-0.04604694,-0.16994211,0.01817685,-0.00973126,0.00699285,0.99070837,0.03736046,-0.12001109,0.05194664
1755649415021,-0.04903418,-0.02668603,-0.01568747,-0.00357670,-0.00262535,0.00949197,0.99070043,0.03731879,-0.12004167,0.05205722
1755649415023,-3.15651370,19.89373730,46.76845076,0.44949194,-0.45321436,-0.10688132,0.99064398,0.03770086,-0.12042691,0.05196637
1755649415035,0.29701163,-2.64506286,-5.95321068,0.02175801,-0.04619568,-0.01664948,0.99060967,0.03783467,-0.12071101,0.05186398
1755649415047,-0.02110179,-0.03918283,-0.03875484,0.02793497,-0.01332117,0.01566277,0.99058771,0.03800926,-0.12079427,0.05196187
1755649415064,-0.01494194,-0.03322046,-0.19000443,0.03059122,0.00426612,-0.00008510,0.99058235,0.03826011,-0.12075928,0.05196117
1755649415075,-0.17502415,0.17351562,0.03667162,0.01702484,0.00748184,0.02674197,0.99057585,0.03835630,-0.12071701,0.05211226
1755649415088,0.07952183,-0.12666719,-0.10211340,0.02011244,0.01368386,0.00216203,0.99058076,0.03848402,-0.12063012,0.05212599
1755649415089,-12.39025687,7.80982504,35.67976797,-0.08797690,-0.11765823,-0.04763961,0.99057445,0.03841803,-0.12071836,0.05209026
1755649415102,1.50322768,-1.11371296,-3.86356374,-0.01649280,-0.01394653,-0.01555825,0.99057285,0.03831001,-0.12080971,0.05198836
1755649415137,0.03895182,0.00353982,-0.12282346,-0.00755093,-0.01174600,-0.00604099,0.99055861,0.03817975,-0.12101233,0.05188415
1755649415152,0.03116639,0.03495612,0.83514998,-0.02048332,-0.11497547,-0.00670695,0.99045817,0.03802101,-0.12190339,0.05183217
1755649415164,-0.44644624,-0.12133864,-1.12008860,0.01071162,-0.01650862,0.00682671,0.99044248,0.03808099,-0.12199584,0.05187040
1755649415179,0.01724160,0.15018879,-0.03419220,0.00149334,-0.05078804,0.01750228,0.99038709,0.03809242,-0.12238437,0.05200429
1755649415190,0.55136554,-0.14551773,0.44524195,0.04309350,-0.07411882,-0.00017107,0.99032970,0.03832081,-0.12277720,0.05200339
1755649415200,0.02128597,-0.00928611,0.04172390,-0.03094871,-0.09777518,-0.04062574,0.99028427,0.03816143,-0.12328074,0.05179416
1755649415213,0.03988481,-0.06027921,-0.21579162,-0.03780040,-0.06832015,-0.03696370,0.99025086,0.03791572,-0.12372482,0.05155390
1755649415224,0.14521030,-0.05071103,0.04649303,-0.02442012,-0.05684950,-0.04555099,0.99022950,0.03777897,-0.12404318,0.05129881
1755649415236,-0.07564660,-0.02587546,-0.09602577,-0.01319943,-0.06480887,-0.02768258,0.99019108,0.03769713,-0.12444499,0.05112718
1755649415252,-0.04442336,0.02844623,0.04065106,-0.02650661,-0.04425402,-0.02068434,0.99016328,0.03748641,-0.12479681,0.05096274
1755649415264,0.06493509,-0.02051403,0.24846873,-0.01785941,-0.05255299,-0.02447143,0.99013579,0.03738193,-0.12510425,0.05081958
1755649415276,-0.04180032,0.04049406,-0.10798416,-0.01278387,-0.08920295,-0.02134760,0.99007894,0.03730714,-0.12562609,0.05069470
1755649415289,0.14970981,0.01808657,-0.30524382,-0.02551330,-0.10307943,-0.02357508,0.99000667,0.03713875,-0.12630641,0.05053910
1755649415290,52.54335937,-15.27095154,23.50840536,-0.36704673,-0.78674629,-0.47958369,0.98996608,0.03690017,-0.12681779,0.05022737
1755649415301,-6.06785599,1.69703738,-2.46921848,-0.02638996,-0.13900116,-0.08554057,0.98989827,0.03675767,-0.12756840,0.04976546
1755649415313,-0.13951733,0.08926214,0.11139674,-0.03256974,-0.13174025,-0.06866389,0.98982332,0.03656062,-0.12836543,0.04935004
1755649415324,0.04155756,-0.03219815,0.32547450,-0.00084965,-0.14516036,-0.08969836,0.98974411,0.03655595,-0.12916381,0.04885670
1755649415338,-0.05932111,0.20997687,-0.09448973,-0.01672328,-0.13786611,-0.04331550,0.98963769,0.03643972,-0.13012198,0.04855566
1755649415353,-0.02865262,0.14838633,-0.23290920,0.00125178,-0.13984061,-0.04719368,0.98951781,0.03644899,-0.13115680,0.04820642
1755649415356,6.38591260,7.44379153,-2.02045950,0.18946269,-0.98512750,-0.46795033,0.98933844,0.03674265,-0.13268375,0.04748110
1755649415368,-1.11391024,-1.44430369,-0.02953550,-0.02712088,-0.22920325,-0.11223060,0.98918744,0.03657586,-0.13409335,0.04679088
1755649415381,0.48831014,0.32301934,0.30388389,-0.04004207,-0.36553067,-0.14663706,0.98892301,0.03632159,-0.13641447,0.04585974
1755649415397,0.00144385,-0.23957833,0.39017912,0.00972695,-0.36002399,-0.12960830,0.98857065,0.03639843,-0.13925866,0.04483583
1755649415409,0.88356079,-0.37183138,2.64446180,0.02421674,-0.48898474,-0.18674902,0.98820405,0.03654131,-0.14214367,0.04373401
1755649415412,12.99786934,5.87463284,13.13756772,-0.01499030,-2.12045132,-0.99045536,0.98777988,0.03651733,-0.14553639,0.04214928
1755649415445,-1.75061190,-0.69231479,-2.35290940,0.00973290,-0.15631547,-0.03346382,0.98740716,0.03668084,-0.14816249,0.04158709
1755649415465,0.42168867,0.17164009,1.52742579,-0.03414506,-0.65752952,-0.05850694,0.98643525,0.03633939,-0.15473779,0.04100202
1755649415488,-1.68970425,0.07233430,0.24735167,-0.04971854,-0.42933883,0.02306861,0.98567852,0.03578254,-0.15954638,0.04126039
1755649415490,70.67614265,-8.95521753,138.15269287,1.11776017,-3.81689549,0.68593635,0.98501809,0.03684442,-0.16317243,0.04191203
1755649415536,-2.33580705,0.34249098,-6.39149068,-0.03240652,-0.14384462,-0.01972027,0.98451114,0.03609907,-0.16648086,0.04145846
1755649415569,0.04871954,-0.17061912,0.40167939,-0.07276535,-0.25383413,-0.07465847,0.98388243,0.03488752,-0.17070720,0.04021540
1755649415603,-0.08165951,-0.09273794,-0.33242543,-0.01430863,-0.05038969,0.01795516,0.98372678,0.03463998,-0.17157894,0.04052602
1755649415653,-0.03183790,0.04060563,-0.09800210,-0.04254016,-0.01298718,0.00594860,0.98370094,0.03358073,-0.17190232,0.04067414
1755649415663,3.69491451,-5.86163062,3.54708846,-0.61221575,-0.24602307,-0.34498611,0.98365422,0.03048904,-0.17314473,0.03893196
1755649415722,-0.54060073,0.77693358,-0.62733315,-0.07397826,-0.04598860,-0.05672231,0.98354586,0.02833258,-0.17448530,0.03727851
1755649415733,1.89943102,1.23144412,2.36503004,-0.31216588,-0.27932586,-0.06181561,0.98333092,0.02660006,-0.17603556,0.03693543
1755649415798,-0.40109786,-0.01941741,-0.36727163,-0.01077568,-0.06292310,-0.01342701,0.98298834,0.02624985,-0.17808056,0.03649905
1755649415811,0.94987421,2.40366162,3.97049480,0.21848750,-0.25781363,0.35064425,0.98256708,0.02763724,-0.17971768,0.03872564
1755649415877,-0.24930048,-0.33858035,-0.73726963,0.02836748,-0.01439610,0.05736090,0.98237510,0.02858188,-0.18019707,0.04063576
1755649415924,0.03633994,0.10305773,0.23675647,0.08115025,-0.05638794,0.05693623,0.98201978,0.03047674,-0.18151373,0.04196522
1755649415934,1.58196945,-0.79515116,7.21992551,0.11480138,-0.20120080,0.05164647,0.98180208,0.03105648,-0.18252979,0.04222604
1755649415978,-0.37213154,0.13972630,-1.63870193,-0.00612600,0.02706267,-0.03307782,0.98194885,0.03092079,-0.18193035,0.04149336
1755649416012,-0.00235908,-0.09167819,-0.14285727,0.05399489,0.03343794,0.00551848,0.98202091,0.03184141,-0.18136024,0.04158745
1755649416034,-0.04091944,-0.07640751,0.03433735,0.03582580,0.06801148,-0.04292437,0.98216384,0.03223012,-0.18062231,0.04112173
1755649416046,-0.13063078,-0.38311196,0.98164438,-0.05452350,0.12769417,-0.08072549,0.98233241,0.03190843,-0.17986892,0.04064544
1755649416068,-0.31277883,0.01152731,-0.87014450,0.03506287,0.06713985,0.02903678,0.98244396,0.03230289,-0.17911359,0.04097211
1755649416104,0.14511155,0.03037261,-0.11346958,-0.01000489,0.01755522,0.00132724,0.98250642,0.03212280,-0.17879760,0.04099600
1755649416139,0.16146446,-0.14325305,0.11584740,-0.03495181,0.11298761,-0.03173391,0.98289904,0.03152337,-0.17685986,0.04045176
1755649416174,-0.04316144,0.07022646,-0.04073569,-0.04775059,0.06037615,-0.03974996,0.98314478,0.03068296,-0.17579724,0.03975216
1755649416209,0.06561591,0.16668557,0.06003567,0.01240564,0.05972209,-0.05197620,0.98336186,0.03090130,-0.17474613,0.03883738
1755649416255,-0.00209831,-0.03641351,-0.11256954,0.01048392,0.04035398,0.03965612,0.98348152,0.03114086,-0.17382404,0.03974352
1755649416267,2.87064708,-1.27646805,1.33018834,-0.12855906,-0.01815990,-0.01431697,0.98349038,0.03031808,-0.17394027,0.03965190
1755649416312,-0.65303450,0.23723405,-0.40382157,-0.05407110,0.03241114,0.00171544,0.98365282,0.02911230,-0.17321750,0.03969015
1755649416323,2.13400665,-0.84735437,-0.68138781,-0.08280410,0.09328500,-0.08923655,0.98377608,0.02865687,-0.17270443,0.03919935
1755649416370,-0.59426559,0.26813873,0.06740753,-0.00492193,0.03335341,-0.01219807,0.98392810,0.02854121,-0.17192063,0.03891269
1755649416403,0.27760171,0.14739329,-0.17469902,0.00818626,0.13409014,-0.00359940,0.98430478,0.02867424,-0.16974166,0.03885420
1755649416424,0.22445699,-0.50427793,-0.43131009,-0.06621296,0.23141682,0.00255824,0.98473761,0.02798231,-0.16732335,0.03888094
1755649416460,-0.00399665,0.03119682,0.03635041,-0.03858574,0.08084304,-0.00884228,0.98501252,0.02728005,-0.16585201,0.03872001
1755649416490,-0.11294078,0.07162525,0.13682732,-0.08141582,0.08353021,-0.02826291,0.98526886,0.02607510,-0.16461576,0.03830172
1755649416534,-0.00589140,0.09261214,-0.14149310,-0.01966848,0.06443039,0.01884943,0.98550396,0.02563452,-0.16317252,0.03872394
1755649416546,7.09316206,0.10150650,-7.46431518,0.13141987,0.25594571,0.31262670,0.98565302,0.02638361,-0.16171363,0.04050592
1755649416578,-1.86542948,0.06332830,1.82993287,0.07400261,0.10279175,0.07152868,0.98584252,0.02757506,-0.16005869,0.04165753
1755649416601,0.46642846,-0.15602110,-0.92959942,0.06450621,0.14718710,0.14691747,0.98601970,0.02830720,-0.15838811,0.04332504
1755649416624,-0.89239969,-0.20656309,1.00791849,0.00335723,0.07514311,0.07681256,0.98611866,0.02834615,-0.15751645,0.04421607
1755649416646,0.13745610,0.24207051,0.27047492,-0.02384498,0.10791745,0.12359823,0.98625195,0.02808624,-0.15634015,0.04556329
1755649416656,4.83096229,-0.24178172,-5.70776170,-0.19862589,0.10893445,0.32424271,0.98629183,0.02703352,-0.15576280,0.04728177
1755649416668,-1.37326690,-1.01848770,0.60364573,-0.02532108,0.04106744,0.17614014,0.98628341,0.02687779,-0.15551023,0.04836504
1755649416680,1.39229831,-0.70287467,-0.91098787,-0.03961406,0.03175414,0.11149475,0.98628662,0.02665794,-0.15533400,0.04898383
1755649416712,-1.60959270,0.38833732,2.06906933,-0.07434367,-0.01199514,0.03373082,0.98626018,0.02543870,-0.15553072,0.04953702
1755649416724,13.26007148,-10.16780287,-15.36075880,-0.59584300,-0.00739003,-0.08075750,0.98635992,0.02198281,-0.15557358,0.04906862
1755649416735,-1.98033690,1.74165824,1.02484690,-0.85833822,0.05803103,-0.32376890,0.98658710,0.01734778,-0.15526021,0.04732027
1755649416767,-3.80025555,2.60413770,4.73161670,-0.19556541,0.02822574,-0.05827652,0.98675190,0.01422852,-0.15481001,0.04639076
1755649416768,862.12545581,-757.53200235,-1139.57056774,-6.14970241,1.13942391,-2.63395468,0.98701432,0.00992372,-0.15401242,0.04454699
1755649416791,-52.42891332,45.61522710,69.14150690,-0.32011411,0.06964788,-0.02849855,0.98718172,0.00629043,-0.15322191,0.04422353
1755649416811,0.02372808,0.30369561,-0.24393363,-0.38863643,0.05694667,-0.08049228,0.98732676,0.00228747,-0.15263536,0.04339446
1755649416813,465.14408704,-416.00031961,-643.96525502,-5.40411573,1.86054761,-1.39898752,0.98760481,-0.00203582,-0.15114692,0.04227527
1755649416834,-35.81925088,32.16167877,49.99256009,-0.36906164,0.02910770,0.01687526,0.98762804,-0.00583715,-0.15084712,0.04244909
1755649416846,1.81257421,-1.85678849,-2.30531013,-0.38347123,0.11726712,-0.05799155,0.98773900,-0.00825302,-0.15010833,0.04208374
1755649416857,-0.72057899,0.34712419,-0.81226391,-0.52500396,0.00786470,-0.07699747,0.98773510,-0.01116679,-0.15006468,0.04165641
1755649416867,1.65166264,-0.99338279,-1.58123589,-0.56294539,0.08742396,-0.12124369,0.98778993,-0.01392523,-0.14963631,0.04106231
1755649416880,-1.30278248,1.98814057,2.37044759,-0.48339238,0.10187398,-0.10220835,0.98786700,-0.01701894,-0.14898431,0.04040818
1755649416891,0.63386955,-0.99220304,-1.38486716,-0.50508038,0.04516509,-0.10381281,0.98787594,-0.01984739,-0.14873139,0.03982683
1755649416900,2.57510818,-0.16287456,-1.26728280,-0.65023660,0.04903962,-0.07937997,0.98785991,-0.02283848,-0.14850581,0.03946168
1755649416914,-3.17902600,1.79271590,2.66788328,-0.33514319,0.00307391,-0.13040080,0.98784306,-0.02508394,-0.14848521,0.03858799
1755649416936,-0.86118308,0.82690141,1.58610702,-0.20048127,0.03457050,-0.05886123,0.98786676,-0.02728923,-0.14810494,0.03794052
1755649416958,1.28126833,-0.66325632,-2.60189756,-0.32241968,0.02904224,-0.14562716,0.98787042,-0.03090033,-0.14777966,0.03630950
1755649416960,543.63959628,-283.39480729,-752.41550840,-2.45245412,-0.07485209,-1.62341349,0.98784502,-0.03286229,-0.14783954,0.03501077
1755649416977,-51.70601865,26.80880911,72.63600376,-0.15539910,-0.01131894,0.00242662,0.98778399,-0.03420650,-0.14793745,0.03503176
1755649416991,0.17228770,0.25942182,0.20664820,-0.14482408,-0.02990909,-0.01855112,0.98771978,-0.03524923,-0.14815280,0.03489819
1755649417028,-0.97116933,0.38007487,1.08300237,-0.03546089,-0.01348624,0.00387022,0.98765650,-0.03590171,-0.14840094,0.03496940
1755649417048,4.35716559,-2.33073833,-5.22224002,-0.26561185,-0.04988156,-0.00302415,0.98748592,-0.03850471,-0.14888978,0.03493976
1755649417081,-2.17176220,1.07274431,2.61959226,-0.08636991,-0.02710492,0.01263176,0.98735317,-0.03994276,-0.14934108,0.03515008
1755649417092,7.43707550,-5.48169871,-9.12380164,-0.42449973,0.02517938,-0.02299085,0.98728071,-0.04229874,-0.14920134,0.03502248
1755649417113,-3.36280595,2.68588414,4.27004331,-0.09107005,0.03143977,0.05306321,0.98726913,-0.04325953,-0.14886965,0.03558230
1755649417136,-0.79819849,0.44834578,0.88851496,-0.06243117,0.03894900,-0.00152744,0.98730486,-0.04396500,-0.14842952,0.03556504
1755649417147,1.49912659,-1.03318981,-1.51736176,-0.15377729,0.09489587,-0.07194036,0.98735786,-0.04478771,-0.14792183,0.03518016
1755649417157,-1.51322307,0.59093571,0.98791096,-0.21086114,0.08920678,-0.11235013,0.98739792,-0.04589473,-0.14745349,0.03459032
1755649417168,0.24470510,1.21343891,0.66730930,-0.07648846,0.05351583,-0.06093465,0.98743387,-0.04631542,-0.14715916,0.03425518
1755649417180,-0.49131330,-0.92428888,-0.57261723,0.00331563,-0.01475647,0.02085112,0.98741739,-0.04629569,-0.14724696,0.03437924
1755649417191,0.12852073,-0.14645887,-0.70779758,0.02645102,0.03273024,-0.00654013,0.98745323,-0.04614624,-0.14706203,0.03434229
1755649417224,-0.39603577,0.40852038,0.82069226,-0.02779816,0.02446380,-0.01210094,0.98749796,-0.04659796,-0.14666449,0.03414565
1755649417236,3.82496465,-1.16345097,-7.73601912,-0.09912119,0.22449463,-0.17955260,0.98771579,-0.04722242,-0.14525018,0.03301447
