UnixTime(ms),Ax,Ay,Az,Gx,Gy,Gz,QuatW,QuatX,QuatY,QuatZ
1755645791247,0.00000000,0.00000000,0.00000000,0.00000000,0.00000000,0.00000000,0.46299283,0.06322225,0.88386399,-0.02061646
1755645791282,-1.07688402,-0.00792406,-0.30003131,-0.04832729,-0.02164644,0.05709014,0.46386810,0.06238136,0.88348734,-0.01962309
1755645791326,0.38526781,0.14702912,-0.01263054,0.01967862,-0.04917808,-0.02871529,0.46585110,0.06281724,0.88239805,-0.02025914
1755645791371,-0.04008476,-0.16975499,-0.12788150,-0.04675559,-0.06209828,-0.01245857,0.46857903,0.06177926,0.88101946,-0.02053572
1755645791380,-12.35708438,-1.24739192,-7.09986633,-0.26057006,-0.40312664,0.32443183,0.47242633,0.06052853,0.87908446,-0.01897845
1755645791438,1.82908795,0.03208997,1.11132912,-0.12888395,-0.10876958,0.10138242,0.47884781,0.05677156,0.87591382,-0.01602315
1755645791469,-1.58923733,-0.92086736,-1.14655462,-0.45705609,-0.31086439,0.37234519,0.48848628,0.04968719,0.87109543,-0.01025180
1755645791505,-0.38595847,-0.81182399,-0.56407215,-0.46713964,-0.46036630,0.65062256,0.50384011,0.04127868,0.86280883,0.00145941
1755645791538,-0.42493058,-0.92164001,-0.69283380,-0.62047490,-0.63097672,1.07384648,0.52141359,0.03116494,0.85252391,0.01896311
1755645791560,-3.94437907,-1.47046311,-3.34767147,-0.85158609,-1.25798336,1.46591529,0.54342250,0.02162717,0.83843450,0.03538136
1755645791605,2.94666442,1.98742358,2.48844451,-0.24136736,-0.47771312,0.43475829,0.55913675,0.01619641,0.82768595,0.04516342
1755645791635,-3.42638335,-2.21708234,-3.65796621,-0.55736333,-1.26957449,1.05230845,0.58499984,0.00786383,0.80870581,0.06089543
1755645791658,-0.34480146,0.64654450,-1.10050148,-0.56451749,-1.46019908,0.92519861,0.60606707,0.00148478,0.79220556,0.07135017
1755645791691,3.00925263,2.15845880,3.17536170,-0.20424799,-0.61336943,0.25297073,0.61876144,-0.00193638,0.78193163,0.07558743
1755645791717,-0.16472436,-0.24808376,-0.33514055,-0.19424923,-0.64455707,0.24996292,0.62883173,-0.00447133,0.77352016,0.07884945
1755645791729,-6.77398993,-4.94137664,-11.26190299,-0.59440569,-1.47246662,0.65893347,0.63834283,-0.00780000,0.76527434,0.08253948
1755645791742,4.34869788,3.27737944,4.17737103,-0.52734159,-1.09948987,0.54669211,0.64660232,-0.01135956,0.75785279,0.08622965
1755645791781,1.44088845,0.82391327,2.81884879,-0.12452117,-0.37947769,0.12670348,0.65465425,-0.01374414,0.75058579,0.08865602
1755645791796,-3.55364695,-0.84785298,-5.96539652,-0.23021861,-0.89264524,0.27326120,0.66212813,-0.01551682,0.74371242,0.09076013
1755645791816,1.63059597,-0.02592750,2.17041774,-0.21813293,-0.66521113,0.28774583,0.66921196,-0.01774178,0.73692727,0.09369514
1755645791829,0.94071682,-0.53940600,-0.05123634,-0.23820881,-0.63916031,0.32500837,0.67329031,-0.01924249,0.73290056,0.09574269
1755645791850,1.17902796,0.86483234,2.40635839,-0.13547591,-0.34375858,0.15064718,0.67689641,-0.02065144,0.72932547,0.09730942
1755645791853,-73.93984844,-11.32049455,-129.37503372,-0.74155333,-2.76364304,1.00896656,0.68136034,-0.02183793,0.72490364,0.09892377
1755645791893,6.15787477,1.14352728,10.92953501,-0.03533583,-0.15134857,0.05842355,0.68441118,-0.02255348,0.72183883,0.10010685
1755645791903,-13.77992691,-4.28949603,-28.00164693,-0.41756846,-1.58902203,0.62959251,0.69177833,-0.02453693,0.71429098,0.10309741
1755645791928,4.63051326,1.02901479,8.47275590,-0.19671234,-0.39718538,0.18674880,0.69644629,-0.02700567,0.70930630,0.10544111
1755645791939,-0.94937913,0.26126155,-2.85322216,-0.30291049,-0.53993057,0.23732345,0.69916872,-0.02865653,0.70636368,0.10673452
1755645791970,0.60452967,0.32514728,2.10114314,-0.08713335,-0.22115601,0.04907804,0.70248466,-0.03002452,0.70289153,0.10750505
1755645791981,-4.11394067,-0.18084028,-10.50310989,-0.14920851,-0.63838794,0.09558286,0.70580357,-0.03083025,0.69944423,0.10802119
1755645791992,3.51579552,-0.26065417,6.68398174,-0.21222702,-0.35744657,0.07153369,0.70766760,-0.03201872,0.69744253,0.10842178
1755645792014,0.81493964,-0.04412400,2.04046491,-0.12692245,-0.15223425,0.04083815,0.70917401,-0.03340852,0.69577557,0.10886896
1755645792037,0.06303992,0.02478060,0.26445815,-0.12626183,-0.14299392,0.04480964,0.71063478,-0.03486053,0.69413114,0.10938427
1755645792048,-2.71129735,-0.69826468,-11.04837804,-0.39906855,-0.56233820,0.13508527,0.71346813,-0.03709532,0.69098204,0.11014075
1755645792059,1.64283623,0.90542513,8.43479310,-0.09367802,-0.20560295,-0.00371442,0.71451837,-0.03760118,0.68987179,0.11012069
1755645792070,0.58127012,-0.09038337,0.78176370,-0.13961096,-0.16644185,-0.01646203,0.71538202,-0.03837602,0.68894804,0.11002933
1755645792093,0.41552600,0.13485856,1.55177765,-0.07782523,-0.07786075,-0.00332994,0.71619707,-0.03926712,0.68805653,0.10999120
1755645792103,-0.35727022,-0.90411571,-3.86714840,-0.23150546,-0.21017102,0.02319326,0.71714152,-0.04044779,0.68698466,0.11010948
1755645792127,0.23598854,0.30403518,1.79755363,-0.08447354,-0.07968462,0.02322429,0.71794892,-0.04145303,0.68603641,0.11038585
1755645792136,-0.02348168,-2.89679180,-10.60690176,-0.44928466,-0.44453467,0.18201214,0.71964645,-0.04351974,0.68399155,0.11122311
1755645792148,-0.25653254,1.94915004,5.99117126,-0.12046879,-0.16520522,0.02446912,0.72046967,-0.04420039,0.68305814,0.11136136
1755645792159,0.27805228,0.15628496,0.47900825,-0.08911085,-0.14125733,0.01052819,0.72121057,-0.04472169,0.68223179,0.11142295
1755645792171,-0.33211161,0.07052742,0.36391921,-0.06831577,-0.11860315,-0.00426586,0.72181816,-0.04510425,0.68156761,0.11139906
1755645792182,0.20586312,0.19637913,0.58410875,-0.06011702,-0.10447477,0.01142754,0.72234847,-0.04544692,0.68097210,0.11146420
1755645792193,0.09076477,-0.25595532,0.15432012,-0.04777051,-0.09004589,0.01131463,0.72279686,-0.04571444,0.68046785,0.11152756
1755645792204,-0.13673179,-0.54889756,-0.08937178,-0.04138428,-0.09072948,0.03197407,0.72322476,-0.04594205,0.67996883,0.11170342
1755645792215,0.76498147,1.05498079,0.15111049,-0.06072995,-0.06864701,0.01335704,0.72354985,-0.04627910,0.67958784,0.11177755
1755645792248,-0.15747827,0.09614583,0.68610208,-0.01487045,-0.02144346,-0.01806178,0.72391224,-0.04652446,0.67923403,0.11147953
1755645792250,15.75120471,16.03850362,-281.79450482,0.43237347,-0.61138684,-1.01493351,0.72451747,-0.04617856,0.67874492,0.11066758
1755645792270,-1.06083314,-1.25952267,21.99002875,-0.00000027,-0.00715287,-0.04247510,0.72464988,-0.04617857,0.67867303,0.11024071
1755645792280,0.33751224,-0.38614972,-0.04928451,-0.02227421,0.01431676,-0.03434238,0.72459990,-0.04629439,0.67874748,0.11006213
1755645792333,-0.11466077,0.04198870,0.29718368,-0.00465697,0.00377002,-0.00662603,0.72452605,-0.04641617,0.67884606,0.10988886
1755645792351,1.48805115,0.11166130,-1.93069279,-0.05206822,0.11140344,-0.13554796,0.72370427,-0.04690561,0.67989326,0.10861471
1755645792387,-0.74834152,0.07090137,0.93271456,0.02254229,0.04445631,-0.05858639,0.72314819,-0.04650887,0.68067569,0.10758359
1755645792410,-0.04168433,-0.13287872,-0.23295900,-0.01049080,0.08927733,-0.04405773,0.72224794,-0.04662951,0.68170238,0.10707692
1755645792428,-0.24222092,-0.62479025,0.12850188,-0.03920380,0.04188817,-0.00141603,0.72186884,-0.04698431,0.68208146,0.10706411
1755645792464,-0.06127214,0.13173712,0.10683508,-0.00423090,0.02261987,0.00061778,0.72147621,-0.04706068,0.68248975,0.10707526
1755645792483,-0.67130334,-0.24154972,-0.55306557,-0.02307537,0.05751811,0.02954036,0.72090888,-0.04727758,0.68303042,0.10735294
1755645792521,0.11698909,0.02948176,0.14019580,-0.04988387,0.02903405,0.01067497,0.72029274,-0.04822538,0.68358207,0.10755576
1755645792554,-0.26484040,0.07118363,-0.49546955,-0.09576126,0.09270161,0.04923709,0.71860823,-0.04980544,0.68511165,0.10836817
1755645792585,-0.12872911,0.95517910,-0.00945499,0.10924730,0.13072265,-0.19168316,0.71720264,-0.04807933,0.68717706,0.10533958
1755645792620,0.31942314,-0.16605547,-0.14796809,0.09047122,0.11042986,-0.12680653,0.71576978,-0.04649156,0.68911511,0.10311413
1755645792650,-0.22049003,0.80271243,-0.43982643,0.09276555,0.09902453,-0.18055558,0.71482772,-0.04512327,0.69057572,0.10045093
1755645792660,-4.55502818,2.67404866,-6.29697074,0.41129675,0.14959036,-0.55460356,0.71460926,-0.04300509,0.69134611,0.09759472
1755645792683,1.56473169,-1.87627072,2.40862632,0.16269114,0.05701646,-0.14391752,0.71431146,-0.04115041,0.69199610,0.09595406
1755645792706,-0.58980897,-0.31714844,-0.24583018,0.12275353,0.05689105,-0.11759635,0.71394084,-0.03975102,0.69264466,0.09461346
1755645792741,0.58795125,-0.26864843,0.86185061,0.03408715,0.02302810,-0.04649440,0.71368573,-0.03914427,0.69305456,0.09378586
1755645792775,-1.21213911,0.29511442,-1.18562084,0.06290027,0.04461228,-0.14110198,0.71332547,-0.03809698,0.69379735,0.09143652
1755645792819,-0.44699778,-0.29276653,-0.37758321,0.01288712,0.07537611,-0.07838320,0.71194652,-0.03781411,0.69545186,0.08971600
1755645792846,-2.41002915,-0.82633119,-2.55070226,-0.09198926,0.09815336,0.01702672,0.71053799,-0.03906976,0.69679165,0.08994842
1755645792878,1.94677970,0.44160743,2.23231354,0.00643630,0.05200223,0.00602367,0.70971969,-0.03896743,0.69761848,0.09004420
1755645792906,-2.12169648,-0.16687099,-1.83675224,0.02420398,0.12219589,-0.04691901,0.70810748,-0.03862252,0.69935978,0.08937560
1755645792928,-3.00669417,-0.27848804,-2.49186671,0.03849008,0.18578374,-0.05400411,0.70616367,-0.03819528,0.70142198,0.08877615
1755645792975,3.06091107,0.05465501,2.72520671,-0.00771398,0.06961774,0.01049727,0.70451881,-0.03837386,0.70303363,0.08901917
1755645793006,-4.99109329,-1.40947378,-4.09089746,-0.21497394,0.13502360,0.12939297,0.70196050,-0.04172745,0.70513999,0.09103770
1755645793017,-12.90137624,-2.26839915,-8.07887001,-0.15744211,0.21866386,0.12092499,0.70058691,-0.04260913,0.70636451,0.09171488
1755645793040,8.35883765,1.78978872,6.86620278,0.06388183,0.13081763,-0.03684435,0.69919763,-0.04189046,0.70783621,0.09130038
1755645793073,1.67340434,0.43357355,1.32358013,-0.00509573,0.07598606,-0.00063357,0.69791079,-0.04197530,0.70910138,0.09128983
1755645793083,-31.67662814,2.21988907,-15.99911867,-0.03060744,0.16447375,0.21682459,0.69690237,-0.04213140,0.70994019,0.09239563
1755645793106,10.60408248,-0.19978480,6.89410673,0.08258967,0.12037587,-0.03185777,0.69557770,-0.04116923,0.71134257,0.09202449
1755645793140,3.64547433,0.01907502,1.72751164,0.00058595,0.05666833,-0.04805367,0.69470205,-0.04115930,0.71230310,0.09120998
1755645793150,-60.42633883,-2.70328603,-17.73072109,-0.14361064,0.37265303,-0.20139815,0.69285692,-0.04188453,0.71418500,0.09019292
1755645793188,14.78602398,0.63643776,4.77425602,-0.04802152,0.07352299,0.01912826,0.69133924,-0.04278013,0.71555620,0.09054966
1755645793223,-0.40291726,0.02885208,0.28453284,-0.14105564,0.07174572,0.12198277,0.68958630,-0.04526271,0.71681893,0.09269656
1755645793252,-8.71383906,-0.92151111,0.44333109,-0.41122629,0.17668293,0.28966791,0.68588843,-0.05126662,0.71939850,0.09692571
1755645793261,-38.66636296,-11.05065330,5.63334111,-0.80610099,0.25467503,0.63976242,0.68396790,-0.05493437,0.72055727,0.09983663
1755645793285,19.11163505,3.19449259,-0.63662855,-0.32765337,0.08475343,0.37520374,0.68190219,-0.05884983,0.72157007,0.10432031
1755645793306,-4.29463573,-0.41976764,1.31924958,-0.22436487,0.07720829,0.30890457,0.68036095,-0.06116079,0.72236532,0.10750203
1755645793317,-7.65592551,-0.42142946,2.38656254,-0.15865620,0.09948658,0.22979165,0.67948364,-0.06204927,0.72292244,0.10878886
1755645793331,9.02610902,0.93555213,-1.17047701,-0.08265686,0.03836246,0.15258450,0.67895812,-0.06264439,0.72319865,0.10988747
1755645793380,5.26124624,0.91661043,-0.97264214,-0.03356191,0.00697347,0.05040868,0.67850236,-0.06345995,0.72336811,0.11111240
1755645793412,-19.51594180,-3.77659142,4.11450450,-0.16362596,-0.01044396,0.36092031,0.67746623,-0.06606160,0.72320205,0.11685104
1755645793439,1.47326231,0.92606955,0.66625395,0.10532768,-0.01225217,-0.06780299,0.67793704,-0.06463968,0.72303665,0.11593570
1755645793450,-47.34330423,-10.20224785,14.48074267,0.20587433,-0.01352106,-0.09094295,0.67821850,-0.06346619,0.72295958,0.11541732
1755645793496,20.16475367,3.66721192,-5.43705089,0.03749563,-0.00873157,0.00566212,0.67848988,-0.06260567,0.72275919,0.11554727
1755645793506,-170.14372950,-31.25353645,52.09278522,0.50855925,-0.11042896,-0.06387353,0.67939607,-0.05996116,0.72218496,0.11521513
1755645793529,62.19063662,12.57627229,-17.54271074,0.20925360,-0.02657230,-0.05054963,0.68001066,-0.05761752,0.72188735,0.11464897
1755645793566,6.77448321,1.33553404,-2.24129410,0.15212374,-0.01438894,-0.06415309,0.68072260,-0.05481084,0.72162187,0.11346534
1755645793603,-0.58106351,0.06761284,0.30035693,0.23035970,-0.02329511,-0.12019143,0.68189047,-0.05049159,0.72118509,0.11121176
1755645793635,-17.72388816,-0.92111217,7.40348051,0.64956132,-0.01122044,-0.47758993,0.68397096,-0.04009861,0.72100556,0.10357032
1755645793667,4.64966092,3.97434075,-0.87743907,0.76182801,-0.02895954,-0.74946984,0.68677827,-0.02787127,0.72054076,0.09154133
1755645793704,2.03752495,2.00447146,-0.86652814,0.51988169,-0.08785926,-0.65350541,0.69029162,-0.01827946,0.71891976,0.07948415
1755645793737,-2.53007655,2.81071605,0.99919702,0.69550910,-0.17915259,-0.75346662,0.69488994,-0.00676878,0.71595478,0.06701428
1755645793767,-2.43242246,3.06631616,0.93019012,0.81691547,-0.20485877,-0.71829048,0.69895175,0.00532157,0.71292287,0.05638358
1755645793803,4.96372621,-1.97613745,-2.92176472,1.11232448,-0.15168544,-0.97030180,0.70245724,0.02523218,0.71020770,0.03901518
1755645793835,0.54047997,-2.48940963,-0.99813267,0.77626041,-0.27927253,-0.71045432,0.70699615,0.03784641,0.70566952,0.02747029
1755645793876,3.84186101,-1.27728412,-2.19719747,0.10439998,-0.35929498,-0.13014407,0.71414809,0.03995529,0.69841176,0.02484138
1755645793897,-38.99110789,4.22041700,9.13730852,-0.08590284,-0.65085497,0.41290360,0.72080815,0.03903183,0.69141507,0.02928010
1755645793954,17.42228222,-3.00585447,-4.97176272,-0.41959058,-0.20680823,0.46184827,0.72628264,0.02713644,0.68555206,0.04237350
1755645793964,-240.67083962,11.94194425,38.00121992,-2.58687755,-1.42996832,1.98218132,0.73275191,0.01407271,0.67833072,0.05238351
1755645794020,43.51137629,-2.57408591,-7.63673409,-0.35613186,-0.32886151,0.27156060,0.74067408,0.00415444,0.66917193,0.05994647
1755645794041,-33.88894570,-0.89876989,2.86952685,-0.68371406,-0.71371476,-0.06058004,0.74749596,-0.00309293,0.66160655,0.05930433
1755645794063,16.59052915,0.13782909,-3.86715867,-0.28408685,-0.48431655,-0.16593616,0.75242981,-0.00630311,0.65613377,0.05742925
1755645794086,3.38111261,-1.08554758,-1.16250790,-0.31575532,-0.56271575,-0.01971626,0.75781056,-0.00980800,0.64988763,0.05721040
1755645794097,-17.98485556,-1.16671791,-0.21044138,-0.16549699,-0.69237357,0.09776677,0.76123801,-0.01078443,0.64580262,0.05778722
1755645794130,16.73909896,1.14636272,0.19723871,0.00844133,-0.23773998,-0.07504202,0.76459178,-0.01064726,0.64193935,0.05656779
1755645794131,-6482.19768058,-296.68300075,-186.05113713,0.65056090,-4.58608843,-3.21156405,0.76724151,-0.01022440,0.63895839,0.05448027
1755645794174,199.50158621,8.96550519,5.55705860,0.03681596,-0.13741148,-0.09272435,0.76982286,-0.00943837,0.63602466,0.05250061
1755645794184,-208.18737625,-19.83242688,-9.49079833,0.52612669,-0.83304566,-0.58715892,0.77364726,-0.00667621,0.63165117,0.04941802
1755645794213,64.72642832,5.22479934,2.65419575,0.11780718,-0.10060768,-0.04153995,0.77487001,-0.00499157,0.63021248,0.04882400
1755645794232,0.53277590,-1.02931655,0.01152767,0.03519678,-0.02448647,0.00078610,0.77506076,-0.00465720,0.62997986,0.04883147
1755645794241,-124.04278950,-21.64909085,-8.71477421,-0.06207248,0.01117355,0.11411070,0.77498480,-0.00493963,0.63003070,0.04935067
1755645794253,69.14215211,10.55952412,2.60717557,-0.12073057,0.02557061,-0.01153776,0.77485949,-0.00566401,0.63018412,0.04928145
1755645794276,20.72867013,4.09070208,1.64654545,-0.09765985,-0.00299031,-0.01956964,0.77489272,-0.00678710,0.63014973,0.04905640
1755645794285,-78.73138148,-12.95121526,-7.69538041,-0.20167177,-0.00155134,0.05992577,0.77487211,-0.00772487,0.63014252,0.04933505
1755645794297,24.63397925,4.43921272,2.38328440,-0.09798469,0.05956056,0.11476570,0.77454534,-0.00828828,0.63048499,0.04999495
1755645794309,4.61967062,1.23286598,0.29971509,-0.06737016,0.13757149,0.02188903,0.77386549,-0.00868914,0.63130354,0.05012519
1755645794319,-12.53540842,-1.96106965,-1.87479427,0.02576954,0.22073949,0.00866109,0.77295339,-0.00855900,0.63241827,0.05016893
1755645794332,17.62808369,2.97283210,2.07644396,0.01660354,0.18194063,-0.04919394,0.77202808,-0.00845357,0.63357360,0.04985655
1755645794341,-23.71002239,-2.43762786,-2.50573031,0.00314295,0.25387814,-0.14718794,0.77107192,-0.00843848,0.63479221,0.04915005
1755645794364,21.55969959,3.24273252,2.30692796,0.01998680,0.13378258,-0.07974096,0.76985798,-0.00820763,0.63633740,0.04822904
1755645794374,-163.02802233,-18.63470033,-18.52845349,0.12256437,0.78056254,-0.21212184,0.76665575,-0.00758868,0.64027924,0.04715782
1755645794386,96.51699960,14.06780069,10.98422328,-0.15495067,0.41754281,0.17202569,0.76450052,-0.00851064,0.64276362,0.04818138
1755645794397,-7.13654008,5.53701164,-0.41550807,-0.48723431,0.47772796,0.37094264,0.76218277,-0.01111734,0.64531947,0.05016592
1755645794409,5.07633366,2.87234881,0.28779955,-0.27772420,0.50076140,0.16517437,0.75962500,-0.01272814,0.64822388,0.05112393
1755645794432,20.98565436,0.25182254,2.35920287,0.03155146,0.26793287,-0.05711592,0.75701227,-0.01236215,0.65133190,0.05046139
1755645794441,-194.19146168,24.33363459,-16.75096052,-0.00000571,1.35792936,-0.14906582,0.75140265,-0.01236218,0.65784997,0.04974587
1755645794454,112.35491047,-10.66096225,10.48043169,0.17700161,0.62743459,-0.09905999,0.74803695,-0.01126477,0.66174006,0.04913170
1755645794465,-4.78726066,4.45932353,0.54556931,0.12569394,0.66254337,0.01755558,0.74483078,-0.01057973,0.66535092,0.04922738
1755645794476,10.16437059,-0.12447165,0.97581157,0.21771960,0.62638220,-0.07865892,0.74161652,-0.00931696,0.66898394,0.04877116
1755645794487,-9.53179690,2.74988536,0.40528612,0.26805346,0.69640646,-0.29227773,0.73838758,-0.00789628,0.67267489,0.04722208
1755645794499,9.07508900,-1.88293772,0.77425996,0.23732636,0.62746299,-0.34982529,0.73519672,-0.00651978,0.67631418,0.04519310
1755645794510,0.41396384,-0.63319905,0.49145128,0.26193616,0.58474837,-0.41001757,0.73229473,-0.00503984,0.67961801,0.04287650
1755645794531,20.34971714,-3.40744578,1.32325415,0.17856642,0.28195515,-0.21497313,0.72966313,-0.00315597,0.68259263,0.04060853
1755645794543,-91.83592987,26.22932039,-0.25923086,1.12818975,0.99165026,-1.09562481,0.72443268,0.00355676,0.68849295,0.03408956
1755645794577,36.63503212,-9.46466709,0.65793918,0.29285606,0.19803988,-0.30546860,0.72136683,0.00859388,0.69189924,0.02883550
1755645794587,-289.77153430,78.48765898,2.04011810,2.68414204,1.96465489,-2.84121074,0.71215581,0.02174618,0.70152605,0.01491357
1755645794632,60.83643926,-16.55634298,-0.27600570,0.21874966,0.20402801,-0.18775289,0.70751240,0.02666805,0.70611668,0.01068913
1755645794642,-220.00004452,56.11943027,8.87420175,1.08031065,1.17816096,-0.78729578,0.70146853,0.03201559,0.71194857,0.00679202
1755645794664,81.29689462,-23.00587944,-3.22148828,0.12998584,0.24479601,-0.00091637,0.69861963,0.03346493,0.71467805,0.00678180
1755645794686,-0.05278892,-1.82106810,0.11474985,-0.02411595,0.18997230,0.18351622,0.69644593,0.03319724,0.71678674,0.00881883
1755645794698,-9.00382800,-2.47494004,0.39475197,-0.16853371,0.16559329,0.34216553,0.69551614,0.03226188,0.71770578,0.01071785
1755645794733,17.42987596,-1.74100402,-0.68543739,-0.05093648,0.03461834,0.09830086,0.69490084,0.03136794,0.71831334,0.01244303
1755645794742,-219.39848238,13.56013518,9.37106857,0.27308667,0.09336839,0.29782860,0.69434973,0.03267876,0.71876150,0.01387261
1755645794755,118.94244650,-10.04662174,-4.81237299,0.30389774,-0.05192274,-0.11530131,0.69460961,0.03459332,0.71843439,0.01314621
1755645794777,19.22725170,-1.11431186,-0.69770470,0.12654364,-0.02862645,0.02709445,0.69485763,0.03597897,0.71812093,0.01344289
1755645794787,-43.89697991,-1.87982238,3.19292771,0.07856899,-0.04469197,0.14400035,0.69505767,0.03637967,0.71789300,0.01417729
1755645794799,11.13277354,-1.45157863,-0.49250160,-0.00435118,-0.02898006,0.09601710,0.69522097,0.03635443,0.71772492,0.01473419
1755645794809,-5.40725474,-1.51820767,0.92868718,-0.07381574,-0.05502144,0.16641417,0.69551447,0.03597428,0.71744156,0.01559123
1755645794819,4.53540656,-0.83475109,0.47495807,-0.10235199,-0.06120538,0.16061332,0.69585394,0.03543693,0.71712023,0.01643445
1755645794844,17.50620994,1.17730784,-1.41898100,-0.05726259,-0.02613949,0.07301843,0.69620164,0.03472688,0.71679610,0.01733987
1755645794855,-122.03620038,-17.31611285,12.74551437,-0.48046616,-0.12837129,0.52889161,0.69694136,0.03220443,0.71612215,0.02011655
1755645794865,62.31436942,5.06860457,-5.02332900,-0.45888747,-0.04993946,0.55712552,0.69721937,0.02986410,0.71586746,0.02295789
1755645794876,14.83504810,0.90190896,-0.90769478,-0.46498294,0.01902022,0.58273024,0.69710157,0.02726020,0.71597397,0.02622118
1755645794887,-3.67302089,-1.80962747,1.78971619,-0.55505772,0.05091787,0.64396616,0.69679034,0.02426289,0.71624893,0.02969860
1755645794898,3.34794236,-0.25894197,0.28303756,-0.52415113,0.08944838,0.58780585,0.69620739,0.02124902,0.71676326,0.03307848
1755645794922,17.26646976,3.67730540,-2.36111881,-0.26203320,0.07119864,0.27804719,0.69526112,0.01814393,0.71760696,0.03637334
1755645794931,-187.11305376,-35.14375928,37.09714399,-1.15452292,0.58960610,0.78225798,0.69237121,0.01283312,0.72031915,0.03997173
1755645794943,105.02916042,23.28725769,-19.59533473,-0.08050700,0.29687094,-0.18472985,0.69057045,0.01234605,0.72211522,0.03885412
1755645794954,-5.08758541,-2.03733584,1.89225438,0.14692608,0.28587020,-0.26355721,0.68901673,0.01313945,0.72365892,0.03743091
1755645794977,20.34603323,2.88218628,-4.18321586,0.04502893,0.13215809,-0.12846824,0.68751912,0.01364603,0.72514570,0.03598564
1755645794989,-84.86821339,-18.04623769,20.77494338,-0.09486105,0.42426685,-0.10835179,0.68484699,0.01307212,0.72771251,0.03533011
1755645795018,36.24559668,7.34016014,-8.48580324,-0.03286082,0.11555464,0.02808868,0.68305618,0.01259728,0.72938227,0.03573599
1755645795036,-56.14877931,-11.08952764,15.42256332,-0.07219003,0.45927661,0.26953099,0.67834191,0.01192591,0.73365355,0.03824263
1755645795067,26.82314428,5.89119089,-6.65870259,0.03659129,0.24806872,0.07801555,0.67416256,0.01248210,0.73742419,0.03942847
1755645795088,-42.62857143,-6.71854552,13.06534289,-0.00641466,0.57105111,0.00808028,0.66738185,0.01241314,0.74356299,0.03951533
1755645795111,23.64333364,6.31158039,-7.14564409,0.20135629,0.30705849,-0.19694829,0.66345932,0.01475895,0.74714022,0.03722088
1755645795122,-120.29557409,9.25993509,37.97645788,1.33210932,0.45225753,-1.57109779,0.66099570,0.02175252,0.74951457,0.02897262
1755645795144,53.59515420,4.68560290,-16.49103995,0.66925218,0.13027622,-0.83575810,0.65940780,0.02918122,0.75096064,0.01969570
1755645795155,-28.61247515,19.23322309,8.07245751,1.08788437,0.06087654,-1.22610719,0.65891668,0.03500140,0.75128633,0.01313603
1755645795206,22.24262342,-4.42927676,-6.75327799,0.47991124,-0.00625878,-0.53136840,0.65845726,0.04738311,0.75112485,-0.00057327
1755645795233,-56.66457993,18.36786557,15.55110038,2.85229692,-0.29454112,-2.40667876,0.65829346,0.08517604,0.74722218,-0.03246177
1755645795254,10.69680577,-11.01212160,-6.88962769,1.84536513,-0.34125010,-0.91168425,0.65902328,0.10492145,0.74357081,-0.04221679
1755645795277,25.77518490,-7.75315607,-8.08558699,0.30234084,-0.21282091,0.48688460,0.66148272,0.10830767,0.74118721,-0.03676368
1755645795299,2.88878992,-0.62024893,-1.48082957,-0.34644437,-0.22755573,0.51980733,0.66521159,0.10446214,0.73866134,-0.03099382
1755645795310,-13.61511910,3.74875550,0.69508920,-0.61274775,-0.31987864,0.29917578,0.66770743,0.10115330,0.73693400,-0.02937827
1755645795322,15.98724162,-2.54929891,-3.38256226,-0.45745248,-0.23955176,0.05548975,0.66974719,0.09836284,0.73547273,-0.02903978
1755645795333,2.16694096,-1.33611794,-0.71270391,-0.41939676,-0.24558114,0.03373451,0.67156942,0.09605616,0.73412204,-0.02885424
1755645795343,-7.70948214,0.76458570,0.45605301,-0.51098953,-0.25674921,0.22920055,0.67339590,0.09347566,0.73282545,-0.02769678
1755645795356,17.16113474,-3.67814373,-1.89680948,-0.35621916,-0.19488899,0.23014705,0.67517512,0.09112461,0.73153919,-0.02617781
1755645795366,-34.98973765,2.55751632,3.52606767,-0.59992247,-0.31596340,0.41301612,0.67737820,0.08809500,0.72994357,-0.02409208
1755645795377,4.26864590,-2.11184659,-1.40221663,-0.61152091,-0.31112491,0.43714361,0.67962034,0.08488452,0.72831017,-0.02179708
1755645795388,8.32006716,-1.92646622,-1.29089446,-0.61136604,-0.31384564,0.50785232,0.68195944,0.08152201,0.72658402,-0.01900389
1755645795400,7.24039255,-2.30063062,-0.78030191,-0.54730893,-0.30472981,0.52605558,0.68442567,0.07815606,0.72470993,-0.01576865
1755645795433,14.96095938,-0.76363650,-1.12549124,-0.22598580,-0.11189673,0.23452056,0.68685301,0.07444989,0.72287482,-0.01192251
1755645795443,-202.54365255,1.78480383,15.70532460,-1.98260991,-0.72827432,1.74702748,0.69180474,0.06443771,0.71919704,-0.00310002
1755645795456,115.71783307,-2.13394488,-8.69796984,-0.62991539,-0.22047549,0.44697993,0.69373749,0.06018578,0.71770883,-0.00008291
1755645795489,14.29511800,-0.05556421,-1.21244579,-0.21484902,-0.10228306,0.12300546,0.69572523,0.05672671,0.71606207,0.00189748
1755645795538,-7.56188819,-0.67037055,0.57618074,-0.39609943,-0.21558596,0.27688917,0.70177495,0.04704208,0.71079099,0.00866742
1755645795555,-110.18844354,-13.99736126,10.56170320,-1.52669342,-0.43749139,1.32115411,0.70622926,0.03345451,0.70689732,0.02042569
1755645795588,47.52471888,4.85489262,-4.10264257,-0.21459209,0.00922946,0.21636232,0.70612637,0.02999958,0.70704591,0.02390913
1755645795623,12.44379132,1.71862356,-1.39904620,-0.03666988,0.03515009,-0.11172492,0.70558835,0.02934318,0.70767510,0.02190925
1755645795633,-182.82774437,-15.58875650,13.07613804,0.81631621,0.05572077,-0.82708906,0.70526923,0.03313905,0.70793420,0.01806329
1755645795656,61.99549974,9.22085777,-5.04428371,0.75162670,0.02873811,-0.83898671,0.70464962,0.04189551,0.70826900,0.00828909
1755645795668,-13.94198332,4.67967876,-1.29129185,1.87784449,-0.08832412,-1.89354761,0.70446415,0.05316257,0.70773906,-0.00307219
1755645795689,25.76048370,-2.23387703,-1.69985008,0.90438937,-0.05855076,-0.79208747,0.70422063,0.06252300,0.70713305,-0.01127030
1755645795699,-45.75194019,-6.47494149,1.88277963,1.28264216,-0.12304019,-1.16537027,0.70411754,0.06912861,0.70649940,-0.01727196
1755645795711,14.36620724,-0.63830016,-1.46803632,0.77579618,-0.08016335,-0.78273332,0.70399419,0.07386097,0.70601040,-0.02204663
1755645795723,-0.94608829,0.49254003,-0.46308943,0.63201238,-0.12751207,-0.67867221,0.70420373,0.07746344,0.70528358,-0.02591506
1755645795735,5.99218992,0.30599502,-0.59544304,0.50436337,-0.13564668,-0.50435783,0.70456963,0.08056527,0.70444936,-0.02901686
1755645795756,15.84142639,1.08053908,-0.18629035,0.31094517,-0.07033919,-0.27910280,0.70479583,0.08376801,0.70372486,-0.03189162
1755645795757,-8622.43594733,-649.51612211,-26.01565924,7.88859284,-1.53096534,-7.29468487,0.70494454,0.08968445,0.70257664,-0.03736263
1755645795818,217.17537776,16.23563121,0.65647492,0.08217276,-0.01212484,-0.07170662,0.70487066,0.09218250,0.70220804,-0.03954252
1755645795847,-54.68736470,-6.56946014,-0.50820831,0.12549238,0.07286264,-0.02511156,0.70352797,0.09403979,0.70328641,-0.03991417
1755645795857,-196.23686587,36.45100563,2.44932672,-0.40682718,0.39160853,0.70929655,0.70204267,0.09202600,0.70522487,-0.03640315
1755645795900,67.03100901,-0.06397969,0.65361221,0.25392346,0.11323752,-0.08215408,0.69881626,0.09738378,0.70761418,-0.03813660
1755645795933,2.41726760,0.47685355,0.09114815,0.14223118,0.08246602,-0.43769039,0.69661826,0.09978749,0.70900786,-0.04553357
1755645795945,-96.76021722,10.36133370,5.15607080,-0.32571741,-0.11512946,-0.41868770,0.69740222,0.09789833,0.70834011,-0.04796196
1755645795968,44.12519982,-7.12135087,-0.85402612,-0.55620679,-0.03251023,0.13371240,0.69876463,0.09144633,0.70796299,-0.04641089
1755645795978,-27.93236026,2.35032419,5.38053184,-0.71484645,0.01225473,0.28852828,0.69925531,0.08787210,0.70802426,-0.04496825
1755645795991,29.71212962,-1.32706191,-2.32644379,-0.37112624,0.03647990,0.18580122,0.69938877,0.08549689,0.70825773,-0.04377912
1755645796012,19.22346514,-2.57496782,-2.12695236,-0.08732771,0.01577573,0.01783316,0.69934333,0.08456248,0.70842654,-0.04358831
1755645796015,-1249.58784607,161.46930590,161.02935649,-0.28670320,0.08591893,-0.22760648,0.69925329,0.08417543,0.70854253,-0.04389558
1755645796038,148.39323095,-19.88154804,-19.06503994,-0.06437823,0.01788139,0.01398257,0.69914369,0.08343508,0.70874816,-0.04373478
1755645796068,-4.05457079,0.47788704,1.07672572,-0.18848953,0.03651032,0.10553667,0.69901587,0.08057947,0.70930129,-0.04213590
1755645796078,-235.15252583,22.70655917,52.25841078,-0.99413351,0.41268848,1.13312583,0.69777914,0.07555909,0.71138537,-0.03641361
1755645796091,158.19256556,-18.18549019,-30.85622524,-0.21504272,0.22026344,0.60092915,0.69672973,0.07424733,0.71272898,-0.03274794
1755645796114,22.75314670,-2.07030425,-5.23611659,-0.12433800,0.13274879,0.29772157,0.69545759,0.07280501,0.71426886,-0.02929437
1755645796124,-42.86537555,0.04222551,12.68699767,-0.31550620,0.26338562,0.61766473,0.69431400,0.07111705,0.71567798,-0.02598987
1755645796134,-4.98630079,-2.28735002,2.01531989,-0.38529872,0.29757327,0.72182476,0.69312267,0.06922909,0.71713608,-0.02245293
1755645796145,14.16110985,-1.01791984,-3.09712064,-0.37878544,0.25140235,0.64943046,0.69199089,0.06712683,0.71853137,-0.01884859
1755645796156,3.19879992,-1.89224344,-0.10988156,-0.33373959,0.22600551,0.60494450,0.69096606,0.06530795,0.71976310,-0.01555164
1755645796167,-3.70877724,-1.78518024,1.93609077,-0.30871147,0.24537990,0.60629867,0.68976156,0.06357916,0.72113723,-0.01215637
1755645796180,6.62555410,-0.71117472,-1.74654074,-0.28856239,0.22558006,0.56413436,0.68849179,0.06176122,0.72255838,-0.00860232
1755645796191,-13.81449148,-3.05961499,5.69321221,-0.38627620,0.27327297,0.73738303,0.68719982,0.05973327,0.72399306,-0.00473106
1755645796202,3.36237178,-0.93612610,-0.19416932,-0.46108195,0.26718973,0.74663151,0.68586834,0.05717427,0.72547597,-0.00058725
1755645796203,-3551.47456266,-534.38123640,1294.74032750,-3.60340897,1.86777126,5.91769780,0.68459340,0.05447171,0.72687679,0.00385102
1755645796234,190.67991049,28.00354790,-69.20059058,-0.17763054,0.08901087,0.28332257,0.68331338,0.05174508,0.72824311,0.00820002
1755645796235,-8224.26329649,-1483.89825258,3226.37927303,-7.90644318,3.77678959,12.02363047,0.68053863,0.04581525,0.73107570,0.01721774
1755645796257,570.41472944,102.70423278,-223.17017411,-0.37287628,0.15376871,0.50622776,0.67887338,0.04184412,0.73271334,0.02260907
1755645796267,-45.60816727,-10.08992046,19.62168988,-0.62415125,0.27261472,0.92026747,0.67738593,0.03866095,0.73410368,0.02730243
1755645796279,15.48692938,2.03639285,-6.18707981,-0.54364725,0.22180853,0.69461689,0.67592605,0.03537188,0.73544562,0.03150487
1755645796302,16.23191903,3.25983860,-6.75966219,-0.31160933,0.09475528,0.35455303,0.67473561,0.03185069,0.73651635,0.03551131
1755645796312,-118.67896524,-30.92159128,52.10920816,-1.42906463,0.31262167,1.53030080,0.67276150,0.02427665,0.73817325,0.04362191
1755645796323,54.77620162,11.36264643,-23.54808068,-0.88251129,0.13176854,0.97078881,0.67173638,0.01933459,0.73891115,0.04905833
1755645796334,11.96316944,2.91996786,-4.36134294,-0.81551119,0.10075346,0.92911322,0.67084749,0.01484928,0.73946529,0.05416845
1755645796347,7.93711922,2.58587924,-2.75948264,-0.70314779,0.09654019,0.81503413,0.66983358,0.01045460,0.74006867,0.05926241
1755645796369,15.90584920,4.32730214,-7.17773910,-0.33801246,0.05504769,0.42955709,0.66877646,0.00673647,0.74067419,0.06398754
1755645796379,-142.69953424,-42.22739827,69.98929110,-1.08889845,0.17327035,1.28888529,0.66719959,0.00129197,0.74154055,0.07043197
1755645796390,76.52567104,23.08754930,-36.43306307,-0.60289656,0.00732967,0.57311467,0.66679431,-0.00217468,0.74158269,0.07372738
1755645796403,14.45360388,4.02478321,-7.12896145,-0.46726958,-0.04309943,0.45019330,0.66676124,-0.00507175,0.74131548,0.07651857
1755645796425,16.15153681,4.76102358,-7.73175221,-0.22553573,-0.03886857,0.27736031,0.66685510,-0.00753009,0.74089181,0.07954180
1755645796434,-147.08470241,-39.98786383,80.08930738,-0.77230985,-0.12088681,1.11079808,0.66678804,-0.01131441,0.74029946,0.08498471
1755645796446,73.23111140,20.73098340,-37.72177247,-0.40484245,-0.06065179,0.55687480,0.66671578,-0.01364225,0.73995072,0.08818674
1755645796458,17.08908618,4.62904591,-9.50111256,-0.34432900,-0.05487608,0.35420540,0.66675163,-0.01574266,0.73961597,0.09034740
1755645796469,-9.70219987,-2.18907139,5.70216508,-0.42047604,-0.08217583,0.32018887,0.66694791,-0.01799221,0.73917633,0.09206041
1755645796479,-7.07175224,-1.20840202,4.09111863,-0.44891316,-0.11295388,0.30883495,0.66729765,-0.02025922,0.73860591,0.09362002
1755645796490,10.64863429,3.65738230,-5.47779526,-0.44488050,-0.14982716,0.29975766,0.66791839,-0.02279504,0.73775190,0.09532864
1755645796501,-5.68369630,3.02536548,3.95692866,-0.65257923,-0.21625930,0.53452897,0.66865238,-0.02628634,0.73659491,0.09818837
1755645796513,7.97665101,7.00633765,-4.11725573,-0.70160488,-0.23484287,0.64655770,0.66941750,-0.03035565,0.73523282,0.10193841
1755645796523,-5.69002415,3.74647116,2.57306672,-0.59244485,-0.21128409,0.58768940,0.67003134,-0.03358447,0.73408132,0.10514131
1755645796525,-2656.38129657,-139.53476283,1480.64063444,-1.13191603,-0.82963115,1.30679368,0.67064337,-0.03465979,0.73329317,0.10638277
1755645796535,507.98002669,35.86362180,-282.89726654,-0.29969222,-0.18973726,0.34964171,0.67130750,-0.03612828,0.73236346,0.10809601
1755645796547,20.02853616,3.23936361,-11.53257089,-0.50714756,-0.19966489,0.42705968,0.67200136,-0.03906974,0.73120541,0.11057296
1755645796558,-7.53518588,1.10651310,3.23537697,-0.53606116,-0.22291206,0.37360218,0.67285837,-0.04217889,0.72991252,0.11273985
1755645796569,-16.90393598,1.81265885,7.77715477,-0.34992738,-0.23635233,0.29726998,0.67382163,-0.04401601,0.72867167,0.11430052
1755645796602,21.87759904,-1.67854762,-11.93429913,-0.04117663,-0.05254988,0.08254916,0.67447926,-0.04469337,0.72780722,0.11565845
1755645796603,-8553.95709508,905.76385652,4480.31436105,-0.79963610,-0.76509871,2.19796296,0.67479288,-0.04533308,0.72719514,0.11741682
1755645796625,624.57322089,-65.30673049,-327.76307975,-0.05373906,0.02242476,0.05860393,0.67438014,-0.04591614,0.72743845,0.11805267
1755645796636,-31.56637243,6.75030319,14.84141984,-0.21259058,-0.02219029,0.18200584,0.67425055,-0.04712791,0.72731197,0.11909011
1755645796659,19.00792480,-2.83418168,-9.53827621,-0.10597798,-0.03478676,0.08380046,0.67442176,-0.04832546,0.72691888,0.12003705
1755645796669,-122.62705222,23.93894508,54.10114191,-0.32277538,-0.17882638,0.02397086,0.67521264,-0.04987478,0.72606051,0.12015211
1755645796702,38.75741270,-7.59123600,-17.49542115,-0.04068797,-0.03163192,-0.05826922,0.67589587,-0.05054817,0.72553700,0.11918776
1755645796713,-189.66792558,42.03117506,73.68508158,-0.64420932,-0.51850777,-0.48466060,0.67925055,-0.05422016,0.72258151,0.11642519
1755645796736,74.24196828,-15.67073913,-30.56084268,-0.02561564,-0.25138398,-0.31351865,0.68283186,-0.05450962,0.71974087,0.11288243
1755645796747,-20.39482159,1.18182628,5.62459728,-0.08408304,-0.38732987,-0.38048677,0.68530588,-0.05495946,0.71766865,0.11084683
1755645796758,26.71755378,-7.27900061,-9.65332193,-0.08000301,-0.32969299,-0.17063346,0.68749726,-0.05543948,0.71569049,0.10982303
1755645796769,-4.89622723,-0.38877927,1.20149555,-0.14353011,-0.37666855,-0.12440474,0.68965234,-0.05621454,0.71365648,0.10915124
1755645796780,1.99090960,-1.90097118,-1.57801049,-0.15790257,-0.36369856,-0.06620299,0.69166540,-0.05706722,0.71169251,0.10879374
1755645796792,9.11245212,-2.14310661,-2.61981890,-0.14484633,-0.34197036,-0.00948714,0.69369031,-0.05792905,0.70965779,0.10873730
1755645796804,-8.49580358,-0.85959959,1.72496575,-0.17158612,-0.35756674,0.01309302,0.69572752,-0.05893283,0.70756602,0.10881389
1755645796814,-11.16629721,-1.56112255,3.20053966,-0.16873040,-0.42167161,0.05097621,0.69785468,-0.05981867,0.70535225,0.10908152
1755645796826,15.95474653,0.26158009,-3.22578208,-0.19395354,-0.32296628,0.12059825,0.69956535,-0.06096299,0.70344675,0.10979304
1755645796835,-23.12539922,-2.86725050,6.83591515,-0.27247615,-0.40310153,0.24382971,0.70108730,-0.06217551,0.70165294,0.11087809
1755645796870,17.62412295,-0.32697665,-5.54070006,-0.09222443,-0.09761496,0.09208570,0.70238824,-0.06378483,0.69994956,0.11248498
1755645796882,-122.93819654,-18.35520401,32.74450278,-0.99378884,-0.65266564,1.56177363,0.70410601,-0.06959849,0.69613147,0.12162136
1755645796891,78.22601723,3.44917931,-19.78037288,-0.79696512,-0.29488527,1.37582525,0.70393949,-0.07350362,0.69468653,0.12836290
1755645796902,-3.75027699,-4.03127022,1.21967933,-1.21506779,-0.27521174,1.54860334,0.70308850,-0.08024725,0.69315911,0.13695765
1755645796925,24.95503204,6.46693373,-7.36706611,-0.73086789,-0.13319094,0.58408767,0.70228246,-0.08832334,0.69168735,0.14341182
1755645796926,-2891.49520433,-608.67818079,691.73219718,-9.89286342,-1.85516052,7.11799318,0.70141076,-0.09722692,0.69001770,0.14981801
1755645796947,250.98171987,54.12865025,-61.20236713,-0.54905272,-0.09319147,0.42812408,0.70059146,-0.10288216,0.68905783,0.15422769
1755645796958,-32.03519953,-7.95792989,7.95665262,-0.78385761,-0.10897556,0.67896242,0.69973494,-0.10703660,0.68848026,0.15782619
1755645796971,13.74291134,1.72699932,-4.07025255,-0.52931493,-0.01818816,0.46293602,0.69861322,-0.11053008,0.68836022,0.16088157
1755645797013,9.23406241,2.19289704,-1.99099303,-0.20392127,-0.00911808,0.15165890,0.69734833,-0.11488380,0.68816555,0.16411949
1755645797037,-56.45612197,-9.02695493,8.80911632,-1.10536373,-0.15366562,0.46719322,0.69550982,-0.12814817,0.68632156,0.16972581
1755645797071,28.96651899,4.87251823,-5.16784020,-0.20485839,-0.03973768,0.03039256,0.69540014,-0.13161027,0.68564999,0.17023944
1755645797080,-237.47773226,-40.48086308,18.57585351,-1.62393196,-0.37708567,0.17418331,0.69545740,-0.13891797,0.68395311,0.17102327
1755645797104,78.71686858,15.17528625,-8.50978613,-0.13049779,-0.09571776,-0.10378418,0.69656646,-0.14047089,0.68281407,0.16978823
1755645797125,-3.83565248,0.95952695,-0.24508633,0.14165754,-0.07286891,-0.23939887,0.69824415,-0.13896224,0.68203801,0.16723864
1755645797137,-8.02883510,1.36029605,-0.15703273,0.20680842,-0.02276791,-0.43202244,0.69924698,-0.13771105,0.68190027,0.16462490
1755645797158,24.23986896,0.98614908,-1.09945722,0.13458015,0.00905399,-0.25573084,0.70005768,-0.13629796,0.68199533,0.16193973
1755645797170,-30.37466914,-1.92284212,-0.04129107,0.15627502,-0.00744737,-0.35505317,0.70073087,-0.13541500,0.68195325,0.15993368
1755645797194,19.18455272,1.05640460,-0.17817657,0.05765008,-0.01303378,-0.13669586,0.70138858,-0.13472320,0.68179685,0.15829332
1755645797203,-148.43249864,-10.17047867,-0.20381340,-0.31235879,-0.15424002,-0.11489174,0.70189634,-0.13609758,0.68111819,0.15778780
1755645797216,71.87808759,7.76105218,0.14325635,-0.48473251,-0.16131816,0.28904323,0.70187021,-0.13924834,0.68006963,0.15966658
1755645797225,-51.67895808,1.48913267,1.01713446,-0.81634035,-0.22439315,0.43922894,0.70163678,-0.14324841,0.67897010,0.16181880
1755645797236,24.67928171,-1.68048439,0.18938796,-0.42904863,-0.10271796,0.05973527,0.70162201,-0.14556527,0.67841542,0.16214137
1755645797248,11.26106303,4.19807917,0.13368507,-0.55849041,-0.15332624,0.29217449,0.70140424,-0.14886037,0.67751080,0.16386520
1755645797259,-7.74870840,0.71806617,-1.27569665,-0.74115371,-0.18191968,0.35443565,0.70103829,-0.15289965,0.67651933,0.16579688
1755645797271,8.10721388,-0.35532298,-0.89300643,-0.59539670,-0.12998677,0.34925008,0.70049418,-0.15653157,0.67572642,0.16792730
1755645797281,-21.77592949,-0.66528433,-0.70871443,-0.62602688,-0.19963307,0.61371021,0.70002242,-0.15956780,0.67475820,0.17090380
1755645797292,13.11712114,0.39926517,0.93989042,-0.71527223,-0.27850090,0.56180865,0.69983013,-0.16346604,0.67324037,0.17396566
1755645797305,15.61577195,0.70026386,0.88925774,-0.80725269,-0.29873410,0.43374238,0.69974450,-0.16867282,0.67131353,0.17676329
1755645797315,-16.10599037,-3.90592572,-0.78313645,-0.86665132,-0.33650033,0.41007868,0.69977841,-0.17322274,0.66954690,0.17891621
1755645797327,7.00023501,-0.93874065,-0.65059213,-0.69587138,-0.29433524,0.36566013,0.69985403,-0.17729358,0.66782504,0.18105532
1755645797337,-14.50587466,-3.37848663,0.00814767,-0.78464082,-0.35318672,0.49766127,0.69988365,-0.18113832,0.66609443,0.18349386
1755645797348,18.69752254,-1.59716391,0.37524426,-0.49162364,-0.20546648,0.32344251,0.69978259,-0.18389142,0.66494382,0.18530514
1755645797359,7.57841913,4.17718240,2.03051900,-0.71390801,-0.31398982,0.75344573,0.69923437,-0.18806778,0.66310697,0.18971279
1755645797370,-4.40113254,-1.15786114,-0.00888446,-0.77629075,-0.30755889,0.81286674,0.69845481,-0.19229856,0.66143078,0.19414292
1755645797382,1.65567195,1.36460909,0.56911554,-0.55062150,-0.23448660,0.52479336,0.69801008,-0.19543710,0.66009421,0.19713424
1755645797393,-3.90225251,0.75873731,0.28731445,-0.24884670,-0.13979151,0.17880276,0.69807542,-0.19684309,0.65930438,0.19814448
1755645797405,3.42062602,1.93396413,-0.57398042,0.03831839,-0.00094389,-0.05859938,0.69824525,-0.19661318,0.65929872,0.19779288
1755645797416,-3.45957685,0.04399513,0.65808308,0.27444224,0.05295904,-0.20807337,0.69872942,-0.19506258,0.65959794,0.19661727
1755645797453,13.44524462,-0.38723158,-0.53476535,0.05672735,0.00921326,-0.06305332,0.69918163,-0.19402731,0.65976608,0.19546654
1755645797484,-14.37339683,0.59984313,0.54139943,-0.10628480,-0.17866920,-0.08727035,0.70172687,-0.19569066,0.65696991,0.19410076
1755645797494,-120.89070040,8.90966612,3.18294135,0.09387083,-0.93326442,0.29461489,0.70579002,-0.19522131,0.65230359,0.19557384
1755645797539,36.18356661,-2.02718249,-1.16067498,-0.07712438,-0.16600634,0.01247057,0.70863467,-0.19693733,0.64860994,0.19585131
1755645797548,-168.28474600,19.34171419,-9.23654875,-0.78284729,-1.68790299,-0.39354879,0.71515688,-0.20053842,0.64084559,0.19404098
1755645797570,59.33078911,-5.93889291,1.38938523,-0.04697159,-0.57297184,-0.36367317,0.72182292,-0.20106685,0.63439966,0.18994966
1755645797593,2.24069384,0.04189168,-0.24468202,-0.08295132,-0.64336179,-0.48131812,0.72938406,-0.20201665,0.62703316,0.18443857
1755645797604,-8.78971052,1.29833283,-2.95971265,0.06955009,-0.87013453,-0.74319543,0.73440417,-0.20164803,0.62242145,0.18049963
1755645797617,8.26631322,-0.33006019,-0.12127378,0.14303702,-0.66658822,-0.62037362,0.73913316,-0.20074690,0.61822195,0.17659128
1755645797628,1.03654513,-0.33826438,-0.76871070,0.17187259,-0.68420991,-0.55375716,0.74331137,-0.19978441,0.61439037,0.17349024
1755645797683,5.66530293,-1.00504351,1.37036650,0.01445068,-0.15502117,-0.10482925,0.74761538,-0.19938413,0.61009628,0.17058647
1755645797693,-178.19052263,24.34571606,-55.13577247,-0.05421344,-5.31382454,-2.61664875,0.77147697,-0.19965791,0.58326147,0.15737239
1755645797726,44.75264824,-6.93200138,13.04458237,0.02202433,-1.44823513,-0.51480162,0.79071305,-0.19929450,0.55936559,0.14887816
1755645797749,-0.83989701,-1.46435567,-0.79200993,-0.23166369,-1.79901828,-0.47595418,0.80497175,-0.20190072,0.53912663,0.14352368
1755645797771,8.60792180,-0.15926566,2.90189555,-0.19188350,-1.16031009,-0.21646268,0.81341297,-0.20404982,0.52613116,0.14109930
1755645797782,-30.33455290,1.07957769,-13.82472383,-0.33938846,-2.96441058,-0.51127842,0.82374242,-0.20591645,0.50982690,0.13828726
1755645797794,12.47639822,-1.17499276,6.68748131,-0.06418262,-1.96714579,-0.41373192,0.83106070,-0.20629192,0.49831910,0.13586693
1755645797805,1.06284902,0.43673759,0.52232805,0.02589396,-1.80929674,-0.44945628,0.83754970,-0.20614562,0.48809657,0.13332751
1755645797817,5.28267356,-0.69602282,2.57672348,0.08427699,-1.57706804,-0.41131647,0.84330706,-0.20565681,0.47894958,0.13094187
1755645797839,7.50181512,-0.03140407,2.92745091,0.05177084,-0.89444443,-0.23266962,0.84942939,-0.20507957,0.46897652,0.12834760
1755645797850,-27.64967807,-3.13915981,-10.40341516,0.04538543,-2.45583889,-0.64430584,0.85718993,-0.20483449,0.45571499,0.12486835
1755645797860,11.30438355,-1.14695015,5.74823650,-0.10964237,-1.85399224,-0.46486414,0.86250715,-0.20541011,0.44598153,0.12242782
1755645797896,7.05510398,1.04461522,2.43580980,-0.05037646,-0.54493827,-0.14489856,0.86764368,-0.20631437,0.43619989,0.11982689
1755645797927,-11.86749021,-2.28390906,-4.21112148,-0.27999176,-2.75928957,-0.39629223,0.88764451,-0.21065424,0.39343090,0.11368436
1755645797949,-5.62518016,-2.08798885,1.08696982,-0.56309334,-3.48433405,-0.38007518,0.90258297,-0.21679196,0.35545166,0.10954154
1755645797960,-19.48698173,-0.80730115,-6.96381459,-0.39780252,-4.68841677,-0.78157558,0.91238507,-0.21899976,0.32943095,0.10520379
1755645797993,15.54873192,2.94329268,4.56690548,-0.05257410,-1.55983900,-0.29616461,0.92171673,-0.21987775,0.30338164,0.10025784
1755645798004,-58.13946734,-11.71466605,-7.74535291,-0.14763410,-4.78308377,-0.89398726,0.93013975,-0.22067497,0.27755299,0.09543031
1755645798017,36.25620065,6.82520376,6.20705593,-0.20853011,-2.40297098,-0.48616154,0.93475542,-0.22206170,0.26157323,0.09219734
1755645798039,9.02704267,2.48451293,1.13945637,-0.19775957,-1.28395832,-0.22063569,0.93817028,-0.22414806,0.24802747,0.08986963
1755645798050,-20.86471540,-6.97484316,-3.14998209,0.11875718,-2.25394842,-0.62023803,0.94180253,-0.22350083,0.23574345,0.08648933
1755645798061,3.75632997,3.09522813,1.55406854,0.09490056,-2.02200959,-0.63795854,0.94509433,-0.22295516,0.22411690,0.08282107
1755645798084,9.96442349,1.58924997,1.39127433,-0.01015652,-0.99360260,-0.32582437,0.94801132,-0.22307145,0.21274015,0.07909038
1755645798094,-56.80279180,-6.50895735,-10.18515841,-0.56288152,-4.21777169,-1.34603004,0.95237039,-0.22588586,0.19165129,0.07236023
1755645798117,24.61524071,2.97816362,4.09668415,-0.16281314,-1.17447435,-0.31729256,0.95480363,-0.22775007,0.17820356,0.06872723
1755645798127,-65.42620103,-7.40998501,-10.58987884,-0.48407935,-4.85818419,-1.04408952,0.95883760,-0.23019467,0.15366973,0.06345458
1755645798140,37.19324217,6.51548661,6.25232400,-0.30019836,-2.29869387,-0.54647837,0.96085703,-0.23213095,0.13884315,0.05992980
1755645798150,-16.02982993,7.46238503,-7.20448621,-1.03998265,-3.68741138,-0.82650717,0.96234693,-0.23743486,0.12003735,0.05571461
1755645798160,12.56538209,-6.53964057,0.22856605,-0.05075173,-3.00007933,-0.73277738,0.96429468,-0.23769623,0.10458694,0.05194081
1755645798172,7.11953390,1.17661360,2.27027177,0.19631681,-2.50174900,-0.50885854,0.96613030,-0.23659686,0.09057715,0.04909120
1755645798206,7.02589400,0.01562765,2.26137508,0.02962398,-0.73224867,-0.13181766,0.96748340,-0.23607992,0.07779941,0.04679098
1755645798216,-64.65325779,5.82123679,-15.91701738,-0.48213880,-6.30629350,-1.23491155,0.96914363,-0.23839418,0.04752920,0.04086340
1755645798227,36.33051752,-2.35402132,7.26273580,-0.46888100,-3.60774300,-0.50956599,0.96939074,-0.24104336,0.02714545,0.03798436
1755645798239,10.25057829,-1.35183482,3.64428525,-0.32652147,-2.74919426,-0.24597519,0.96929620,-0.24287188,0.01174997,0.03660690
1755645798251,4.33947049,-0.40692236,1.72206576,-0.30130020,-2.09855962,-0.31942201,0.96897950,-0.24469475,-0.00094632,0.03467439
1755645798262,0.96751335,-0.36836081,0.52323347,-0.27917262,-2.27143122,-0.47568427,0.96858347,-0.24624416,-0.01355276,0.03203434
1755645798283,3.49488524,-0.29703020,1.04862785,-0.10864118,-1.15755604,-0.27697684,0.96812306,-0.24741748,-0.02605437,0.02904299
1755645798285,-468.04962061,52.03911331,-91.88102367,-0.79709084,-22.96300648,-5.95941103,0.96758207,-0.24793559,-0.04098032,0.02516938
1755645798295,59.43530230,-4.94312038,12.71332868,0.02157964,-2.33210476,-0.57151774,0.96708835,-0.24782230,-0.05322387,0.02216891
1755645798306,1.62518957,-0.16586412,0.74607174,0.01015803,-2.25443765,-0.48623901,0.96638403,-0.24776541,-0.06584872,0.01944597
1755645798317,2.27868335,-0.08066717,1.70532591,0.02744204,-2.41665966,-0.50434456,0.96549524,-0.24761722,-0.07889869,0.01672251
1755645798328,2.12829245,0.84837264,2.14136555,-0.02248828,-2.89004414,-0.60560532,0.96412678,-0.24773754,-0.09436042,0.01348252
1755645798339,2.13618760,-0.03772725,0.93836494,-0.08982016,-2.63206035,-0.48195176,0.96245889,-0.24824502,-0.10923156,0.01075949
1755645798361,-0.92777261,-0.53427958,-1.11628921,-0.02698582,-1.37087066,-0.23608218,0.96061285,-0.24853647,-0.12403697,0.00820981
1755645798362,522.68343207,171.76991628,515.23726664,-0.33154599,-24.61982185,-3.48356367,0.95800201,-0.24878513,-0.14250183,0.00559713
1755645798395,-24.10219240,-8.05087091,-23.98484169,0.02695452,-0.65940319,-0.07208399,0.95645199,-0.24834307,-0.15331605,0.00441496
1755645798405,26.97274306,7.94735392,26.62945750,0.33174030,-6.33220865,-0.79933981,0.95110591,-0.24663461,-0.18592692,0.00029836
1755645798429,-9.45747251,-2.90970513,-9.39192598,0.10116832,-1.41823986,-0.12153337,0.94803182,-0.24545600,-0.20244941,-0.00111751
1755645798430,1631.38727090,288.87539603,1639.53233409,2.28327231,-37.62853093,-3.34967988,0.94243135,-0.24385771,-0.22878939,-0.00346228
1755645798452,-102.77944396,-18.47277945,-102.43263822,0.13021445,-2.23807349,-0.26635390,0.93661182,-0.24245790,-0.25284868,-0.00632559
1755645798461,9.95058405,3.63051706,15.26474496,0.23969943,-3.61734126,-0.46508034,0.93188286,-0.24127139,-0.27075452,-0.00862774
1755645798473,-3.80004735,-0.35408831,-5.11201192,0.23816126,-2.82583115,-0.36572249,0.92734090,-0.23990196,-0.28700304,-0.01073064
1755645798494,-4.69109806,-1.26230759,-6.19070168,0.12917961,-1.41113646,-0.18150049,0.92290928,-0.23853266,-0.30196109,-0.01265454
1755645798495,1227.17703913,345.42428622,1363.33641516,2.93216971,-22.65702269,-3.21084730,0.91770802,-0.23633353,-0.31895386,-0.01506268
1755645798506,-159.68629996,-44.91965765,-176.66881595,0.31513624,-2.41811345,-0.30831294,0.91343469,-0.23461604,-0.33213258,-0.01674299
1755645798518,-0.35010165,0.63563731,2.15703077,0.32809480,-2.43314733,-0.32218014,0.90858985,-0.23269669,-0.34636649,-0.01862774
1755645798529,1.54870188,1.59458626,3.00225258,0.32535354,-2.60211924,-0.33591538,0.90366398,-0.23098858,-0.36002761,-0.02039130
1755645798539,3.24791258,0.45999617,5.03014423,0.42950139,-2.94676480,-0.30633276,0.89777223,-0.22869075,-0.37579281,-0.02203018
1755645798550,-1.56320790,-1.07958803,-2.61203870,0.48895038,-2.63775586,-0.23763506,0.89226491,-0.22602597,-0.39016858,-0.02332529
1755645798561,-0.25326592,1.23114935,1.13011865,0.43567647,-2.54194543,-0.21521010,0.88670140,-0.22367331,-0.40389508,-0.02448742
1755645798573,-1.60503072,-1.21387841,-1.46301122,0.38488385,-2.27739039,-0.14059382,0.88105682,-0.22142174,-0.41721781,-0.02530989
1755645798596,-5.33571584,-1.46591570,-6.45369302,0.19019336,-1.13324005,-0.08562818,0.87536512,-0.21926305,-0.43008009,-0.02628177
1755645798606,19.88177828,9.16244704,37.23448139,0.47456822,-3.34584870,-0.28884886,0.86741645,-0.21686648,-0.44697662,-0.02774046
1755645798607,527.64818102,186.70182142,960.77634181,2.08251797,-11.62773989,-0.40702114,0.86296622,-0.21520047,-0.45627882,-0.02806608
1755645798630,-47.28334205,-17.86829135,-87.21900239,0.16317053,-0.85847413,-0.04624795,0.85827421,-0.21338111,-0.46585080,-0.02858174
1755645798640,21.82637095,8.46071895,37.23390434,0.76946462,-2.79150998,-0.23316387,0.85146616,-0.20953379,-0.47980835,-0.02974756
1755645798641,392.08965547,186.84400457,771.13104474,3.05011346,-9.59615653,-1.02948606,0.84718305,-0.20678869,-0.48844489,-0.03067410
1755645798662,-44.39130625,-20.00530611,-82.77481351,0.28832230,-0.83477819,-0.07020731,0.84280049,-0.20377572,-0.49716833,-0.03140777
1755645798674,8.88235333,4.54353026,20.37438549,0.51279956,-1.76690064,-0.11753509,0.83750630,-0.20087840,-0.50715131,-0.03207184
1755645798696,-4.41351646,-2.62570387,-10.36464510,0.21176267,-0.72464817,-0.02252711,0.83305664,-0.19848548,-0.51533984,-0.03232640
1755645798707,29.25419884,9.76040470,55.60745981,0.63726668,-3.04160141,-0.28846056,0.82333822,-0.19501238,-0.53191657,-0.03389851
1755645798742,-9.64049058,-3.32981053,-18.60844150,0.11855751,-0.45320623,-0.06457644,0.81857666,-0.19292577,-0.53989300,-0.03503505
1755645798752,76.37260506,26.71207412,146.05764335,1.33190217,-5.00980284,-0.56551867,0.80326351,-0.18639945,-0.56444103,-0.03780609
1755645798798,-15.59884823,-5.38012354,-30.04206536,0.21860313,-0.58931027,-0.01147821,0.79481274,-0.18142623,-0.57784784,-0.03806722
1755645798806,75.12531907,27.52413276,147.02265564,0.99602175,-4.15336888,-0.69975375,0.78175087,-0.17694413,-0.59653800,-0.04121611
1755645798830,-24.98112379,-8.87677782,-49.05093317,0.37953437,-1.03147534,-0.04108085,0.77348012,-0.17256051,-0.60845154,-0.04169060
1755645798852,-0.08401182,-0.17509011,0.25202373,0.41571145,-0.96353745,0.02026849,0.76605294,-0.16798768,-0.61905045,-0.04146764
1755645798863,-1.44536139,-1.75848746,3.23162508,0.27416387,-0.90049325,-0.01613182,0.76224832,-0.16643866,-0.62413824,-0.04155879
1755645798888,-4.63570595,-1.45321518,-10.12789064,0.06541580,-0.33945053,-0.05682859,0.75885335,-0.16561115,-0.62843229,-0.04227767
1755645798913,2.13638967,0.33653148,6.30367880,0.17681410,-0.63978257,-0.11404759,0.75253520,-0.16339213,-0.63646156,-0.04370897
1755645798925,10.02686191,-0.27696623,28.36278485,0.42711547,-1.14145005,-0.15248336,0.74737101,-0.16091486,-0.64308197,-0.04459337
1755645798952,-6.72170673,-0.76109265,-18.10690022,0.11854166,-0.26454591,-0.04549883,0.74463165,-0.15933826,-0.64660043,-0.04519851
1755645798953,1016.29156019,-2.28618918,3060.13054717,3.64763781,-6.35012624,-2.02166118,0.74095856,-0.15660253,-0.65136302,-0.04671475
1755645798997,-34.99459335,-0.00017163,-105.01117330,0.09543587,-0.16783084,-0.10281930,0.73798553,-0.15449817,-0.65506369,-0.04898192
1755645799007,27.80384411,8.35009010,82.50298501,0.66964836,-1.16495608,-0.88438801,0.73306544,-0.15108296,-0.66100497,-0.05349230
1755645799029,-10.04916739,-2.15556040,-32.72858982,0.35503269,-0.31412149,-0.19551888,0.73064047,-0.14728411,-0.66436607,-0.05558435
1755645799055,-2.29016435,-0.93072097,-5.36653932,0.15768495,-0.11618696,-0.08602478,0.72959728,-0.14524997,-0.66586488,-0.05669407
1755645799064,11.42925832,4.18301483,32.18932989,0.33109616,-0.34658071,-0.52067237,0.72817720,-0.14364416,-0.66754580,-0.05921933
1755645799075,-5.43922437,-0.54062617,-16.53905188,0.21477425,-0.16995941,-0.29335537,0.72746684,-0.14253807,-0.66842109,-0.06073011
1755645799109,-2.23446594,-0.98926371,-6.05077715,0.06545146,-0.02535145,-0.02989761,0.72724393,-0.14141885,-0.66885460,-0.06124136
1755645799149,1.04205495,0.37295804,1.65099592,0.22511755,0.00784457,0.04857614,0.72834352,-0.13686022,-0.66869575,-0.06025769
1755645799188,0.60715488,-0.36778609,1.39324344,0.32481627,0.07245845,-0.05790984,0.73070986,-0.13051006,-0.66727918,-0.06138983
1755645799208,3.22103917,0.90719658,8.50518074,0.09811937,0.13052442,-0.30677758,0.73178294,-0.12955340,-0.66600657,-0.06438091
1755645799231,-2.61804700,-0.87867058,-8.71639260,0.06090641,0.11453498,-0.11652434,0.73297886,-0.12885602,-0.66469514,-0.06571511
1755645799253,0.00622216,0.48786607,-0.77629254,0.13419540,0.05990788,-0.09138403,0.73377065,-0.12732619,-0.66401219,-0.06675689
1755645799265,3.88856556,2.59543463,3.34439112,0.28746386,-0.01478666,-0.02988184,0.73396133,-0.12568765,-0.66409648,-0.06692722
1755645799285,-3.56689962,-1.61450325,-4.30567002,0.16603365,-0.01609911,0.07619151,0.73416918,-0.12401071,-0.66425908,-0.06615768
1755645799297,3.34127157,-0.00222225,4.88412479,0.24389332,-0.02735573,0.13165155,0.73433019,-0.12260832,-0.66441638,-0.06540069
1755645799309,-1.04693255,-0.16319291,-1.49544310,0.16479941,-0.00150997,0.06682926,0.73452200,-0.12161952,-0.66442544,-0.06499971
1755645799321,0.32386638,-0.28866800,-1.31810410,0.10535660,0.02975352,0.03424477,0.73481541,-0.12096631,-0.66424096,-0.06478739
1755645799331,2.49561567,0.95836222,2.33650592,0.07478813,0.07841173,0.03508859,0.73523788,-0.12059985,-0.66385675,-0.06461546
1755645799353,-3.05961866,-0.61340353,-3.66134672,0.04275544,0.03974855,0.01905095,0.73573665,-0.12012099,-0.66341156,-0.06440209
1755645799364,19.82862829,4.09984077,16.69349201,0.49659203,0.15021537,0.25799862,0.73705550,-0.11736491,-0.66257787,-0.06297020
1755645799376,-9.82921562,-2.67186610,-10.56841675,0.42471948,0.07103382,0.21809629,0.73790555,-0.11494400,-0.66217297,-0.06172705
1755645799386,0.81561645,0.08536062,0.92180536,0.42247042,0.08912582,0.25418500,0.73878561,-0.11270491,-0.66170061,-0.06037987
1755645799421,-3.45160614,-0.65825578,-2.66990013,0.08967103,0.03140095,0.08040050,0.73961170,-0.11116705,-0.66116208,-0.05900100
1755645799430,70.72853377,5.23619923,41.79873043,0.91926143,0.60066206,0.94260191,0.74306200,-0.10689249,-0.65836900,-0.05461790
1755645799463,-17.22483520,-1.21339832,-10.98912951,0.16230768,0.14236979,0.13377271,0.74572164,-0.10416572,-0.65597719,-0.05237052
1755645799486,3.63986959,0.57969459,1.10190592,0.16681106,0.17993641,0.13227531,0.74785929,-0.10228909,-0.65395291,-0.05088242
1755645799496,11.49473627,-3.02617892,3.75780435,0.20045464,0.26105730,0.40403348,0.74929742,-0.10126677,-0.65262151,-0.04882185
1755645799510,-4.33733022,-1.68863994,-2.39635166,0.09738133,0.26680433,0.36665946,0.75114739,-0.10059484,-0.65078056,-0.04629190
1755645799519,7.60910848,-1.10478256,0.18066635,-0.00111740,0.34571990,0.28072477,0.75263138,-0.10060010,-0.64915568,-0.04497249
1755645799543,-9.72131567,0.95981708,-2.86937183,0.01541375,0.09111026,0.05341525,0.75363566,-0.10041513,-0.64806236,-0.04433151
1755645799553,20.26965779,-2.66918106,3.26698804,0.18535186,0.20625931,0.20395708,0.75461802,-0.09956251,-0.64711356,-0.04339331
1755645799564,-4.25173017,0.04267418,-1.36591657,0.16091385,0.14563084,0.21981765,0.75548876,-0.09867749,-0.64631259,-0.04218431
1755645799586,-5.97990823,0.95617274,-1.09878323,0.05066744,0.06034944,0.07617765,0.75617187,-0.09812268,-0.64565177,-0.04135017
1755645799587,1779.51769980,-91.84998792,52.99353031,0.07069387,1.50300085,0.01563706,0.75720489,-0.09806612,-0.64444937,-0.04133766
1755645799610,-125.72314260,7.24697258,-4.61004675,-0.02677780,0.08195701,-0.00187898,0.75794515,-0.09836603,-0.64353145,-0.04135870
1755645799620,14.56107691,0.36993109,-1.52207867,-0.07550067,0.15273844,-0.00549258,0.75856622,-0.09875864,-0.64273721,-0.04138726
1755645799631,-1.24724067,0.95704002,-0.83635469,-0.03661972,0.12944336,-0.03548360,0.75913712,-0.09896188,-0.64201880,-0.04158420
1755645799642,2.24679959,-0.98969208,-1.52312022,0.10001981,0.11244336,-0.00049469,0.75970406,-0.09843677,-0.64142847,-0.04158679
1755645799652,-0.28357613,-0.84413633,-0.87018343,0.09409270,0.09960624,-0.00430454,0.76022222,-0.09792867,-0.64089060,-0.04161004
1755645799665,-3.41408292,0.02027369,0.02502925,0.00216411,0.08688068,-0.02685301,0.76067580,-0.09791504,-0.64034325,-0.04177921
1755645799677,1.80025376,0.27785903,-1.19843650,-0.07043972,0.10061034,-0.06437959,0.76110058,-0.09833063,-0.63974965,-0.04215905
1755645799687,4.74395854,-0.10521486,-2.34555702,-0.03022381,0.11412777,-0.02379526,0.76154922,-0.09848024,-0.63918471,-0.04227684
1755645799688,790.71501043,7.15275750,-229.88090034,0.18545039,0.54823988,0.02026016,0.76200987,-0.09830406,-0.63866389,-0.04225759
1755645799699,-144.63595424,-0.68853861,40.85374402,0.10824476,0.09295777,0.13024924,0.76251941,-0.09774660,-0.63818515,-0.04158681
1755645799720,-8.80269845,-0.22562177,2.61113080,0.08465343,0.02750179,0.11210154,0.76294755,-0.09683658,-0.63788951,-0.04038172
1755645799722,2013.04815228,-99.13407555,-758.17354582,2.30687754,0.39044830,2.72386137,0.76351515,-0.09510642,-0.63759667,-0.03833882
1755645799732,-281.33759896,13.25905323,104.73887126,0.26267676,0.05121334,0.24646236,0.76395217,-0.09379304,-0.63734061,-0.03710651
1755645799753,-8.99517212,0.36594008,3.24681773,0.10582587,0.01529277,0.10300563,0.76427343,-0.09268186,-0.63718003,-0.03602495
1755645799754,2280.16047937,-234.43479915,-1009.35397450,1.56577041,0.32399194,2.08342573,0.76466186,-0.09158582,-0.63695324,-0.03456655
1755645799764,-289.95734728,28.33569521,127.32026156,0.15154237,0.04659767,0.23283498,0.76500464,-0.09081296,-0.63671559,-0.03337909
1755645799817,-6.38307731,0.77002513,2.90743886,0.01483660,0.00855474,0.04054409,0.76528488,-0.09042127,-0.63648975,-0.03230873
1755645799844,27.84892367,-4.88628069,-15.14922942,0.20695618,0.06572630,0.38673562,0.76656268,-0.08759632,-0.63559258,-0.02702979
1755645799887,-10.00405615,1.17849704,4.77612047,0.01246472,0.04421322,0.12043303,0.76746306,-0.08732958,-0.63464642,-0.02445252
1755645799898,110.45685844,-32.62389871,-73.60801393,-0.42058310,0.26775313,-0.00698464,0.76838521,-0.08957970,-0.63321394,-0.02448989
1755645799931,-28.58268696,9.31108242,18.39387145,0.18984137,-0.02467547,0.10270308,0.76846092,-0.08642833,-0.63362355,-0.02278502
1755645799953,1.25739377,-0.92527408,-1.55568509,0.21045742,-0.08262285,0.11993040,0.76799945,-0.08408173,-0.63454480,-0.02144779
1755645799966,4.37027293,-1.55076740,-4.50634339,-0.04035859,-0.09749801,-0.05825582,0.76744895,-0.08433801,-0.63516391,-0.02181772
1755645799988,-16.27284421,3.94635873,11.23263419,-0.03578725,-0.06723071,-0.08688531,0.76676822,-0.08472988,-0.63590009,-0.02276911
1755645799999,30.15640679,-5.71420127,-22.99109047,-0.03894054,-0.15929080,-0.07779111,0.76601120,-0.08494210,-0.63676822,-0.02319307
1755645800022,-16.03448629,3.62422972,11.86971782,0.02165631,-0.09365393,0.02452538,0.76513948,-0.08468981,-0.63785929,-0.02290735
1755645800031,122.02615781,-19.60438062,-93.34558282,0.21116760,-0.43341588,0.27040464,0.76361643,-0.08371843,-0.63985300,-0.02166349
1755645800043,-58.17259806,11.69258429,43.76281545,0.14771773,-0.20965535,0.23488094,0.76271921,-0.08285429,-0.64107949,-0.02028944
1755645800065,-17.19419407,2.51169192,13.22717201,0.06462842,-0.08881869,0.12931167,0.76200077,-0.08213368,-0.64206981,-0.01884761
1755645800076,85.99816487,1.57521660,-69.09977368,-0.42644871,-0.40630499,-0.22199309,0.75988349,-0.08441518,-0.64424355,-0.02003528
1755645800089,-44.46561314,7.18122464,35.52933452,-0.17093154,-0.31052544,-0.17827034,0.75808382,-0.08548350,-0.64618433,-0.02114947
1755645800100,6.11034565,-2.44892601,-3.71346061,0.35439923,-0.34616402,0.34783713,0.75670074,-0.08349887,-0.64812285,-0.01920158
1755645800109,10.84629424,8.93015662,-8.02877995,-0.15983606,-0.35199784,0.24740866,0.75522584,-0.08425010,-0.64977724,-0.01803876
1755645800121,-17.64201835,0.77398643,13.91879680,-0.15400941,-0.26396403,0.05595194,0.75383766,-0.08512795,-0.65128183,-0.01771983
1755645800132,5.13095359,3.62244472,-3.56492311,-0.00288909,-0.29885503,-0.06474469,0.75241723,-0.08514369,-0.65291059,-0.01807269
1755645800143,-1.49032135,1.62832764,2.62794525,0.02882855,-0.31214343,-0.04015614,0.75085570,-0.08497649,-0.65472102,-0.01830559
1755645800154,4.24178000,2.50682530,-1.84444893,-0.03560121,-0.32620228,0.09363795,0.74934959,-0.08516340,-0.65643359,-0.01781400
1755645800165,-5.73739713,-1.09549200,4.85622324,-0.05504389,-0.27882026,0.20723206,0.74798285,-0.08546889,-0.65798104,-0.01666386
1755645800166,4229.97600368,1097.84581164,-3036.77324575,0.16122884,-2.18235730,2.09055940,0.74677368,-0.08536409,-0.65939957,-0.01530499
1755645800177,-519.85080030,-134.34329033,373.02515038,0.06791946,-0.20245372,0.18368388,0.74588530,-0.08500412,-0.66047258,-0.01433147
1755645800188,-4.87211947,-1.60348819,3.39891230,0.16211475,-0.17418419,0.14532752,0.74514534,-0.08410438,-0.66143930,-0.01352490
1755645800198,12.76525330,2.40894887,-9.09040442,0.38954855,-0.18809728,0.15766290,0.74452260,-0.08209821,-0.66240800,-0.01271294
1755645800210,-8.23371121,-3.16504570,7.14852492,0.45667397,-0.20981981,0.08609543,0.74374788,-0.07949516,-0.66360397,-0.01222219
1755645800220,1.82802917,0.71240384,-0.05095389,0.49991416,-0.27414670,0.10212542,0.74269810,-0.07674564,-0.66511178,-0.01166050
1755645800243,-17.61062954,-3.90369084,12.29668910,0.16914484,-0.14176855,0.04288926,0.74147418,-0.07485121,-0.66669959,-0.01118014
1755645800244,3906.68296151,1097.31003878,-2417.98351681,3.05244342,-2.63048310,1.51673403,0.73993991,-0.07256188,-0.66867245,-0.01004259
1755645800254,-607.74091332,-170.83796338,377.77927136,0.34489944,-0.22980101,0.13816289,0.73914570,-0.07097534,-0.66972953,-0.00940704
1755645800287,-11.41509168,-3.18071875,7.04311543,0.14250944,-0.08547435,0.03147469,0.73806856,-0.06856693,-0.67117405,-0.00887512
1755645800289,6010.31437516,1471.55221426,-3487.50435495,2.87160655,-4.03911443,0.84876770,0.73533570,-0.06626965,-0.67440534,-0.00819611
1755645800321,-303.63470343,-74.54582849,176.37020113,0.00966898,-0.08649066,0.01531457,0.73409648,-0.06611688,-0.67577189,-0.00795414
1755645800322,6679.13994454,1468.83863221,-3659.54036275,-0.75111697,-2.93190201,-0.98968418,0.73228606,-0.06660511,-0.67767763,-0.00859743
1755645800356,-252.32461187,-55.81312314,138.57701757,-0.03652477,-0.08998572,-0.02485866,0.73078800,-0.06723333,-0.67922538,-0.00902500
1755645800367,136.18318743,20.42553458,-67.90601035,-0.33918053,-0.63512910,-0.22821305,0.72758671,-0.06896315,-0.68246454,-0.01018889
1755645800400,-40.39979591,-6.42807545,20.45130195,-0.06567410,-0.09156255,-0.03863201,0.72601178,-0.07007633,-0.68401653,-0.01084370
1755645800411,131.04087911,10.23467506,-58.08766813,-0.25771517,-0.58855761,-0.29342472,0.72278347,-0.07149376,-0.68725360,-0.01245754
1755645800433,-58.00088209,-5.56351216,26.72670247,-0.01794274,-0.16265495,-0.01416810,0.72107143,-0.07168934,-0.68902653,-0.01261197
1755645800443,73.68675256,0.20013668,-29.66160573,0.02831608,-0.39876143,0.04281010,0.71919775,-0.07154917,-0.69100040,-0.01240006
1755645800455,-34.55080067,-3.15821833,14.82620384,-0.04225600,-0.22188822,0.03580791,0.71789460,-0.07180271,-0.69233173,-0.01218521
1755645800477,-19.36247059,-0.15190697,7.87112604,-0.06893833,-0.07374249,-0.02690396,0.71702608,-0.07256448,-0.69314659,-0.01248250
1755645800489,26.45062222,-2.35332632,-9.44011052,-0.15374104,-0.15963675,-0.18016694,0.71602866,-0.07344849,-0.69406450,-0.01351846
1755645800500,0.08191576,-0.31368793,0.76131106,-0.16719051,-0.17760125,-0.24948293,0.71488987,-0.07442655,-0.69510347,-0.01497794
1755645800510,14.44426587,-0.70468308,-3.95607457,-0.16128599,-0.24847864,-0.28819173,0.71359011,-0.07521685,-0.69632101,-0.01639007
1755645800521,-4.57057906,-0.42467437,2.79408227,-0.03587124,-0.23404008,-0.10780896,0.71233235,-0.07540876,-0.69757313,-0.01696685
1755645800532,-3.00012301,0.03833274,1.34618511,-0.02064853,-0.21434665,-0.02729881,0.71111761,-0.07552646,-0.69879490,-0.01712246
1755645800544,1.59593611,-0.95262995,0.45575786,-0.03585741,-0.18722248,0.02844733,0.71006825,-0.07572726,-0.69984335,-0.01696315
1755645800555,1.08730429,-1.10628341,0.16261404,-0.10369899,-0.16046006,0.04642434,0.70913385,-0.07630279,-0.70073390,-0.01670550
1755645800557,1197.77989690,-140.15836463,-333.43601026,-0.70575426,-0.62289371,-0.16861735,0.70833280,-0.07711441,-0.70145023,-0.01689941
1755645800578,-148.18854634,16.94500932,41.68956368,-0.04478445,-0.06977767,-0.04445136,0.70755132,-0.07758017,-0.70217592,-0.01736170
1755645800588,39.97853699,-5.33085735,-9.26913947,-0.11520432,-0.13453449,-0.11588836,0.70677530,-0.07817923,-0.70287550,-0.01796432
1755645800590,2305.08975652,-319.01514043,-542.08179518,-0.84220720,-0.88958089,-0.39638047,0.70593423,-0.07889511,-0.70363164,-0.01830124
1755645800600,-376.61166204,51.36307210,90.66394467,-0.11192704,-0.13532553,-0.01178986,0.70516519,-0.07947713,-0.70433533,-0.01836255
1755645800621,-20.62544707,2.76572998,4.74403113,-0.02439778,-0.05847650,-0.00971296,0.70453514,-0.07972720,-0.70493472,-0.01846211
1755645800623,2648.19474817,-420.37750656,-570.20376919,-0.05074953,-0.54001821,0.11919446,0.70404615,-0.07977288,-0.70542073,-0.01835483
1755645800633,-420.50450765,64.69146215,92.05562552,0.02593006,-0.06578497,0.05153438,0.70372853,-0.07963934,-0.70575953,-0.01808943
1755645800644,-5.55139052,0.85313003,1.55594263,0.06305792,-0.05107236,0.02558207,0.70349384,-0.07929883,-0.70603532,-0.01795129
1755645800656,4.69588939,-2.28084348,0.20714454,0.13097113,-0.03850460,0.09443341,0.70336430,-0.07851300,-0.70626634,-0.01738469
1755645800666,2.97047455,-1.73387843,0.91496466,0.20954506,-0.02319661,0.11122702,0.70337861,-0.07737098,-0.70639277,-0.01677850
1755645800678,-0.40682463,0.15874838,0.82435090,0.18614573,0.00154973,0.02764706,0.70350265,-0.07634718,-0.70638424,-0.01662644
1755645800712,-16.60616793,3.67634524,2.47068777,0.03553953,0.00574785,-0.01284248,0.70366178,-0.07573945,-0.70628595,-0.01684605
1755645800723,155.36543529,-34.46162976,-22.35586954,0.50761063,0.11421086,-0.24687572,0.70458469,-0.07284607,-0.70563495,-0.01825324
1755645800734,-95.99401520,22.42223480,14.99497256,0.19516442,0.07697823,-0.20841067,0.70507881,-0.07179218,-0.70521927,-0.01937866
1755645800744,5.46639387,0.01950379,-0.25393331,0.22358657,0.07828873,-0.19120841,0.70556084,-0.07066307,-0.70482391,-0.02034426
1755645800757,-19.40158118,4.43327357,2.84756578,0.18289700,0.08669425,-0.12532683,0.70620223,-0.06950167,-0.70427340,-0.02114008
1755645800768,7.51978901,-0.89874744,-0.78027899,0.19873116,0.08981876,-0.13051119,0.70677935,-0.06840865,-0.70377940,-0.02185790
1755645800778,-0.35966108,2.97472324,0.20241319,0.07849658,0.06470716,-0.23627809,0.70712419,-0.06798870,-0.70343322,-0.02312198
1755645800789,-4.08770339,1.07723435,1.36734626,0.04302937,0.05272559,-0.12261527,0.70741027,-0.06775419,-0.70314586,-0.02379024
1755645800801,1.63888895,1.10875910,-0.01128097,-0.04218151,0.03087219,-0.09763363,0.70754663,-0.06800095,-0.70296526,-0.02436139
1755645800812,15.08256444,0.44376557,-1.29942083,-0.12795383,0.04133306,-0.09518579,0.70768624,-0.06870469,-0.70273793,-0.02488492
1755645800824,-4.52953975,2.25887587,0.67130682,-0.18524174,0.04758184,-0.07835925,0.70784027,-0.06978836,-0.70245957,-0.02534332
1755645800825,3045.53838267,120.63289528,-304.97426894,-2.89211792,0.40915251,-2.56220348,0.70785788,-0.07239127,-0.70209134,-0.02764930
1755645800865,-156.66462985,-3.12911970,15.69375155,-0.03355726,0.02188122,-0.07108521,0.70816123,-0.07305234,-0.70166028,-0.02904968
1755645800898,23.63793816,3.88060403,-2.10636094,0.35395517,0.07034067,0.22330510,0.71003882,-0.06717669,-0.70049262,-0.02534281
1755645800931,9.14410142,3.77669884,-0.48969746,0.43246793,0.03768180,0.11238873,0.71134601,-0.06008421,-0.69987464,-0.02349964
1755645800978,-14.51877024,-2.99554960,1.18268309,0.21863425,-0.13089179,-0.02918772,0.70867204,-0.05489165,-0.70298332,-0.02419285
1755645801012,19.12992457,3.89218536,-2.80736602,-0.11661716,-0.14577291,-0.01003237,0.70605018,-0.05686831,-0.70545417,-0.02436290
1755645801048,-12.26606213,-2.10571806,0.61755317,0.11961828,-0.04801952,0.20543975,0.70548204,-0.05474509,-0.70630652,-0.02071634
1755645801078,2.86392636,-0.56334762,-1.61609573,-0.16189547,0.01494063,-0.11511991,0.70546075,-0.05718971,-0.70608091,-0.02245465
1755645801116,-12.41890106,-2.63965505,1.99800473,-0.29208620,0.08796342,-0.13928726,0.70658111,-0.06279776,-0.70439202,-0.02512897
1755645801150,15.43094330,1.04804807,-3.42952675,-0.33049280,0.18229793,-0.11500342,0.70903669,-0.06835004,-0.70132941,-0.02706102
1755645801169,25.85583625,-3.72964364,-7.47312567,-0.39490948,0.24759003,-0.11818472,0.71090171,-0.07202270,-0.69902682,-0.02816014
1755645801201,-28.08788712,-1.13605412,6.32238236,-0.11099357,0.07695181,-0.08924571,0.71189459,-0.07384299,-0.69776481,-0.02962377
1755645801236,-2.49819733,-0.32243100,0.61913416,0.05346101,0.01708202,0.04452942,0.71231104,-0.07291812,-0.69746929,-0.02885341
1755645801245,242.96847168,-20.76868375,-72.72731488,0.00870425,0.19150834,0.47636868,0.71328250,-0.07287721,-0.69656921,-0.02661448
1755645801267,-88.64266034,6.18662276,25.41901641,-0.04250751,0.06978382,0.00684894,0.71398306,-0.07334267,-0.69580507,-0.02653948
1755645801291,-2.89259310,-1.18014417,0.16245411,0.02487993,0.01059525,0.06457292,0.71416668,-0.07304286,-0.69567740,-0.02576138
1755645801302,28.99836650,-7.54824085,-11.64139016,-0.19088119,0.04371782,0.10147014,0.71430075,-0.07400681,-0.69545662,-0.02524896
1755645801324,-28.12583384,4.14241307,9.51592714,-0.07436617,0.03744260,0.03396572,0.71462945,-0.07482484,-0.69504476,-0.02487533
1755645801334,49.91295801,-12.43131142,-18.87669342,-0.16542649,0.09773982,0.07291538,0.71503399,-0.07566024,-0.69455117,-0.02450711
1755645801346,-16.08105273,3.46979953,5.57066663,-0.22230825,0.09972533,-0.02399500,0.71548547,-0.07704967,-0.69392789,-0.02465708
1755645801358,3.31957985,-0.29762210,-2.15901770,-0.21707208,0.06578292,-0.00494508,0.71571571,-0.07829784,-0.69354964,-0.02468551
1755645801368,7.65293154,0.48134247,-2.89998812,-0.20089329,0.04613551,-0.00315877,0.71583587,-0.07937261,-0.69330281,-0.02470241
1755645801379,5.57630390,-0.83475863,-2.31740698,-0.03657696,0.00959172,0.17857642,0.71589729,-0.07957196,-0.69325054,-0.02372917
1755645801391,-3.89336718,0.57178541,1.25964490,0.13920889,-0.02921675,0.31275005,0.71587994,-0.07875063,-0.69342291,-0.02188395
1755645801402,4.15741391,-1.26169867,-2.01233153,0.16656588,-0.05093299,0.37459892,0.71576561,-0.07780953,-0.69371069,-0.01976746
1755645801413,4.57175519,-1.23947065,-2.48032512,0.05395940,-0.06092950,0.37573275,0.71553139,-0.07751815,-0.69403970,-0.01773851
1755645801424,3.01864444,-0.35789483,-2.92928810,-0.12489228,-0.07104375,0.27237063,0.71513591,-0.07816759,-0.69440913,-0.01632218
1755645801435,-4.06867065,1.48057672,0.88471026,-0.22716742,-0.05432714,0.17973889,0.71472982,-0.07941701,-0.69470793,-0.01533361
1755645801436,3624.61094335,-659.29468077,-1576.47850918,-1.87762298,-0.28163262,1.35880744,0.71436470,-0.08091911,-0.69493324,-0.01424657
1755645801459,-283.85938664,51.94160343,123.06807434,-0.14898658,-0.02015204,0.11913343,0.71398460,-0.08256541,-0.69515592,-0.01293014
1755645801468,77.40564514,-12.94451233,-35.95270881,-0.34470243,-0.10274432,0.20835778,0.71329376,-0.08430616,-0.69567478,-0.01187794
1755645801480,-35.79099864,7.37016046,15.65870363,-0.23586626,-0.09743576,0.05592522,0.71257821,-0.08568597,-0.69624478,-0.01155077
1755645801501,-16.33909940,2.83931306,7.64856729,-0.12235693,-0.05987334,0.03861194,0.71180313,-0.08698908,-0.69688243,-0.01113956
1755645801503,7583.64176525,-936.80797465,-3564.60273257,-2.80566629,-0.94147212,1.71065936,0.71074424,-0.08937389,-0.69768268,-0.00968550
1755645801524,-607.94847597,77.26193122,285.44140099,-0.18743904,-0.00985896,-0.02491828,0.71038700,-0.09135137,-0.69778669,-0.00994838
1755645801534,59.92866375,7.68531007,-28.13220733,-0.62719923,-0.04160500,-0.53929493,0.70972256,-0.09451873,-0.69799680,-0.01267182
1755645801547,-16.99159498,0.17738378,9.27617634,0.00012660,-0.06125670,-0.11805284,0.70932611,-0.09451793,-0.69838578,-0.01342146
1755645801569,-18.40006773,-0.50831973,8.69670427,0.19123395,-0.04829614,0.16890779,0.70911472,-0.09243348,-0.69891220,-0.01158036
1755645801579,147.94203533,20.50051812,-64.65770505,-0.09169650,-0.12405565,0.29689462,0.70841996,-0.09292405,-0.69957590,-0.00999198
1755645801592,-89.11940674,-7.60753667,39.43524227,0.36200502,-0.00488285,-0.13716025,0.70867033,-0.09066152,-0.69960642,-0.01084923
1755645801603,7.34704378,2.77101972,-0.54242985,0.67272718,0.01657687,-0.19479853,0.70918748,-0.08709607,-0.69951856,-0.01188166
1755645801635,-23.52890704,-4.04974331,9.95004682,0.16755806,0.00921860,0.04392332,0.70967731,-0.08436487,-0.69936830,-0.01116571
1755645801636,17549.35941013,2819.94081592,-6337.31418061,9.75500461,0.86958711,3.43218382,0.71098993,-0.07802412,-0.69880307,-0.00893479
1755645801659,-999.98869023,-159.29415239,362.78877272,0.23999577,-0.00689591,-0.06617568,0.71119329,-0.07534816,-0.69887996,-0.00967265
1755645801669,51.94768045,10.88287973,-12.82537427,0.57368305,-0.13043809,0.11035550,0.71084029,-0.07233633,-0.69956476,-0.00909329
1755645801692,-37.33219878,-7.42851255,11.58363609,0.21338099,-0.08559739,0.06426935,0.71012504,-0.06988245,-0.70054913,-0.00835419
1755645801702,61.90268631,10.80556187,-14.94097420,0.44595384,-0.22829210,0.30642482,0.70927487,-0.06776417,-0.70163351,-0.00689867
1755645801724,-30.32088887,-5.74462757,8.00578890,0.14148855,-0.10416106,0.11373020,0.70828451,-0.06618657,-0.70279491,-0.00563058
1755645801725,7873.70574373,1499.98132661,-1843.41871626,1.89988645,-3.05549321,1.23267366,0.70614217,-0.06476165,-0.70508653,-0.00470607
1755645801747,-544.35160905,-103.78695574,128.16337502,0.03482034,-0.16673775,0.04210949,0.70438506,-0.06438734,-0.70687896,-0.00425340
1755645801758,31.88901537,4.16631596,-5.16381459,-0.00207248,-0.30176976,0.15363148,0.70268871,-0.06439894,-0.70856887,-0.00339306
1755645801768,6.00406102,0.11446221,-0.75851168,0.01014986,-0.32572748,0.09775481,0.70104948,-0.06434819,-0.71019751,-0.00290429
1755645801781,-16.19645627,-3.86663305,3.68466135,0.05662453,-0.26286581,0.03389387,0.69937520,-0.06398580,-0.71187985,-0.00268736
1755645801791,28.47836866,2.02593360,-3.89679812,0.02303176,-0.37404094,-0.03891365,0.69757143,-0.06387639,-0.71365654,-0.00287220
1755645801802,-17.12825891,-2.63781107,3.71381183,-0.05084587,-0.33797363,-0.07942616,0.69551348,-0.06417384,-0.71563369,-0.00333685
1755645801814,-3.18652109,-0.75950718,1.31255436,-0.06716486,-0.33843720,-0.12558035,0.69334082,-0.06458355,-0.71769816,-0.00410289
1755645801826,3.62662037,-1.06074738,0.41831728,-0.05371904,-0.36954891,-0.06356568,0.69106426,-0.06489780,-0.71986002,-0.00447475
1755645801836,15.49674919,0.31871665,-0.90492512,-0.08052281,-0.40614201,-0.03602416,0.68892512,-0.06529639,-0.72187042,-0.00465307
1755645801847,-9.63882044,-2.15367632,1.18120672,-0.03056264,-0.35714503,0.03197514,0.68682721,-0.06546602,-0.72385258,-0.00447560
1755645801848,4443.81941203,128.70066341,-492.02160282,-0.33555226,-2.52383145,0.19860266,0.68493889,-0.06570090,-0.72561926,-0.00433658
1755645801859,-570.11272589,-20.32042005,64.27356896,-0.06383818,-0.30216749,-0.03683483,0.68315520,-0.06604882,-0.72726607,-0.00453733
1755645801869,5.84874645,-2.69328180,0.33834741,-0.04542908,-0.30830848,-0.07093313,0.68158628,-0.06626234,-0.72871512,-0.00487072
1755645801882,-13.39655508,-0.21898310,1.62343643,-0.06077074,-0.26963681,-0.15706645,0.67969061,-0.06665127,-0.73044080,-0.00587594
1755645801899,-8.48731986,-0.32777076,1.42094689,-0.00444993,-0.21550259,-0.12222015,0.67770321,-0.06668909,-0.73227257,-0.00691481
1755645801949,-8.36505066,0.34781923,0.65216823,-0.00213810,-0.07117921,-0.04739139,0.67576083,-0.06674244,-0.73404849,-0.00809723
1755645801975,63.13935196,-6.28457777,-4.05297590,-0.07743842,-0.36166205,-0.26242821,0.67046693,-0.06774914,-0.73875010,-0.01150880
1755645801993,-2.17221178,-5.04384782,2.74162652,0.02718170,-0.14216710,-0.33271871,0.66900474,-0.06750179,-0.74004382,-0.01453654
1755645802043,-27.22867461,3.69282581,1.14711987,-0.03268706,0.00273480,-0.07033269,0.66895660,-0.06832386,-0.73997504,-0.01630540
1755645802088,10.37657081,-1.83961062,0.06948962,0.01618073,0.10990941,-0.14874455,0.67164702,-0.06795737,-0.73748559,-0.01967447
1755645802119,14.55382529,-1.67239213,1.52128809,0.10442063,0.17882573,-0.03185851,0.67479385,-0.06635451,-0.73474061,-0.02016350
1755645802159,-11.16599690,3.12022267,-0.05375776,0.24931271,0.13330654,-0.03437656,0.67810121,-0.06141812,-0.73210114,-0.02084415
1755645802194,10.74323746,2.58408609,1.28165199,0.33904674,0.07433743,0.21563483,0.68015792,-0.05536614,-0.73077422,-0.01699507
1755645802215,29.09163840,15.58309781,1.86765803,0.50368727,0.38351425,0.76239763,0.68488189,-0.05022853,-0.72686238,-0.00921861
1755645802247,-24.78038645,-2.87179044,-2.16923670,0.23565248,0.13780855,0.20182472,0.68754794,-0.04641096,-0.72462988,-0.00594905
1755645802283,-12.69663463,-3.47032012,-0.73189267,0.08100446,0.14777570,0.09667017,0.69040171,-0.04497718,-0.72201425,-0.00423799
1755645802293,119.47503804,21.36930356,-0.61119823,-0.04236695,0.42051619,-0.77321410,0.69258817,-0.04519325,-0.71986961,-0.00818138
1755645802316,-45.44245794,-7.10181308,-1.38287567,0.08754748,0.18321116,-0.10692639,0.69480130,-0.04419521,-0.71778101,-0.00940034
1755645802326,20.83120360,0.82973973,-4.31520810,0.21836335,0.33998716,0.25966512,0.69680254,-0.04300513,-0.71592808,-0.00798517
1755645802348,-27.68573291,-4.70099591,1.51407136,0.09072252,0.17734837,0.08940086,0.69885381,-0.04201625,-0.71399498,-0.00701070
1755645802359,34.54428180,8.26726209,-2.22247987,-0.11572254,0.31464876,-0.15806981,0.70060092,-0.04266430,-0.71223295,-0.00789589
1755645802370,5.82005689,0.94607314,0.47418532,-0.16973996,0.25646192,-0.03586668,0.70188532,-0.04353846,-0.71091217,-0.00808060
1755645802381,-12.19364776,-3.31401978,0.33949793,-0.09167816,0.17303530,0.10838509,0.70289120,-0.04407936,-0.70989126,-0.00744113
1755645802392,2.79017616,-0.58768029,-0.75741832,-0.09295112,0.16897094,0.11890419,0.70379469,-0.04458595,-0.70897037,-0.00679310
1755645802404,-5.23176713,-1.32981265,-0.18832514,-0.15753710,0.16240990,0.04731528,0.70469419,-0.04550754,-0.70802027,-0.00651631
1755645802415,11.67814855,-0.00068627,-1.11447255,-0.24703019,0.19353084,0.05102878,0.70567563,-0.04686620,-0.70695585,-0.00623565
1755645802426,1.91728376,-0.96628539,-0.35901269,-0.31066086,0.20906190,0.02678562,0.70668345,-0.04852824,-0.70583737,-0.00609235
1755645802427,3123.96403666,288.45888934,-265.37296941,-2.39359334,1.30087076,0.22490126,0.70758900,-0.05044311,-0.70479667,-0.00591243
1755645802438,-460.65119369,-44.60998291,39.16016634,-0.34237651,0.17847490,0.06704989,0.70842416,-0.05230907,-0.70382398,-0.00554701
1755645802449,-7.15052112,-1.10814508,0.60941921,-0.28422663,0.14003347,0.08028282,0.70908068,-0.05388652,-0.70304680,-0.00510144
1755645802460,16.70580009,0.28747255,-1.26422271,-0.29680377,0.15999736,0.08554396,0.70977527,-0.05540022,-0.70223081,-0.00466516
1755645802482,-22.42020276,-1.72785913,1.69100825,-0.11719759,0.06485738,0.03241852,0.71039194,-0.05671284,-0.70150441,-0.00430208
1755645802493,64.59236427,0.50681981,-6.60341352,-0.19524610,0.14204339,0.06671009,0.71107823,-0.05778669,-0.70072317,-0.00393517
1755645802516,-34.22285428,-1.19088793,3.13935474,-0.05848020,0.04871356,-0.00644993,0.71157019,-0.05845336,-0.70016784,-0.00400870
1755645802527,120.93630089,-5.46790101,-11.20464904,-0.05372487,0.20491873,-0.08048627,0.71263090,-0.05874348,-0.69906127,-0.00444332
1755645802538,-72.82813031,0.60611186,7.32444740,0.03101936,0.04411775,-0.05366590,0.71288780,-0.05856822,-0.69881201,-0.00474654
1755645802548,7.00093424,-0.87975829,-1.41852374,-0.00807718,0.00363498,0.03011803,0.71290359,-0.05860941,-0.69879347,-0.00459293
1755645802559,-8.28675635,0.59729967,-0.01817854,-0.06483105,-0.01140692,0.01744711,0.71281411,-0.05896274,-0.69885564,-0.00449785
1755645802571,-6.07265609,-0.14360026,0.00774678,-0.02969098,-0.03389511,-0.04382588,0.71259820,-0.05914089,-0.69905901,-0.00476080
1755645802593,-14.60603985,0.89030718,1.64754441,-0.00984653,-0.01919330,-0.03720231,0.71238017,-0.05924871,-0.69926918,-0.00516817
1755645802596,2889.74204564,-304.51935720,-364.82196965,-0.18406081,-0.69165190,0.20268821,0.71151308,-0.05947878,-0.70013374,-0.00491481
1755645802616,-340.99371255,34.60645676,42.86647113,-0.02543894,-0.06915846,0.02310241,0.71077703,-0.05974589,-0.70085990,-0.00467223
1755645802627,43.98693241,-7.91187189,-7.61209228,-0.09963235,-0.16594408,0.00523926,0.70989014,-0.06025900,-0.70171452,-0.00464525
1755645802639,-13.61230646,1.63599773,1.30381167,-0.14049862,-0.16022665,-0.09987444,0.70881930,-0.06113711,-0.70271593,-0.00526947
1755645802650,15.20152535,-3.59965560,-3.02061743,-0.14639767,-0.21085286,-0.16678463,0.70764626,-0.06190570,-0.70382291,-0.00614509
1755645802672,-22.35406666,3.61255701,3.96071104,-0.07656695,-0.10524708,-0.08292534,0.70641572,-0.06274411,-0.70497537,-0.00705312
1755645802675,2260.13133990,-448.63845465,-399.97373906,-1.11890574,-1.43791068,-0.41171262,0.70417619,-0.06436652,-0.70706034,-0.00765010
1755645802695,-317.53560783,62.58069384,55.33771586,-0.03443346,-0.09371952,-0.00694291,0.70318202,-0.06471775,-0.70801628,-0.00772092
1755645802705,48.10895017,-10.31552203,-10.13314821,0.00316268,-0.17452951,-0.04053193,0.70229266,-0.06470177,-0.70889765,-0.00792561
1755645802740,-20.97130672,4.43326114,4.18897997,0.00372540,-0.05120227,-0.00745218,0.70138899,-0.06463639,-0.70979625,-0.00805639
1755645802772,24.93537162,-4.14566571,-6.29528279,-0.04901574,-0.17003376,0.08187286,0.69853941,-0.06542800,-0.71254230,-0.00673414
1755645802782,265.58205808,-41.37943442,-74.78161707,0.14731494,-0.07296843,0.95330426,0.69827989,-0.06472825,-0.71288890,-0.00220595
1755645802805,-112.50837776,19.25406747,29.36640375,0.10833842,0.01571480,0.25865077,0.69858175,-0.06348236,-0.71270818,0.00076853
1755645802827,-11.17170963,2.79516926,2.61091733,0.06717756,0.00455611,0.15866863,0.69869502,-0.06274677,-0.71265829,0.00250596
1755645802838,47.18311669,-2.90477287,-15.46361247,-0.03827960,0.03634220,0.25541475,0.69887185,-0.06295539,-0.71246022,0.00389797
1755645802849,17.35130845,1.54766051,-5.74844732,-0.35563439,0.06200974,0.05813914,0.69904459,-0.06498251,-0.71210677,0.00422936
1755645802860,-17.77101639,12.38211525,4.95358932,-0.78277497,0.04865917,-0.37618167,0.69891314,-0.06928777,-0.71183914,0.00216036
1755645802872,-11.55341745,3.91536024,5.01230541,-0.48218664,0.01431546,-0.16269116,0.69871710,-0.07208445,-0.71175611,0.00121675
1755645802883,-0.60028650,-4.66757362,1.61478801,0.20278376,-0.02062660,0.44274474,0.69870736,-0.07097928,-0.71186853,0.00362971
1755645802893,13.00824587,5.07826781,-3.26378068,-0.06123278,-0.13245704,0.29822384,0.69794830,-0.07130381,-0.71257055,0.00521030
1755645802905,-14.53701704,5.42312106,4.66790663,-0.49200466,-0.14741907,-0.03632614,0.69674757,-0.07423124,-0.71344769,0.00499416
1755645802917,-5.68715469,-0.72170032,1.64468297,-0.36112970,-0.11989760,0.13858456,0.69580198,-0.07632579,-0.71414310,0.00579795
1755645802927,12.39918905,1.52118554,-2.37853059,-0.30787849,-0.00787486,0.22999260,0.69557146,-0.07792676,-0.71418405,0.00699391
1755645802950,-28.99921143,-4.41544084,8.23782447,-0.09125030,0.04901246,0.12792316,0.69600936,-0.07896245,-0.71362775,0.00844584
1755645802952,4397.41460254,344.61295612,-1086.90060102,-1.57225714,1.51144139,2.03345211,0.69721513,-0.08037748,-0.71226746,0.01027594
1755645802961,-824.68115172,-68.12672560,206.47043944,-0.24454651,0.16971762,0.06838821,0.69787663,-0.08150240,-0.71148676,0.01059053
1755645802971,12.46529862,3.24206638,-2.15869407,-0.44039286,0.15326409,-0.15863788,0.69842930,-0.08379244,-0.71068978,0.00976561
1755645802983,2.68832655,2.69354797,0.35971361,-0.50156867,0.12072568,-0.44959519,0.69881136,-0.08665138,-0.71000165,0.00720292
1755645802993,3.29026226,2.29784656,0.90506335,-0.19730746,0.08032601,-0.39331114,0.69911969,-0.08765765,-0.70959198,0.00519703
1755645803006,-18.85008379,-2.57781321,4.91934429,0.04260782,0.06281609,-0.05751493,0.69958508,-0.08737218,-0.70917112,0.00481168
1755645803017,15.24299602,3.03167767,-1.12609750,-0.04785217,0.07772018,-0.06825549,0.69999502,-0.08764015,-0.70873588,0.00442945
1755645803027,9.78802147,1.62137848,0.14074296,0.16852940,0.07242867,0.04740692,0.70046020,-0.08680593,-0.70837736,0.00466412
1755645803039,-17.44592384,-3.05615783,3.38713643,0.36310619,0.00193105,0.05430859,0.70073849,-0.08460914,-0.70836568,0.00499268
1755645803062,-18.92791526,-1.78413839,2.93108591,0.25422461,-0.04396627,-0.01839879,0.70057702,-0.08171098,-0.70886689,0.00478294
1755645803072,87.89056003,20.12390599,-8.13975709,0.41067856,-0.25537929,-0.32568368,0.69951823,-0.07963705,-0.71015656,0.00313823
1755645803083,-59.43467232,-13.65755038,6.90741034,0.23976029,-0.16103490,-0.12223872,0.69880382,-0.07837831,-0.71100199,0.00249648
1755645803084,2422.93460403,434.09172000,-190.40958628,2.00390804,-1.06951785,-0.57132752,0.69806842,-0.07667499,-0.71191108,0.00201085
1755645803094,-417.32534129,-76.75600761,33.73122536,0.38161161,-0.17380952,-0.02901329,0.69741596,-0.07484325,-0.71274537,0.00187159
1755645803116,-17.55551746,-3.06145179,1.45510365,0.19943517,-0.09045406,-0.01001076,0.69662302,-0.07262952,-0.71374941,0.00176047
1755645803118,3572.91857350,600.22373377,-182.58987989,3.07486356,-1.57223031,0.47295427,0.69551807,-0.07001589,-0.71508580,0.00216248
1755645803128,-577.16313523,-97.89354660,30.38546618,0.36882827,-0.16289929,0.05860162,0.69486210,-0.06817174,-0.71590030,0.00245549
1755645803139,-0.45965521,-0.70643668,0.02873795,0.30835090,-0.17949529,0.05937964,0.69399123,-0.06644498,-0.71690547,0.00278801
1755645803150,11.12645379,-0.60155836,-1.17840816,0.38096162,-0.19749364,0.04894329,0.69304705,-0.06431159,-0.71801144,0.00306210
1755645803161,-4.28196391,-1.92411464,0.44270699,0.30496478,-0.17682001,0.05055115,0.69219063,-0.06263429,-0.71898395,0.00334013
1755645803173,-0.34380716,-1.80273584,0.40368842,0.31690034,-0.16154428,0.03560362,0.69141427,-0.06087549,-0.71988052,0.00353773
1755645803184,-4.47335257,-1.10541116,1.08074500,0.27026183,-0.14787011,-0.00799282,0.69064373,-0.05928095,-0.72075295,0.00349057
1755645803194,13.21978488,-0.47784741,-0.36482084,0.19096460,-0.17054092,-0.09352205,0.68983636,-0.05832612,-0.72160566,0.00302296
1755645803218,-21.18417114,-1.32766068,0.61989539,0.05631721,-0.06976302,-0.04836002,0.68904607,-0.05767284,-0.72241491,0.00246198
1755645803227,100.19300749,-3.55399476,-1.00181126,0.01855849,-0.20979603,-0.13786444,0.68803104,-0.05758655,-0.72339046,0.00182091
1755645803229,812.03105238,-51.78660018,-2.97996740,-0.37559316,-0.43213415,-0.58947513,0.68749760,-0.05799970,-0.72386581,0.00117249
1755645803250,-131.97684665,5.73533626,1.24859266,-0.06612673,-0.05480716,-0.09888142,0.68684587,-0.05868080,-0.72443032,0.00015401
1755645803261,52.35660423,-3.29052394,-0.76251459,-0.34313326,-0.16273125,-0.33728626,0.68571414,-0.06060235,-0.72534162,-0.00173479
1755645803262,2753.89353435,-145.05760064,-28.49480462,-2.38328514,-0.80466041,-1.70230733,0.68491031,-0.06238981,-0.72594511,-0.00301152
1755645803273,-391.53512777,20.58834701,4.23313435,-0.26609104,-0.08943922,-0.17041343,0.68424275,-0.06386662,-0.72644150,-0.00395731
1755645803285,2.43759888,-0.33216662,0.45170707,-0.23809090,-0.06983447,-0.10536803,0.68367340,-0.06525945,-0.72685003,-0.00457372
1755645803308,-15.26006577,0.76468911,0.06924302,-0.12068466,-0.01886700,-0.01450895,0.68330597,-0.06665336,-0.72706795,-0.00474130
1755645803319,81.91036348,-9.52096979,1.21188092,-0.29257158,0.00139447,0.01416111,0.68316132,-0.06820399,-0.72706055,-0.00466624
1755645803341,-43.75762204,4.33707176,-0.40249911,-0.06039888,-0.00581831,-0.05288810,0.68302359,-0.06886234,-0.72712397,-0.00524272
1755645803361,23.93860783,-3.39429058,0.80362375,-0.13394678,-0.05310209,-0.20105331,0.68227028,-0.07026208,-0.72767889,-0.00734373
1755645803374,39.82282728,-8.08307170,1.00287747,-0.26339511,-0.06585912,-0.31753122,0.68165045,-0.07186879,-0.72808063,-0.00928067
1755645803386,-35.56388109,6.10632450,1.49114770,-0.26423000,0.02275140,-0.22093672,0.68160867,-0.07342775,-0.72794640,-0.01058420
1755645803395,13.31677278,-0.91186521,3.81596709,-0.28460295,-0.00434611,-0.29524029,0.68141435,-0.07479384,-0.72796726,-0.01200135
1755645803407,-2.84788687,-0.37284116,0.58374653,-0.20699561,-0.01529549,-0.25995508,0.68115400,-0.07601512,-0.72805750,-0.01353508
1755645803419,-8.36280050,0.98884465,-0.85271799,-0.11861993,-0.02003295,-0.20357228,0.68092423,-0.07671497,-0.72817570,-0.01473616
1755645803429,6.91280113,0.03396624,1.06796559,-0.02881385,-0.00696625,-0.19565506,0.68084734,-0.07686192,-0.72821123,-0.01573400
1755645803442,-13.80993876,3.22917699,-1.21231721,0.17837546,0.01097997,-0.08691639,0.68103731,-0.07572032,-0.72814095,-0.01629027
1755645803451,29.86856701,-0.71911261,3.72434272,0.47693413,0.02812373,-0.04082094,0.68141541,-0.07350258,-0.72801018,-0.01648008
1755645803474,-28.10769842,2.75796344,-2.85886553,0.23307632,0.03107857,0.06788155,0.68209026,-0.07085716,-0.72765744,-0.01570963
1755645803484,69.81675267,-8.22994818,8.72432361,0.63978887,0.15178585,0.46245957,0.68335439,-0.06743429,-0.72684538,-0.01323547
1755645803495,-42.23473559,4.31110821,-5.47493634,0.28767727,0.12109031,0.25879695,0.68423423,-0.06586645,-0.72618544,-0.01182503
1755645803508,-5.27268575,0.45469247,-0.35785889,0.19915709,0.11821946,0.21511577,0.68515062,-0.06463168,-0.72545248,-0.01049131
1755645803518,28.18907461,-3.26329662,4.62101352,0.14762173,0.21321742,0.30697576,0.68636852,-0.06389357,-0.72438639,-0.00895643
1755645803529,-20.57004173,1.13360733,-1.42170562,0.11515311,0.16575329,0.28732397,0.68744436,-0.06323719,-0.72344160,-0.00731868
1755645803531,2671.06095921,-141.46396977,402.97559465,-1.36802407,1.04273110,-0.25379891,0.68826575,-0.06440001,-0.72255528,-0.00753441
1755645803542,-409.19362045,32.78648982,-62.60207245,-0.49999345,0.17076985,-0.24036956,0.68895317,-0.06707498,-0.72164166,-0.00882039
1755645803558,-20.20844860,1.25385532,-3.11862165,-0.24849967,0.11777045,-0.08900999,0.68977666,-0.06917480,-0.72064650,-0.00957252
1755645803598,-7.14718355,-0.43958841,-0.98887394,-0.04699726,0.05921432,0.05767969,0.69091482,-0.07010065,-0.71947998,-0.00843623
1755645803608,308.11415574,47.96532489,31.70499247,0.35278039,1.10974813,1.40665700,0.69722380,-0.06823091,-0.71359831,-0.00098095
1755645803640,-91.40453920,-13.79315730,-10.61679095,0.13470332,0.25697215,0.29019877,0.70161824,-0.06606892,-0.70947391,0.00367674
1755645803651,92.73039940,10.88462336,2.88188276,0.20684846,0.70739251,0.15297190,0.70541380,-0.06499331,-0.70579547,0.00447219
1755645803674,-48.05187295,-6.39333286,-2.22079163,0.02369777,0.15058039,-0.12791480,0.70718257,-0.06471960,-0.70405626,0.00299478
1755645803685,66.80707974,9.44947810,-1.05952033,-0.14752360,0.40965662,-0.42016651,0.70929128,-0.06550885,-0.70186460,0.00074689
1755645803697,-41.34753640,-1.46333013,-0.63657612,-0.36457459,0.31091162,-0.17646131,0.71095493,-0.06773276,-0.69996804,-0.00032953
1755645803719,-14.78934319,-2.49879515,-0.00154022,-0.16752784,0.15400299,-0.07470601,0.71243368,-0.06956719,-0.69828171,-0.00114756
1755645803728,50.87193469,17.34209052,-4.45587855,-0.18010728,0.34128499,-0.37459479,0.71389865,-0.07040469,-0.69669473,-0.00288943
1755645803741,-21.60624192,-7.79195438,1.00261103,0.24682885,0.16603113,0.05696621,0.71510783,-0.06880030,-0.69561553,-0.00251915
1755645803752,5.26359542,1.03145072,-0.73301081,0.30687767,0.14625450,0.17559779,0.71606948,-0.06708178,-0.69479650,-0.00153580
1755645803762,7.45376069,1.26183578,-0.50091338,0.17526207,0.15894172,0.15242257,0.71687134,-0.06625805,-0.69404948,-0.00081941
1755645803774,-9.50638835,-3.42644645,0.25727995,0.07967035,0.14058599,0.10458673,0.71771715,-0.06578800,-0.69322002,-0.00020235
1755645803785,1.56757126,-0.21898174,-0.41752473,0.01232191,0.19042057,0.04090675,0.71873347,-0.06572023,-0.69217271,0.00002264
1755645803796,-5.15128627,-1.51698336,0.55239658,-0.08359454,0.18634384,-0.01272258,0.71976256,-0.06622179,-0.69105464,-0.00005370
1755645803799,1157.16457367,200.15239716,-113.98394903,-0.48041059,1.05124841,0.42447248,0.72072602,-0.06670220,-0.69000340,0.00037077
1755645803809,-216.12184659,-41.03921709,21.33548936,-0.08303557,0.20355237,0.13731194,0.72170645,-0.06713814,-0.68893475,0.00109166
1755645803819,-0.47068747,-0.98047571,-0.59072460,-0.14021017,0.20537547,0.07319329,0.72258274,-0.06781115,-0.68794894,0.00144299
1755645803831,-11.82708740,-1.73684756,1.04688009,-0.13036255,0.15134808,0.00301731,0.72340528,-0.06862592,-0.68700302,0.00146185
1755645803845,2.32165247,-0.30731196,-0.72158744,-0.07128142,0.15863653,0.03408500,0.72438161,-0.06911063,-0.68592429,0.00169363
1755645803899,-5.59654962,-0.47617628,0.77262565,-0.00135641,0.03643006,0.01167496,0.72531258,-0.06914746,-0.68493521,0.00201060
1755645803925,33.68624456,1.61560737,-5.45119795,0.27734708,0.10573231,0.19089996,0.72694344,-0.06551421,-0.68355012,0.00451139
1755645803965,-16.54024115,-1.64443101,2.11394698,-0.04259658,-0.02867587,-0.02841913,0.72632970,-0.06636614,-0.68412364,0.00394301
1755645803974,58.23236654,-3.34850232,-16.40370270,0.01233772,-0.27657822,-0.17488662,0.72512541,-0.06630877,-0.68540973,0.00312979
1755645803996,-25.27398339,1.07524449,5.75710747,0.18600020,-0.05927024,0.09199671,0.72469989,-0.06431857,-0.68604392,0.00411415
1755645804019,-2.95172188,-0.59043754,0.39600829,0.18662395,-0.03160344,-0.05731731,0.72454443,-0.06214440,-0.68641210,0.00344640
1755645804031,5.51163242,-1.14457344,-2.22906639,0.12305231,-0.08476091,-0.19139993,0.72414024,-0.06142454,-0.68690795,0.00232671
1755645804067,-6.28948734,1.01860175,2.28803430,0.03946964,-0.03111608,-0.04559888,0.72366805,-0.06071014,-0.68747115,0.00150137
1755645804086,14.81256692,0.47981032,-6.47736566,0.13233461,-0.09822356,-0.13079088,0.72287820,-0.05943973,-0.68841410,0.00024578
1755645804097,15.96667869,6.60103701,-9.35036039,0.59621307,-0.11102366,0.19421210,0.72257235,-0.05630961,-0.68899697,0.00126540
1755645804118,-18.32672177,-3.07205195,8.80102933,0.22547029,-0.02607495,0.12884466,0.72248693,-0.05390835,-0.68927467,0.00263759
1755645804129,9.56847056,0.75418554,-3.77625601,0.10572941,-0.06879595,0.01600887,0.72217730,-0.05334270,-0.68964273,0.00272324
1755645804140,2.07506866,1.63386711,-1.46524249,-0.11274910,-0.12166681,-0.09168581,0.72146838,-0.05398537,-0.69033623,0.00220063
1755645804175,-6.03203197,-0.58013973,2.70428556,-0.03272400,-0.02722841,0.00379917,0.72096597,-0.05456131,-0.69081545,0.00226749
1755645804186,34.73958448,5.33931140,-19.33674151,0.13992407,0.03610627,0.37156896,0.72119185,-0.05383371,-0.69062770,0.00419965
1755645804198,-15.58765581,-1.24836286,7.84331953,0.28103161,0.12208855,0.15842093,0.72199665,-0.05217562,-0.68990737,0.00513434
1755645804209,-6.53449317,-0.93807875,3.68160694,0.31129094,0.07082522,0.05102546,0.72250603,-0.05040126,-0.68950367,0.00542518
1755645804230,-3.63951178,-1.15441535,2.77812417,0.13447607,0.01573459,0.03216543,0.72275934,-0.04898254,-0.68933767,0.00576453
1755645804240,7.42987467,0.96729677,-3.23793846,0.22532990,0.01609278,0.07466881,0.72291439,-0.04781083,-0.68925399,0.00615280
1755645804252,-1.98779619,1.00076971,0.16696552,0.16954741,0.03320839,0.08476692,0.72314961,-0.04686136,-0.68906802,0.00662750
1755645804263,-2.77114285,0.01515406,-0.28764378,0.27095047,0.09029304,0.17086466,0.72372340,-0.04533049,-0.68855786,0.00759289
1755645804274,-0.28437203,-0.07421824,-0.14436151,0.32977791,0.12246152,0.21097623,0.72448845,-0.04345076,-0.68785983,0.00879545
1755645804287,-1.01025767,0.15401139,0.19512216,0.36333299,0.14259108,0.20430762,0.72546469,-0.04114359,-0.68695438,0.01009280
1755645804298,0.82855177,1.26294748,-0.83546176,0.43663479,0.15983573,0.19358923,0.72643829,-0.03867660,-0.68605131,0.01118658
1755645804320,-2.49275225,-1.07935263,1.95350159,0.25215590,0.07905891,0.12742656,0.72736095,-0.03595332,-0.68519747,0.01256279
1755645804342,3.36716335,0.92047314,-0.63211917,0.53095289,0.13334778,0.31614942,0.72895044,-0.03005974,-0.68371731,0.01607205
1755645804352,12.68110007,6.43789848,-8.03389656,1.17281707,0.31601523,0.78877270,0.73050272,-0.02437158,-0.68218464,0.01989759
1755645804388,-6.11193239,-2.49765393,2.90288335,0.16436762,0.06178147,0.10067875,0.73158663,-0.02139653,-0.68106639,0.02171988
1755645804398,22.08477230,16.92550066,-22.75817082,1.68794391,0.63957552,0.94000847,0.73450603,-0.01321000,-0.67796445,0.02627892
1755645804430,-6.10792000,-4.78000275,6.37051696,0.22791803,0.08470810,0.14885096,0.73574475,-0.00949494,-0.67658371,0.02870519
1755645804441,6.88700656,2.51327092,-7.27422994,0.44863949,0.30992262,0.33246769,0.73724910,-0.00704985,-0.67489463,0.03051714
1755645804476,-2.95111782,-1.34542389,2.82539199,0.04790409,0.07305211,0.03106649,0.73837592,-0.00623069,-0.67364544,0.03104838
1755645804486,7.57502765,3.61055319,-12.39551385,0.16111550,0.50660560,0.22353297,0.74072768,-0.00539289,-0.67101109,0.03221075
1755645804501,-4.68739140,-1.71752675,6.84947262,0.03499041,0.20642679,0.08423105,0.74207399,-0.00513571,-0.66949386,0.03282985
1755645804542,-0.20928613,-0.30005712,0.74785682,0.02459400,0.10279614,0.05064013,0.74394457,-0.00462661,-0.66736598,0.03387810
1755645804553,9.22634055,1.21208607,-12.73371537,0.28674722,0.88458953,0.33907577,0.74804810,-0.00310685,-0.66267765,0.03567520
1755645804587,-3.08218689,-0.25432085,3.33182003,0.05155391,0.22465680,0.03304355,0.75147830,-0.00220724,-0.65875739,0.03625181
1755645804598,0.13802045,1.02184975,-6.20185377,0.19525025,0.73856375,0.20236195,0.75474715,-0.00120170,-0.65495379,0.03729397
1755645804633,-0.24132475,-0.39644746,1.85082132,0.07642557,0.27585040,0.06010180,0.75891617,0.00015485,-0.65005744,0.03836078
1755645804643,0.44298219,2.80456190,-26.57116649,0.53026673,2.07410048,0.29902227,0.76699695,0.00262059,-0.64041287,0.03975123
1755645804687,-0.36698048,-0.76825990,5.53557363,0.02240858,0.29410743,0.00951185,0.77236491,0.00311582,-0.63391310,0.03996145
1755645804697,-8.02097311,2.52757954,-20.98802111,0.26386734,1.99207957,0.10661499,0.78063737,0.00447474,-0.62365389,0.04051051
1755645804721,2.91013460,-0.66832931,7.31841381,0.05649604,0.55800813,0.06312919,0.78596176,0.00516117,-0.61687409,0.04127753
1755645804743,0.23426063,-0.18429177,1.00220574,0.03341087,0.45125893,0.02284361,0.78969496,0.00551699,-0.61206818,0.04152082
1755645804753,-5.15540296,0.16120724,-9.75951388,0.13856922,1.15764813,0.06579754,0.79434482,0.00624448,-0.60599053,0.04186625
1755645804764,1.79276503,0.28986437,5.22792588,0.06878903,0.71702692,0.06113463,0.79739778,0.00663314,-0.60193933,0.04221167
1755645804777,0.81966256,0.15813610,1.76188752,0.10022402,0.63526867,0.07359513,0.80027921,0.00724451,-0.59806419,0.04266060
1755645804787,-0.74515001,-0.09508028,-1.23770980,0.05601953,0.67371346,0.16707555,0.80286054,0.00753861,-0.59452719,0.04353774
1755645804800,0.40804577,-0.08081644,1.04423173,0.02806436,0.61342547,0.16243416,0.80573841,0.00772103,-0.59053993,0.04459356
1755645804826,0.78722500,-0.19106540,1.28186254,0.02438690,0.33541252,0.09093665,0.80881136,0.00803440,-0.58622988,0.04576210
1755645804837,-8.08408654,0.41240799,-13.66919252,0.03777735,1.50214915,0.42527522,0.81449479,0.00823840,-0.57811827,0.04805859
1755645804871,2.55549290,-0.24219819,4.46868462,-0.02310199,0.33321456,0.07657326,0.81838953,0.00784797,-0.57248695,0.04935267
1755645804899,-1.97427366,0.31063435,-2.91229802,-0.05067245,1.04452346,0.32972564,0.82817940,0.00713603,-0.55781139,0.05398532
1755645804909,-13.66750713,2.13073466,-17.32788861,0.16839832,2.59980193,0.74306083,0.83710578,0.00803696,-0.54390245,0.05796070
1755645804930,7.18629885,-1.17380994,10.95472411,0.08154701,0.79584461,0.17188729,0.84234161,0.00889320,-0.53554608,0.05976551
1755645804953,1.43498779,-0.14255791,1.50501531,0.02691954,0.40942767,0.09608077,0.84520957,0.00920008,-0.53087861,0.06086083
1755645804964,-3.31387169,-0.00925908,-3.97844855,0.04025548,0.77822049,0.17147065,0.84778874,0.00941948,-0.52663731,0.06179535
1755645804978,1.72023209,-0.22884220,1.92054021,0.04434100,0.53981040,0.11285839,0.85014387,0.00974095,-0.52272368,0.06261357
1755645804989,-1.71886973,0.52948411,-0.94511641,0.00150521,0.67327346,0.07569519,0.85229798,0.00974893,-0.51915533,0.06301476
1755645805021,1.38615537,-0.23098009,1.33724962,0.01800348,0.24915532,0.02824420,0.85464715,0.01003338,-0.51521868,0.06346101
1755645805022,-728.23295110,54.96487168,-543.33146279,1.06681874,8.44812057,-0.23180157,0.85843805,0.01083349,-0.50888259,0.06328716
1755645805066,24.77809471,-1.86614784,18.69879546,0.02230048,0.21243881,0.01248412,0.86117107,0.01132522,-0.50419831,0.06356244
1755645805104,-0.57003111,-0.13361078,-0.77778315,0.01704511,0.43610816,-0.02896586,0.86591700,0.01164311,-0.49606489,0.06302222
1755645805151,0.11980143,-0.10406264,0.10500428,-0.00744919,0.38294700,-0.06928655,0.87115125,0.01146731,-0.48702735,0.06138706
1755645805184,-0.30180736,-0.07055254,-0.29643111,-0.07039209,0.48128128,0.01144564,0.87562374,0.01028472,-0.47894182,0.06157935
1755645805218,0.33494390,0.36248664,0.07810563,0.03255523,0.47642240,-0.02431394,0.88000191,0.01083491,-0.47089028,0.06116844
1755645805249,0.11565581,-0.40601035,0.10361954,0.01023436,0.44258336,-0.08192375,0.88373540,0.01099405,-0.46400811,0.05989453
1755645805284,0.19182710,0.20614054,0.47450333,-0.04528960,0.31835607,-0.01998589,0.88662967,0.01021280,-0.45851647,0.05954977
1755645805318,0.04720001,0.16237233,0.06002995,-0.00630714,0.28525665,-0.00365717,0.88913342,0.01010527,-0.45365284,0.05948742
1755645805349,-0.03115645,0.10379282,-0.09895987,0.01350332,0.27892910,-0.06391820,0.89138202,0.01031389,-0.44934339,0.05849988
1755645805380,0.19337563,-0.16781974,0.48144401,0.00167542,0.18565844,-0.05815693,0.89289481,0.01034003,-0.44644712,0.05759263
1755645805417,0.29020573,0.06820016,0.28013034,-0.00972780,0.05974802,-0.00034322,0.89345359,0.01015861,-0.44533281,0.05758623
1755645805450,-0.11631483,0.02818302,-0.19040464,0.04324049,0.04195052,0.01632969,0.89377343,0.01087424,-0.44463853,0.05785649
1755645805466,0.11835572,0.98029278,0.26781555,0.21849955,0.00139783,0.00227583,0.89375522,0.01258946,-0.44462756,0.05787435
1755645805490,0.56736091,-0.48674241,0.45370263,0.01799338,-0.05770375,-0.01887471,0.89342337,0.01280448,-0.44531712,0.05764880
1755645805534,0.05240649,-0.08952645,-0.03892787,-0.00406544,-0.01559185,0.00359593,0.89324689,0.01271423,-0.44566326,0.05772863
1755645805557,-0.19459751,-0.13520509,-0.47313344,-0.05564544,-0.01329927,-0.03408967,0.89320544,0.01208543,-0.44581354,0.05734342
1755645805597,0.04565205,0.08134794,0.25515280,0.00984211,0.00057377,-0.00035011,0.89320892,0.01228129,-0.44580212,0.05733645
1755645805609,-1.62890801,0.34151914,-0.07904046,0.02336151,-0.01622416,0.04054559,0.89314384,0.01241913,-0.44589785,0.05757567
1755645805634,0.63176830,-0.78596923,-0.07546294,-0.10115814,-0.01681143,-0.02457715,0.89307395,0.01112936,-0.44611219,0.05726231
1755645805656,-0.02278045,0.15270225,0.21335520,-0.07545239,-0.03368063,-0.00537488,0.89290175,0.01029561,-0.44648436,0.05720292
1755645805690,0.14372770,0.22716478,-0.02445384,-0.03153062,-0.02021151,-0.00014844,0.89273702,0.00976274,-0.44682594,0.05720041
1755645805725,-0.03808254,-0.07125024,0.02920017,-0.05828416,-0.04461669,-0.00902976,0.89237179,0.00875734,-0.44759557,0.05704465
1755645805757,0.02161505,0.13205108,-0.17853110,0.00889304,-0.05641648,0.00672205,0.89190728,0.00890052,-0.44850388,0.05715287
1755645805780,0.08010504,0.28711974,0.03935174,0.07416473,-0.08261293,0.01555611,0.89141284,0.00974600,-0.44944567,0.05733021
1755645805791,0.21596901,0.74488301,-0.28756013,0.22299670,0.02936800,0.12019277,0.89143789,0.01100593,-0.44927974,0.05800930
1755645805834,-0.04192800,-0.21687955,0.06548212,0.05206098,0.01159519,0.01958281,0.89152186,0.01213044,-0.44902928,0.05843229
1755645805867,0.11641974,0.18801354,-0.14443031,0.11162602,-0.01353419,0.04538952,0.89133239,0.01397786,-0.44925327,0.05918348
1755645805879,1.43432909,0.66876024,0.65265768,0.03841555,-0.11597591,-0.00267782,0.89098169,0.01420643,-0.44994333,0.05916755
1755645805901,-0.56483308,-0.86164763,0.20335340,-0.08021370,-0.04916379,-0.00066864,0.89072487,0.01333210,-0.45047922,0.05916026
1755645805923,-0.02373586,-0.09748328,-0.09654672,-0.02963351,-0.07687882,-0.02177567,0.89031553,0.01300465,-0.45132873,0.05891964
1755645805935,0.14101849,0.33528971,-0.01717094,-0.03301167,-0.10229517,-0.01574065,0.89000568,0.01280163,-0.45195784,0.05882284
1755645805956,-0.14523535,0.03569424,0.01739798,0.01977165,-0.04816419,0.01686289,0.88974042,0.01300429,-0.45245152,0.05899568
1755645805967,0.42545773,0.33428507,-0.01741228,0.07550742,-0.04543374,0.05376391,0.88958052,0.01343845,-0.45271277,0.05930482
1755645805990,-0.27829226,-0.12587705,-0.10232179,0.01972268,-0.02233163,0.01950030,0.88943069,0.01366625,-0.45297070,0.05953005
1755645806001,1.16265304,0.04182523,0.27719662,-0.03428278,-0.07535309,-0.00276702,0.88923283,0.01348627,-0.45336630,0.05951553
1755645806023,-0.60134777,-0.22779249,-0.07604811,-0.01933206,-0.03531279,-0.02913115,0.88905927,0.01327361,-0.45375474,0.05919508
1755645806034,0.88942954,-0.18425302,-0.30950575,0.00809778,-0.10813203,-0.02292269,0.88874974,0.01332018,-0.45437650,0.05906328
1755645806046,-0.24041242,0.57753352,-0.10813561,0.05757550,-0.03538111,0.02142774,0.88863044,0.01365699,-0.45458348,0.05918863
1755645806068,-0.13976729,0.03302622,0.18271456,0.04670463,-0.00590467,0.01941329,0.88857542,0.01416607,-0.45464784,0.05940024
1755645806080,0.41283508,-0.03527733,-0.07109840,0.00944255,-0.01273800,-0.00686464,0.88853754,0.01422367,-0.45472554,0.05935836
1755645806090,-0.31514111,-0.40733204,0.17208605,0.00466960,-0.00439350,-0.06473285,0.88854778,0.01424772,-0.45474817,0.05902499
1755645806101,-0.22690090,-0.14204997,0.09826741,-0.00993964,-0.01248173,-0.04617437,0.88853099,0.01419504,-0.45481432,0.05878026
1755645806113,-0.18866010,0.10592619,-0.21422664,-0.02304605,-0.01062773,-0.01927189,0.88850875,0.01406022,-0.45487650,0.05866752
1755645806124,-0.12091865,0.14828113,-0.16622105,-0.02077440,-0.01574920,-0.01390622,0.88847125,0.01394596,-0.45496312,0.05859104
1755645806135,0.05270172,-0.06261665,-0.00867243,-0.00038035,-0.00440516,-0.00109277,0.88845884,0.01394379,-0.45498823,0.05858481
1755645806172,-0.09271193,-0.00243860,0.05266015,-0.00547177,-0.00419563,-0.00033257,0.88842138,0.01384339,-0.45506522,0.05857871
1755645806227,0.02593801,-0.04420454,0.03693800,-0.01869220,-0.01768745,-0.02031407,0.88821473,0.01332468,-0.45555604,0.05801499
1755645806257,0.21017947,0.03178725,-0.07948621,0.02753689,-0.03547631,0.00981487,0.88792471,0.01373911,-0.45608996,0.05816270
1755645806268,-0.30860144,0.39973459,0.94303343,-0.02679345,-0.06257277,-0.01287354,0.88776093,0.01359710,-0.45642160,0.05809447
1755645806314,-0.10880497,-0.03820219,-0.17738081,0.00431981,-0.00703659,0.00079476,0.88767461,0.01369689,-0.45658414,0.05811283
1755645806346,0.03515506,0.19402084,-0.06361604,0.04770818,-0.01063461,0.01994449,0.88755439,0.01445784,-0.45675376,0.05843095
1755645806358,0.34856894,-0.23758743,0.34277020,0.05657462,-0.02810466,0.00618866,0.88746271,0.01478597,-0.45691677,0.05846684
1755645806380,-0.11672930,-0.26770707,-0.00268382,-0.01808543,-0.02981710,-0.03631385,0.88732329,0.01458703,-0.45724476,0.05806739
1755645806392,0.14883859,0.03254826,0.01319029,-0.02515092,-0.04922811,-0.02938796,0.88718386,0.01443487,-0.45754259,0.05788959
1755645806430,-0.09199258,0.03928087,-0.08643423,0.00719269,-0.00445811,0.00330060,0.88713398,0.01457117,-0.45762707,0.05795214
1755645806466,0.05311494,0.06575171,-0.13302121,0.01878204,-0.00247866,0.01209169,0.88709038,0.01491488,-0.45767243,0.05817342
1755645806479,1.22260157,-2.26860891,0.68956006,-0.13007936,-0.02005125,-0.12423220,0.88708954,0.01407587,-0.45780176,0.05737212
1755645806502,-0.57215428,0.92968869,-0.26022322,0.02292562,0.01584456,-0.08441485,0.88724158,0.01433951,-0.45761955,0.05640135
1755645806538,-0.03935810,0.19278395,-0.01546140,0.01276137,0.00523601,-0.02433041,0.88731276,0.01456475,-0.45752713,0.05597192
1755645806558,0.08010685,0.01640584,0.08710816,-0.00272443,0.00041714,-0.05441374,0.88735116,0.01453628,-0.45752277,0.05540329
1755645806596,-0.09528808,-0.08534933,0.01786793,0.00829823,-0.00455051,-0.04025013,0.88735140,0.01469229,-0.45760832,0.05464659
1755645806633,0.02614399,0.04444980,0.02176462,0.04413414,-0.00602351,-0.05336109,0.88734031,0.01550656,-0.45771946,0.05366208
1755645806647,1.24028069,0.42193902,-0.18543313,0.14524309,-0.05118613,0.00331798,0.88714004,0.01650148,-0.45807008,0.05368481
1755645806670,-0.68525434,-0.15689531,0.16145417,0.03490433,-0.03562429,-0.02771530,0.88694093,0.01690113,-0.45847798,0.05336747
1755645806750,-0.04973201,-0.03538990,-0.01521450,-0.01077613,-0.00888498,-0.00385514,0.88677283,0.01646578,-0.45883693,0.05321172
1755645806769,1.17735867,0.04037514,0.02050377,0.00982827,-0.13642760,-0.05015907,0.88614478,0.01655669,-0.46009889,0.05274775
1755645806824,-0.32914512,-0.01965718,0.00381702,-0.00716085,-0.03709824,-0.00742522,0.88562450,0.01635762,-0.46113022,0.05254133
1755645806848,0.51777312,-0.18439915,-0.07957665,0.01638173,-0.06648145,-0.01300910,0.88522281,0.01655010,-0.46191138,0.05238847
1755645806938,-0.15847664,0.04628741,0.00254681,-0.01328026,-0.00417732,-0.00849268,0.88515842,0.01595448,-0.46209873,0.05200757
1755645807009,0.03725974,0.01134967,-0.02790750,0.00111857,-0.00647315,-0.00822981,0.88505424,0.01599441,-0.46232982,0.05171377
1755645807052,0.12159592,0.08579446,-0.00538979,0.02308388,-0.01822411,0.00951393,0.88483046,0.01648610,-0.46271799,0.05191642
1755645807109,-0.05793581,-0.04889495,0.04801933,-0.00086760,-0.02190479,0.00667940,0.88448883,0.01646107,-0.46334995,0.05210912
1755645807136,0.31474341,0.43125311,-0.08270749,0.06779988,-0.05692541,0.09143686,0.88399836,0.01736959,-0.46411275,0.05333437
1755645807171,-0.14544446,-0.19056276,-0.01479681,0.00822062,-0.01884602,-0.00876500,0.88383344,0.01751181,-0.46443878,0.05318274
1755645807206,-0.08525356,-0.11170770,0.00973587,0.03140068,0.01582456,0.02786509,0.88393838,0.01806132,-0.46416185,0.05367038
1755645807227,0.05854283,0.05478605,-0.11225440,0.03520254,0.00640947,0.00315250,0.88396395,0.01842918,-0.46409488,0.05370332
1755645807249,-0.11789080,-0.13658628,0.12129336,-0.01332592,0.00794645,0.00630370,0.88400968,0.01827927,-0.46400548,0.05377424
1755645807273,-0.12106458,-0.00554368,0.03336705,0.00277438,0.01048471,0.00960141,0.88406873,0.01831298,-0.46387809,0.05389089
1755645807307,-0.00752475,0.02272501,-0.01636612,0.00433769,0.01089897,0.02136430,0.88414154,0.01838607,-0.46369444,0.05425088
1755645807340,0.16057746,0.06900096,0.00401260,0.05098468,-0.01786058,0.02708680,0.88394087,0.01922986,-0.46399003,0.05469917
1755645807361,0.09582146,0.12405448,0.10112107,-0.02341843,0.00197636,0.02990281,0.88393767,0.01898982,-0.46396978,0.05500567
1755645807371,0.02984492,0.51036038,0.05936478,0.10418132,0.08458042,0.02972712,0.88415299,0.01954719,-0.46351727,0.05516471
1755645807405,-0.23861388,-0.13645040,0.01048534,0.03542161,0.01608158,0.03500759,0.88424595,0.02015290,-0.46324228,0.05576334
1755645807427,0.05432883,0.25284423,0.02775612,0.10415848,0.00612430,0.00224660,0.88425272,0.02127782,-0.46317613,0.05578760
1755645807437,0.36698492,1.13074335,0.47912762,0.09084197,0.04414265,0.12275304,0.88431897,0.02173657,-0.46295321,0.05640751
1755645807459,-0.27408861,-0.72256360,-0.16476737,0.06562715,0.02505961,0.03352157,0.88442252,0.02246503,-0.46267505,0.05677960
1755645807471,0.18144052,0.93942749,0.28343718,0.16007543,0.03425721,0.08737013,0.88447049,0.02340947,-0.46247293,0.05729508
1755645807483,-0.11023484,-0.54303784,-0.11599912,0.09896827,0.01273156,0.04838834,0.88447562,0.02399833,-0.46239718,0.05758299
1755645807504,-0.05632471,-0.31230857,-0.11175042,0.03431822,0.00991662,0.02345311,0.88450400,0.02435696,-0.46229355,0.05782808
1755645807515,0.11360298,0.40804133,0.12155119,0.07793334,0.02621158,0.03101136,0.88455721,0.02479339,-0.46214677,0.05800174
1755645807527,0.10301975,-0.05941987,-0.19781310,0.09383318,0.03149591,0.03812247,0.88462268,0.02533762,-0.46196409,0.05822285
1755645807537,0.05245595,0.10043286,-0.07385482,0.10416450,0.02647899,0.05279268,0.88466187,0.02589490,-0.46182243,0.05850529
1755645807571,-0.08191643,-0.20724623,-0.02050236,0.04307802,0.01348522,0.01410211,0.88474197,0.02660999,-0.46159857,0.05873939
1755645807572,62.05653985,210.62518402,63.90608649,3.30249137,0.67369871,1.09294263,0.88486420,0.02892174,-0.46112698,0.05950445
1755645807615,-1.99653075,-6.73590505,-2.04000343,0.08107611,0.01434111,0.01843481,0.88493974,0.03067298,-0.46081722,0.05990264
1755645807627,1.23392141,1.69432460,1.58464698,0.40300528,0.10384860,0.09345332,0.88513220,0.03301041,-0.46021489,0.06044467
1755645807671,-0.31885814,-0.50003914,-0.36754628,0.05468202,0.02733308,0.02219832,0.88536598,0.03421615,-0.45961220,0.06093414
1755645807683,0.29085471,1.53025368,2.24424832,0.18659016,0.10339357,-0.00134818,0.88563509,0.03529837,-0.45901252,0.06092632
1755645807705,-0.08927960,-0.66479691,-0.90403939,0.09474892,0.00783971,0.00413814,0.88563449,0.03635009,-0.45892550,0.06097225
1755645807738,-0.01981207,-0.12951046,-0.18122966,0.04090025,0.00441371,0.01811363,0.88562367,0.03702290,-0.45885289,0.06127022
1755645807740,43.83353625,39.53255867,56.47735242,0.55732178,0.04044532,0.45760323,0.88559283,0.03752449,-0.45881649,0.06168207
1755645807759,-3.69800355,-3.51175210,-4.82270342,0.03127754,0.01780973,0.04928007,0.88563709,0.03783570,-0.45863928,0.06217240
1755645807772,0.11667857,-0.10089267,-0.11996921,0.02622495,0.00274200,0.05018801,0.88561639,0.03800354,-0.45862174,0.06249361
1755645807794,-0.18143475,-0.09397381,-0.17603142,0.02487997,0.00320075,0.01519147,0.88561110,0.03827349,-0.45858701,0.06265843
1755645807804,0.67009107,-0.05221532,0.47999187,0.04297854,-0.01377372,-0.01623468,0.88557029,0.03849697,-0.45865863,0.06257401
1755645807834,-0.26684673,-0.00761324,-0.21495839,-0.00358056,-0.01176644,-0.01113673,0.88549452,0.03844434,-0.45883160,0.06241030
1755645807875,0.15331977,0.01805532,0.08110413,0.00239029,-0.02420592,0.00272057,0.88522730,0.03849406,-0.45933508,0.06246689
1755645807896,0.89878557,-0.19514773,0.87561522,-0.03808555,-0.09707511,-0.06661372,0.88477513,0.03810368,-0.46033010,0.06178410
1755645807928,-0.40732644,-0.00516552,-0.29094555,-0.03243110,-0.08565816,-0.03626427,0.88411717,0.03757992,-0.46171348,0.06119843
1755645807938,1.58315842,0.47819902,2.35793760,-0.06529465,-0.19834643,-0.00156014,0.88361291,0.03725344,-0.46270521,0.06119063
1755645807984,-0.57351161,-0.06057928,-0.68379710,-0.00357845,-0.03897681,-0.00605687,0.88315600,0.03717114,-0.46360168,0.06105132
1755645807995,2.17870541,-0.60840019,3.41879484,-0.07153007,-0.17485140,-0.04184706,0.88270873,0.03679918,-0.46451091,0.06083372
1755645808045,-0.52102983,0.12584878,-0.75742716,-0.00638070,-0.01430662,-0.01879590,0.88255902,0.03663935,-0.46486929,0.06036288
1755645808087,0.05265123,0.03304052,0.16452628,0.01798511,-0.04442368,0.01744468,0.88201720,0.03702333,-0.46581773,0.06073533
1755645808119,-0.18893945,0.08181560,-0.05348413,0.01261585,-0.00854913,0.00074485,0.88193690,0.03722203,-0.46595238,0.06074706
1755645808138,-0.35534854,0.07422006,0.31156405,0.10232126,0.02010848,0.06659424,0.88195236,0.03818896,-0.46576236,0.06137637
1755645808161,0.15172992,0.10688133,-0.52213420,0.06676257,0.02745813,0.04084465,0.88205570,0.03898010,-0.46543698,0.06186038
1755645808183,0.03977455,-0.09027251,-0.06173622,0.02001188,0.01087678,0.02130670,0.88209210,0.03919723,-0.46531896,0.06209156
1755645808204,0.09358985,-0.07508960,-0.02752756,0.03201859,0.00941257,0.02737291,0.88210927,0.03953983,-0.46521825,0.06238445
1755645808215,-0.29522268,0.32850066,0.06583003,0.04389915,0.01420522,0.02869868,0.88212809,0.03977688,-0.46514154,0.06253942
1755645808227,0.03195776,-0.30756612,-0.15155771,0.03672391,-0.00113758,0.02760738,0.88210298,0.03999539,-0.46514831,0.06270369
1755645808272,0.06749330,-0.05880586,-0.01466335,0.00218873,0.00284292,0.00203962,0.88213083,0.04004398,-0.46508520,0.06274897
1755645808313,0.06049319,-0.01793382,-0.00559743,0.01409525,0.00154199,0.01732125,0.88210884,0.04033505,-0.46505335,0.06310665
1755645808399,0.00198782,-0.02510393,-0.01074199,-0.00509347,0.00245976,0.00657340,0.88215443,0.04011552,-0.46494734,0.06338996
1755645808427,0.37139804,-0.16352210,-0.36760390,-0.02507192,0.06168535,0.02960319,0.88259350,0.03976577,-0.46408683,0.06380293
1755645808460,-0.23988991,0.20674443,0.20775141,-0.01230261,0.03464963,-0.04971288,0.88296190,0.03956277,-0.46351511,0.06298267
1755645808509,-0.00389347,-0.00903654,0.06055426,-0.01248584,-0.00420981,0.00296149,0.88291594,0.03925500,-0.46361888,0.06305567
1755645808540,0.05481192,-0.09993407,0.01939719,-0.02357059,-0.01348528,-0.00344927,0.88282817,0.03889790,-0.46382318,0.06300341
1755645808561,0.04332228,0.00651990,0.01703765,-0.01966814,0.00366967,-0.02053540,0.88287306,0.03869040,-0.46378447,0.06278676
