UnixTime(ms),Ax,Ay,Az,Gx,Gy,Gz,QuatW,QuatX,QuatY,QuatZ
1761619728279,0.00000000,0.00000000,0.00000000,0.00000000,0.00000000,0.00000000,0.99222362,0.09917358,-0.01362839,0.07396727
1761619728312,0.25710907,0.07658686,-0.00834770,-0.00767550,-0.02169925,-0.00475741,0.99223746,0.09904387,-0.01399511,0.07388687
1761619728318,6.79335596,-0.28151630,-0.01627801,-0.05729166,-0.11493387,-0.03727550,0.99225527,0.09889491,-0.01429394,0.07378996
1761619728322,-4.93137586,0.08759737,1.02813381,-0.04181708,-0.02379372,-0.01943275,0.99226817,0.09879246,-0.01435223,0.07374235
1761619728334,-0.88215858,-0.28448685,-0.27510504,-0.03721677,-0.02093854,-0.01363926,0.99229375,0.09857660,-0.01447368,0.07366324
1761619728345,0.05667258,-0.01207466,0.20136412,-0.01850577,-0.02049510,-0.02025539,0.99231032,0.09847574,-0.01458538,0.07355285
1761619728356,-0.13478078,0.19876294,0.04456787,-0.01521226,-0.03203508,-0.02212332,0.99232556,0.09838903,-0.01476798,0.07342675
1761619728367,-0.05621855,0.37927946,0.31979391,-0.00339347,-0.04175530,-0.02776264,0.99233534,0.09837020,-0.01499972,0.07327266
1761619728379,0.05418164,-0.05448400,-0.00000000,-0.00002931,-0.03708379,-0.01572660,0.99233867,0.09837004,-0.01520553,0.07318538
1761619728391,-0.18668962,-0.09892156,-0.07481904,-0.00449573,-0.04041206,-0.01418290,0.99234387,0.09834306,-0.01544801,0.07310028
1761619728401,0.03977461,-0.25033751,0.06094608,-0.01008227,-0.02589165,0.00383455,0.99234553,0.09828912,-0.01558653,0.07312080
1761619728413,-0.16668394,-0.00027948,-0.12480355,0.01286982,-0.02006526,0.00885951,0.99233285,0.09836184,-0.01569989,0.07317085
1761619728424,-0.06987538,0.02753707,0.01000075,0.00056981,-0.01985252,0.00997456,0.99232654,0.09836508,-0.01581305,0.07322771
1761619728435,-0.15898867,-0.21337533,0.02605217,0.00454263,-0.02504486,0.01214773,0.99231701,0.09838984,-0.01594955,0.07329391
1761619728446,-0.33230665,-0.40150056,0.19523689,0.00272750,-0.01344757,0.00947496,0.99231025,0.09840539,-0.01602620,0.07334792
1761619728457,-0.04970045,-0.01849127,-0.04073808,0.00419459,-0.01495477,0.00191257,0.99230581,0.09842867,-0.01610920,0.07335854
1761619728469,-0.02890370,0.02450174,0.00863002,0.00123728,-0.01265001,0.01713364,0.99229687,0.09843560,-0.01618004,0.07345448
1761619728480,0.23089167,0.48903291,-0.05687116,-0.01050214,0.00138044,0.01637503,0.99229602,0.09837573,-0.01617217,0.07354782
1761619728491,-0.10734483,0.02300747,-0.05866283,-0.00916602,0.00214788,0.01202848,0.99229631,0.09832486,-0.01616025,0.07361458
1761619728502,-0.14706446,-0.23139069,-0.20124610,-0.01507614,0.01721539,0.00722706,0.99230317,0.09824119,-0.01606470,0.07365469
1761619728514,-0.04581426,-0.08397886,-0.11384149,-0.02078273,0.01925662,0.00288810,0.99231544,0.09812273,-0.01595494,0.07367115
1761619728524,0.11575806,-0.12449068,0.05077863,-0.01551510,0.01084450,-0.00504600,0.99232668,0.09803895,-0.01589638,0.07364390
1761619728538,0.13997689,0.25722900,0.12820313,-0.01938302,0.01014170,-0.01363105,0.99234752,0.09790811,-0.01582792,0.07355189
1761619728546,0.12071362,-0.07702163,0.55868271,-0.03258234,0.01310547,-0.03263094,0.99236970,0.09778430,-0.01577812,0.07342790
1761619728557,0.00767420,0.01854705,-0.36089459,-0.00017510,-0.00176685,-0.01783355,0.99237690,0.09778334,-0.01578784,0.07332981
1761619728568,0.11970692,0.22255035,-0.02488135,-0.01358422,0.00560394,-0.03824826,0.99240069,0.09770726,-0.01575646,0.07311562
1761619728579,0.10256083,0.04428713,-0.03440922,-0.01155733,0.00645635,-0.01545001,0.99241412,0.09764196,-0.01571998,0.07302833
1761619728590,0.10456136,-0.00738115,-0.05974935,-0.02548998,0.00283799,-0.03420623,0.99244274,0.09749795,-0.01570395,0.07283506
1761619728602,-0.25458729,-0.23163721,-0.07225866,-0.02247456,-0.00358707,-0.03981601,0.99247112,0.09737209,-0.01572403,0.07261209
1761619728613,0.05068025,-0.07143503,-0.00306749,-0.02382774,-0.00668810,-0.02834250,0.99249542,0.09723746,-0.01576182,0.07245196
1761619728624,-0.05873539,0.48870309,-0.13375252,-0.00203734,-0.00675889,-0.02735491,0.99250710,0.09722605,-0.01579967,0.07229877
1761619728635,0.03580960,0.40217604,-0.06161652,-0.01547919,-0.00338675,-0.01466611,0.99252140,0.09713860,-0.01581881,0.07221591
1761619728647,0.01084863,0.01758864,-0.11793099,0.00541162,-0.00027976,-0.00488684,0.99252037,0.09716971,-0.01582042,0.07218781
1761619728658,0.05451817,-0.41023533,0.15588160,-0.00859642,-0.00644362,-0.01713420,0.99253138,0.09712200,-0.01585618,0.07209271
1761619728669,-0.00532541,-0.32136044,0.11204661,-0.03410532,-0.01468996,-0.00482608,0.99255035,0.09693442,-0.01593697,0.07206617
1761619728680,0.04202795,-0.08007253,-0.03949293,-0.02016805,-0.00069007,-0.00465765,0.99256343,0.09681947,-0.01594091,0.07203962
1761619728691,-0.10083493,-0.19858337,-0.16272303,-0.00193197,-0.01916926,-0.00901664,0.99256642,0.09680865,-0.01604825,0.07198913
1761619728702,-0.11428329,0.05365606,0.06474176,-0.01370627,-0.01148204,-0.02209835,0.99258156,0.09673326,-0.01611140,0.07186759
1761619728714,-0.00939962,0.09196000,-0.26125412,0.00960074,-0.00376257,-0.01493432,0.99258203,0.09678703,-0.01613247,0.07178396
1761619728725,0.02160579,0.24928479,-0.10362778,0.01716658,-0.01028047,-0.00725284,0.99257458,0.09688402,-0.01619056,0.07174298
1761619728736,0.08719751,0.01717365,0.01164460,0.01439148,-0.00012358,-0.02805278,0.99257801,0.09696389,-0.01619125,0.07158728
1761619728747,-0.01391707,-0.02244050,-0.01760935,-0.03616516,-0.00863183,-0.03406273,0.99261014,0.09676498,-0.01623872,0.07139994
1761619728758,-0.04893331,-0.20963613,0.17112836,-0.04979494,-0.00875979,-0.01611704,0.99264297,0.09648613,-0.01628778,0.07130968
1761619728769,0.01520527,-0.15736857,0.10643687,-0.05136953,-0.01378882,-0.00493899,0.99267161,0.09619846,-0.01636499,0.07128203
1761619728781,-0.05279946,0.05031611,0.13987710,-0.05849180,0.00197049,-0.00684550,0.99270592,0.09587383,-0.01635406,0.07124403
1761619728792,-0.03890356,-0.00368681,-0.16903873,-0.04485524,-0.00454970,0.00127784,0.99272921,0.09562264,-0.01637953,0.07125119
1761619728803,0.01520527,0.04240844,0.07602633,-0.03859259,0.00072884,-0.00601661,0.99275249,0.09540652,-0.01637545,0.07121750
1761619728814,0.02391180,0.06832528,-0.13835670,-0.02931820,-0.02205339,0.00123635,0.99276560,0.09524381,-0.01649785,0.07122436
1761619728825,0.03398772,0.09655116,0.03152903,-0.01641988,-0.02061035,-0.00960398,0.99277606,0.09515432,-0.01661018,0.07117202
1761619728837,-0.05745946,-0.00400467,0.04180032,-0.00666785,-0.03210004,-0.01699568,0.99278376,0.09511531,-0.01679796,0.07107259
1761619728869,0.01736877,-0.08319970,-0.04136027,-0.00474020,-0.01325463,0.00790105,0.99277835,0.09503947,-0.01701004,0.07119901
1761619728881,0.07953644,-0.28358921,-0.09193420,-0.00413337,-0.00802987,0.01575918,0.99277290,0.09501364,-0.01706022,0.07129750
1761619728893,-0.16960620,0.19566211,-0.01499919,-0.00860671,-0.01004956,0.01082739,0.99277216,0.09496415,-0.01711801,0.07135976
1761619728905,-0.08637764,0.05978178,0.07397325,0.00387828,-0.01225102,0.01153076,0.99276362,0.09498761,-0.01719213,0.07142952
1761619728917,0.02605490,0.07862268,-0.02605490,-0.01156150,-0.01274869,0.00971242,0.99276474,0.09491766,-0.01726926,0.07148828
1761619728928,-0.04331865,-0.01663656,-0.65807197,-0.06150793,0.00325371,0.01314833,0.99279188,0.09458244,-0.01725152,0.07155994
1761619728940,0.06970538,0.01506979,0.04813939,-0.02021141,0.00100461,0.01400717,0.99279766,0.09445713,-0.01724529,0.07164678
1761619728952,-0.10410752,-0.08019585,0.00011237,-0.00908549,-0.00752938,-0.01271123,0.99280731,0.09440398,-0.01728934,0.07157242
1761619728964,0.05548778,0.11218072,0.59068006,-0.04347081,-0.00143261,-0.02265439,0.99284143,0.09414533,-0.01729786,0.07143763
1761619728975,0.13023789,0.10188421,-0.03366945,-0.02386055,-0.00859032,-0.00472946,0.99285540,0.09400933,-0.01734683,0.07141067
1761619728987,-0.08729284,0.10076334,0.05882779,-0.01036097,0.00738063,-0.01400330,0.99286757,0.09394975,-0.01730439,0.07133015
1761619728998,0.20912329,0.10492784,-0.15864525,-0.01022591,0.00803364,0.00389387,0.99287233,0.09389095,-0.01725820,0.07135254
1761619729010,-0.03257809,0.11263579,0.01941582,-0.01235470,0.00250048,-0.00728184,0.99288256,0.09381806,-0.01724344,0.07130958
1761619729021,0.03469987,-0.12254005,-0.04473593,0.01663065,0.01210854,-0.00524091,0.99287709,0.09391036,-0.01717624,0.07128049
1761619729033,-0.03612071,-0.18058906,0.15305824,-0.00496434,0.00784220,-0.00423964,0.99288232,0.09388182,-0.01713115,0.07125612
1761619729044,0.03088431,-0.08955612,0.02845951,-0.00755164,-0.00317908,-0.00204496,0.99288691,0.09383877,-0.01714927,0.07124446
1761619729056,-0.08109379,0.13246679,0.11601092,-0.00164019,-0.00740139,-0.00840278,0.99289053,0.09382934,-0.01719183,0.07119614
1761619729067,-0.17703992,0.05378279,0.00077934,0.01529951,-0.02366254,-0.02179254,0.99288886,0.09391578,-0.01732552,0.07107302
1761619729078,0.09076064,-0.00143863,0.04601948,0.01528311,-0.00766348,-0.02907980,0.99289165,0.09400137,-0.01736844,0.07091017
1761619729089,0.11675623,0.04347749,-0.06027819,-0.01462173,-0.00633711,-0.01438931,0.99290476,0.09391802,-0.01740456,0.07082815
1761619729101,0.26417571,-0.10084312,-0.22014643,-0.00713757,-0.00765959,-0.01834465,0.99291529,0.09387734,-0.01744822,0.07072359
1761619729112,0.07842102,-0.00625588,0.01323396,-0.00932332,-0.01265383,-0.03220876,0.99293196,0.09382466,-0.01751971,0.07054161
1761619729123,-0.06721802,-0.23295828,-0.16431071,-0.00792010,-0.02931201,-0.03152358,0.99294589,0.09377991,-0.01768533,0.07036350
1761619729135,-0.07714866,-0.27360672,-0.17312990,-0.02048318,-0.01457688,-0.03023675,0.99296762,0.09366316,-0.01776841,0.07019115
1761619729146,0.05201802,-0.05712187,-0.16138923,0.00064438,-0.02988224,-0.03131739,0.99297665,0.09366677,-0.01793575,0.07001577
1761619729157,0.11589774,0.37165067,0.20018700,0.00620491,-0.03157448,-0.03201307,0.99298285,0.09370183,-0.01811415,0.06983490
1761619729168,0.17196753,0.28417339,0.16295202,0.01347299,-0.02929157,-0.02608046,0.99298298,0.09377727,-0.01827818,0.06968885
1761619729180,-0.01205564,-0.09492535,-0.00917277,0.01760873,-0.02942598,-0.01604320,0.99297681,0.09387764,-0.01844591,0.06959740
1761619729370,-0.03859060,0.00434256,0.01796374,-0.00002127,-0.00169674,-0.00250036,0.99299060,0.09387563,-0.01860693,0.06936012
1761619729372,208.43891751,-28.42296665,-196.72984695,-1.10115397,-2.32164867,-0.42308560,0.99309794,0.09249918,-0.02150899,0.06883126
1761619729407,-14.64070165,1.97491421,13.87584868,0.01769948,-0.02279755,0.00307251,0.99305648,0.09280981,-0.02190909,0.06888518
1761619729431,0.04501150,0.04019803,0.03947205,0.03257399,-0.00899000,0.01564943,0.99300400,0.09320395,-0.02201787,0.06907454
1761619729453,0.11304030,0.07841495,-0.09525828,0.01406295,-0.03344880,-0.02970490,0.99300393,0.09335302,-0.02237243,0.06875967
1761619729468,-0.58069366,0.27039159,-0.31715428,0.00878184,-0.04131831,-0.06211091,0.99302322,0.09342020,-0.02268851,0.06828452
1761619729481,0.03005761,0.06827215,0.05926951,-0.01576777,-0.04589516,-0.05311659,0.99305029,0.09331535,-0.02299371,0.06793129
1761619729493,0.55729746,-0.23781110,0.25793314,-0.02282325,-0.03357432,-0.02591983,0.99306940,0.09317613,-0.02319852,0.06777318
1761619729506,0.34209705,-0.19240262,0.28206247,-0.04156015,-0.04939074,-0.01394526,0.99309242,0.09291637,-0.02350721,0.06768602
1761619729518,-0.10599132,-0.07415223,0.21187841,-0.03588689,-0.03313730,-0.03608400,0.99312280,0.09269926,-0.02370769,0.06746772
1761619729530,-0.11724703,-0.17981440,-0.19541172,0.00259856,-0.04636358,-0.01589368,0.99312113,0.09271498,-0.02398819,0.06737156
1761619729542,-0.01146537,0.02351470,0.04920090,-0.02096549,-0.03928900,-0.01653148,0.99313376,0.09259024,-0.02422196,0.06727320
1761619729554,0.03516660,-0.04386539,0.05283623,0.00451791,-0.04742094,-0.02841986,0.99313575,0.09261689,-0.02450174,0.06710552
1761619729560,0.34016952,0.01552924,-0.04419836,0.01138962,-0.05926925,-0.02844525,0.99313380,0.09265334,-0.02469140,0.06701450
1761619729569,0.04642555,0.03365374,-0.10652684,0.02672317,-0.04359026,-0.03842628,0.99312928,0.09277493,-0.02488974,0.06683966
1761619729580,-0.12264125,0.09650806,0.33639733,-0.00224344,-0.04313710,-0.02618378,0.99313414,0.09276259,-0.02512699,0.06669565
1761619729592,-0.14914984,-0.02149742,-0.03096345,0.01205495,-0.01384202,-0.01731221,0.99313238,0.09283010,-0.02520451,0.06659870
1761619729603,0.16358157,-0.19049827,0.12384376,0.01303124,-0.01834859,-0.01086300,0.99312707,0.09290242,-0.02530634,0.06653841
1761619729614,0.31684488,-0.56092322,0.39424105,-0.02195327,-0.00896254,0.00451569,0.99313558,0.09277948,-0.02535653,0.06656370
1761619729625,0.11343883,-0.13401369,0.18296585,-0.00676847,-0.00145201,0.00343629,0.99313759,0.09274226,-0.02536452,0.06658259
1761619729636,-0.44759666,0.17840334,-0.40882512,-0.01308994,-0.01794591,-0.00796589,0.99314479,0.09266961,-0.02546412,0.06653838
1761619729647,-0.32508986,0.53434831,-0.10836329,-0.04786762,-0.00413436,-0.00336245,0.99317020,0.09240394,-0.02548707,0.06651972
1761619729658,0.17028516,-0.13881022,0.03096094,0.00999229,0.00465548,-0.01508072,0.99317130,0.09245940,-0.02546123,0.06643602
1761619729669,-0.12511162,0.08933041,0.03351458,-0.01990370,-0.01146078,-0.01421188,0.99318510,0.09234993,-0.02552426,0.06635786
1761619729680,-0.10616041,-0.12023986,-0.14127075,0.02214911,-0.01370326,-0.05102310,0.99319063,0.09247396,-0.02560100,0.06607213
1761619729692,-0.34941631,0.05864864,0.03192847,-0.00843354,0.01654977,-0.06386847,0.99322087,0.09242716,-0.02550915,0.06571766
1761619729703,-0.01862988,0.17610145,-0.04684866,0.01339665,0.01669988,0.00535528,0.99321430,0.09250218,-0.02541563,0.06574765
1761619729714,0.04561580,0.24693709,0.00000000,0.03847178,0.01113857,-0.01127686,0.99319998,0.09271762,-0.02535325,0.06568450
1761619729725,0.13201361,0.15690697,0.17917156,0.02256899,0.02116826,-0.01720985,0.99319763,0.09284062,-0.02523789,0.06559071
1761619729736,-0.22731176,-0.10783075,0.20575934,-0.00836521,0.00233572,-0.01755131,0.99320882,0.09279378,-0.02522481,0.06549242
1761619729747,-0.00490676,-0.23852946,0.01976524,-0.02542020,0.00366209,-0.02363620,0.99323115,0.09265269,-0.02520448,0.06536124
1761619729758,0.34057033,-0.03634282,0.18576563,-0.01201295,-0.01113137,-0.00616906,0.99323805,0.09258602,-0.02526626,0.06532700
1761619729770,0.21275613,0.01948908,-0.14627825,-0.00518442,-0.03064082,-0.00433763,0.99323797,0.09255673,-0.02543938,0.06530249
1761619729781,-0.01534347,0.24583727,-0.03685174,0.05171168,-0.06267059,-0.01383308,0.99320726,0.09284373,-0.02578720,0.06522572
1761619729792,0.05510024,0.24048606,-0.16885098,0.05226051,-0.03895495,-0.00561352,0.99317679,0.09313116,-0.02600146,0.06519484
1761619729803,0.01576321,0.07290485,-0.20492175,0.03403236,-0.03801677,-0.02041226,0.99316109,0.09331834,-0.02621055,0.06508258
1761619729814,0.02077648,-0.09788253,0.04155296,0.01736842,-0.03376366,-0.01426424,0.99315209,0.09341647,-0.02640131,0.06500198
1761619729825,-0.14135843,0.00476596,0.23100383,0.02909226,-0.02958383,-0.02136141,0.99314048,0.09357502,-0.02656254,0.06488556
1761619729836,0.10029896,-0.12348884,0.12638506,0.02703684,-0.03790726,-0.00325752,0.99312169,0.09372643,-0.02677483,0.06486732
1761619729847,0.03041053,-0.11083214,-0.00000000,0.03457650,-0.06155791,-0.02174738,0.99310199,0.09392006,-0.02711955,0.06474554
1761619729858,-0.07740863,0.01982387,0.23025549,-0.02503516,-0.07153605,-0.04321421,0.99311965,0.09378237,-0.02751300,0.06450786
1761619729869,-0.03041053,-0.04521785,-0.25655432,0.01153670,-0.05485232,-0.01847858,0.99311171,0.09384697,-0.02782017,0.06440438
1761619729881,-0.17559298,0.20861136,-0.38997367,0.04942666,-0.05026675,-0.02439178,0.99308598,0.09412870,-0.02810669,0.06426534
1761619729892,-0.04475405,0.12677176,-0.09295071,0.07171661,-0.04335111,-0.03475886,0.99305467,0.09451597,-0.02834079,0.06407765
1761619729903,-0.09374284,-0.09582740,0.06192188,0.06370306,-0.04318422,-0.01908471,0.99302092,0.09486953,-0.02858046,0.06397173
1761619729914,0.07150585,-0.18208435,0.36437846,0.04373261,-0.05058424,0.01533115,0.99298376,0.09511443,-0.02886373,0.06405758
1761619729925,0.26290785,-0.45159139,-0.14975051,0.09121146,-0.03004035,-0.00225364,0.99293157,0.09561609,-0.02902895,0.06404519
1761619729936,0.02308436,-0.33134738,-0.15702893,0.12565376,-0.06013674,-0.01130778,0.99285773,0.09631975,-0.02936572,0.06398186
1761619729947,-0.05411253,-0.57137035,-0.01437472,0.10221670,-0.05485779,-0.02884106,0.99280379,0.09688705,-0.02967018,0.06382179
1761619729958,-0.05559727,-0.33308134,-0.12511162,0.04259467,-0.07218177,-0.01226386,0.99277329,0.09712133,-0.03006718,0.06375434
1761619729970,-0.08458960,-0.01615971,-0.04349560,0.03123331,-0.07000881,-0.02677480,0.99275348,0.09729936,-0.03046623,0.06360173
1761619729981,0.07978398,0.38939951,-0.15984450,-0.01089849,-0.07006831,-0.00560351,0.99274942,0.09723941,-0.03085161,0.06357091
1761619729992,-0.11822409,0.34195702,-0.14186891,-0.05567610,-0.08277960,-0.02015535,0.99277221,0.09693319,-0.03130689,0.06346005
1761619730004,-0.51898186,0.44849767,-0.05177777,-0.07929332,-0.06172624,-0.02357854,0.99281583,0.09645743,-0.03167725,0.06331858
1761619730014,0.12638066,0.00453492,0.14342735,-0.07500335,-0.08837475,0.00807983,0.99283620,0.09606742,-0.03213680,0.06336060
1761619730025,0.19982315,0.22931768,0.23787368,-0.09478837,-0.08235858,-0.00811035,0.99287424,0.09555082,-0.03258565,0.06331640
1761619730036,0.26344170,-0.04889264,0.19892395,-0.04762153,-0.08202546,0.00248906,0.99288379,0.09528414,-0.03304500,0.06333033
1761619730047,-0.04056712,0.26156794,0.07878453,-0.03478466,-0.08383880,0.00281298,0.99288571,0.09509109,-0.03351030,0.06334595
1761619730058,-0.15746355,0.51760218,0.04356103,-0.05586199,-0.08645822,-0.01195238,0.99290343,0.09477826,-0.03399447,0.06327901
1761619730069,-0.13356507,0.49039192,0.03659317,0.00086190,-0.07548128,0.00982958,0.99288523,0.09478300,-0.03440961,0.06333308
1761619730081,-0.04158617,0.59562205,0.10554865,0.04647065,-0.07322212,0.02385203,0.99283796,0.09504091,-0.03481600,0.06346545
1761619730092,0.01756146,0.48071329,0.15704390,0.08417838,-0.07342498,0.04562877,0.99276116,0.09551652,-0.03523085,0.06372326
1761619730103,-0.03124743,0.74734179,0.07895556,0.16038015,-0.08497958,0.05411489,0.99264005,0.09639861,-0.03569824,0.06402089
1761619730114,-0.28104089,3.21868589,0.42754242,0.20936542,-0.08869282,0.02615495,0.99249932,0.09756059,-0.03619048,0.06416605
1761619730125,-0.26811661,-3.11620686,-0.60482450,0.23235625,-0.08974875,0.03137850,0.99234357,0.09883855,-0.03668410,0.06433863
1761619730136,-0.39597524,-0.10642561,0.25624324,0.21199533,-0.09438656,0.01570726,0.99219792,0.10003632,-0.03721738,0.06442738
1761619730147,-0.47596530,0.00194125,-0.18441563,0.18935909,-0.09127015,-0.00268768,0.99207437,0.10107780,-0.03771937,0.06441259
1761619730158,0.26374226,-0.16135347,-0.22282627,0.16911881,-0.07956737,0.00700702,0.99195782,0.10202486,-0.03816495,0.06445183
1761619730169,0.45657017,0.05536091,0.16382481,0.17804800,-0.07248497,0.04179148,0.99182623,0.10300412,-0.03856361,0.06468169
1761619730181,-0.38759607,-0.40480620,-0.25213096,0.21788053,-0.06597981,0.05374728,0.99166465,0.10422426,-0.03893310,0.06498267
1761619730192,-0.22012199,-0.05294080,-0.46839258,0.20378300,-0.08123577,0.02742499,0.99151867,0.10534506,-0.03937990,0.06513351
1761619730203,-0.07726677,-0.60225690,0.02064068,0.19234583,-0.05086948,0.05447466,0.99137087,0.10643182,-0.03966731,0.06544129
1761619730215,-0.01467647,-0.27441960,-0.20772846,0.13794344,-0.04590577,0.08203205,0.99124244,0.10723189,-0.03993356,0.06591708
1761619730225,-0.28202332,-0.35706947,-0.35733891,0.13870759,-0.06378283,0.08454098,0.99112022,0.10796010,-0.04026842,0.06636092
1761619730236,0.07883339,-0.41755667,0.32204277,0.10236706,-0.04780347,0.11780071,0.99100019,0.10854360,-0.04054090,0.06703238
1761619730248,-0.11325186,-0.73267353,-0.38293793,0.11516852,-0.04057463,0.12573710,0.99087328,0.10918278,-0.04076609,0.06773022
1761619730258,0.64570041,2.34119918,0.90910729,0.07151393,-0.03949336,0.14954657,0.99076632,0.10956896,-0.04097936,0.06853777
1761619730269,-0.94666844,-3.04389856,-1.27827972,0.03867018,-0.05913877,0.15222099,0.99067100,0.10978164,-0.04130462,0.06937499
1761619730281,-0.02828548,-0.17475999,-0.17958611,0.06757070,-0.02515962,0.18149384,0.99054926,0.11016679,-0.04144803,0.07040950
1761619730292,0.08351306,-0.11749275,-0.31572010,0.06047963,-0.03656278,0.20778645,0.99042071,0.11050246,-0.04165095,0.07156272
1761619730303,0.27864845,-2.06543325,-1.91957820,0.09241804,-0.04164910,0.19301073,0.99027561,0.11101538,-0.04188211,0.07263393
1761619730314,0.12099330,1.26793033,1.51170622,-0.00867667,-0.04135911,0.20937976,0.99018617,0.11096766,-0.04210958,0.07378552
1761619730325,0.24293543,-0.21238841,0.29399396,-0.10073048,-0.04752074,0.19077406,0.99015743,0.11039853,-0.04237807,0.07486339
1761619730336,-0.42450151,0.73524033,-0.87031333,-0.14184302,-0.05988339,0.20566040,0.99014392,0.10962548,-0.04270444,0.07598424
1761619730347,0.42116818,-0.30944906,-0.47833230,-0.10989104,-0.04784978,0.22335965,0.99010386,0.10901559,-0.04297000,0.07722389
1761619730358,0.06192188,-0.18951481,0.06192188,-0.10335568,-0.06144621,0.19579003,0.99006664,0.10844196,-0.04331103,0.07831052
1761619730370,-0.05972519,0.12313665,0.65067582,-0.17541701,-0.06503835,0.17143273,0.99008135,0.10745963,-0.04367524,0.07927054
1761619730381,0.09896443,-0.25888375,0.02460289,-0.19715691,-0.06136066,0.13623974,0.99012360,0.10636541,-0.04401580,0.08002667
1761619730392,0.49537502,0.30313903,0.15480469,-0.25070699,-0.06457185,0.14744123,0.99018962,0.10497398,-0.04437417,0.08084497
1761619730403,-0.00411832,-0.21003609,-0.32009261,-0.24065946,-0.08596002,0.16479336,0.99023334,0.10365036,-0.04484695,0.08175134
1761619730414,0.07156343,0.27428129,-0.17218676,-0.21567679,-0.06357231,0.11031928,0.99029216,0.10243178,-0.04520613,0.08237464
1761619730425,0.16293302,0.18470007,0.31875167,-0.20617455,-0.07232783,0.09772235,0.99034570,0.10129782,-0.04560394,0.08291211
1761619730436,0.39407412,-0.20987543,0.13783089,-0.15731866,-0.06584439,0.09788826,0.99037256,0.10040897,-0.04597596,0.08346518
1761619730447,0.16735702,0.15990285,0.65323224,-0.14334414,-0.08954895,0.05804309,0.99040197,0.09962775,-0.04646400,0.08378152
1761619730459,-0.27706686,0.31784406,0.05371974,-0.10891242,-0.12122589,0.03019434,0.99041712,0.09900150,-0.04716105,0.08395513
1761619730470,0.50101728,0.21205593,0.23229110,-0.10575008,-0.11937284,0.02892377,0.99043000,0.09842516,-0.04781163,0.08411277
1761619730481,0.31986859,0.16649560,-0.10085695,-0.04794073,-0.11635667,0.04235635,0.99040480,0.09815670,-0.04846323,0.08434996
1761619730492,-0.04700815,0.35824032,0.25699665,-0.03667632,-0.09382288,0.04366945,0.99037890,0.09795498,-0.04897925,0.08459015
1761619730503,-0.89655781,-1.05579950,-0.75418122,-0.02001529,-0.11258900,0.04361930,0.99033770,0.09784289,-0.04960975,0.08483441
1761619730514,0.94361754,1.52728447,1.22074559,0.03055098,-0.11219075,0.04064757,0.99027020,0.09801245,-0.05023241,0.08506001
1761619730525,-0.11610352,0.35009444,0.27864845,0.02173885,-0.11339950,0.00339424,0.99022450,0.09813310,-0.05086178,0.08507885
1761619730536,-0.15869641,0.06638365,-0.02630100,0.05300835,-0.12043339,0.00145697,0.99015947,0.09842994,-0.05153620,0.08508701
1761619730547,-0.09162367,0.22842198,0.16438778,0.06602930,-0.09770803,0.01210206,0.99008946,0.09879311,-0.05207360,0.08515357
1761619730570,0.00655206,0.03877581,-0.01065983,0.07348618,-0.09327620,0.00503573,0.98994535,0.09962350,-0.05312762,0.08521047
1761619730581,0.13070170,0.04012951,0.07468669,0.04505259,-0.07931691,-0.00301237,0.98989701,0.09987805,-0.05357576,0.08519345
1761619730593,-0.20165406,-0.10995864,-0.07468669,0.06619189,-0.04882712,-0.01307801,0.98985059,0.10025203,-0.05385163,0.08511956
1761619730604,-0.05397615,-0.16823264,-0.13014554,0.03936770,-0.04550382,0.00258593,0.98981343,0.10047052,-0.05410418,0.08513391
1761619730615,-0.38701173,0.01792953,-0.66566018,0.02420707,-0.02798810,-0.01127133,0.98979666,0.10060487,-0.05425951,0.08507136
1761619730626,-0.08026886,-0.09584242,0.05886383,0.01919568,-0.00686774,0.00232331,0.98978288,0.10070949,-0.05429694,0.08508402
1761619730637,-0.03668713,-0.03113028,-0.09663927,0.02372079,0.00364764,-0.02271479,0.98978134,0.10084825,-0.05427560,0.08495114
1761619730648,0.05524696,0.11627097,0.33447193,0.03781966,-0.00122549,-0.01718233,0.98976823,0.10105059,-0.05428216,0.08485921
1761619730659,-0.04277369,-0.01452721,-0.11368424,0.02223827,0.01659299,-0.03456325,0.98977717,0.10117512,-0.05418924,0.08466566
1761619730671,-0.10933082,0.02212818,-0.16365068,0.02127154,0.01608909,-0.03265018,0.98978546,0.10129318,-0.05409995,0.08448445
1761619730681,-0.01548047,-0.01040094,-0.41797267,0.02110539,0.01172182,-0.03840541,0.98979519,0.10141032,-0.05403489,0.08427130
1761619730692,-0.14399907,-0.15675897,0.00142011,-0.00161610,0.01014978,-0.03988205,0.98981780,0.10140143,-0.05397907,0.08405195
1761619730704,0.07151423,-0.23738237,0.06804526,0.01143181,0.01849185,-0.06013729,0.98984592,0.10146659,-0.05387366,0.08370916
1761619730715,-0.04684879,-0.12752371,0.12995447,0.01029497,0.02915736,-0.04651355,0.98987065,0.10152373,-0.05371184,0.08345101
1761619730726,-0.09170625,-0.03748614,-0.00618741,-0.01187200,0.01375914,-0.03628770,0.98989775,0.10145962,-0.05363754,0.08325506
1761619730737,-0.14635661,0.01710180,-0.26743714,0.00452318,0.01470812,-0.02662404,0.98991240,0.10148540,-0.05355370,0.08310330
1761619730748,-0.31001677,0.11472463,-0.36949436,-0.03912477,-0.01179644,-0.03575490,0.98994773,0.10126826,-0.05361917,0.08290486
1761619730759,-0.04888446,-0.16016259,0.01055789,-0.03131855,-0.01794841,-0.02336944,0.98997053,0.10109757,-0.05371699,0.08277750
1761619730771,0.28989312,-0.17745282,0.24694101,-0.04032848,-0.01433653,-0.00525063,0.98999204,0.10086770,-0.05379871,0.08274757
1761619730782,-0.00801988,-0.09220053,0.09347308,-0.04432454,-0.00728241,0.00185964,0.99001382,0.10062391,-0.05383876,0.08275780
1761619730793,-0.02770197,0.16034961,-0.44974965,-0.00883645,0.00653081,0.01268210,0.99001491,0.10057399,-0.05380186,0.08282945
1761619730804,-0.02781005,0.11121932,-0.34769408,-0.02098760,0.01086224,0.01512127,0.99002298,0.10045751,-0.05374158,0.08291338
1761619730815,-0.06972505,-0.27994230,-0.22150375,-0.01182181,-0.01515625,0.01240600,0.99001927,0.10039130,-0.05382645,0.08298285
1761619730826,-0.46372299,-0.02850567,0.65695242,-0.01958452,0.00135905,-0.00450869,0.99003279,0.10028261,-0.05381891,0.08295783
1761619730837,0.00433133,-0.21946234,0.15479190,-0.03282059,0.01579529,0.00576125,0.99005312,0.10010210,-0.05373204,0.08298951
1761619730848,-0.07395442,0.19359932,0.23361436,-0.08151371,0.03363043,0.04277121,0.99008894,0.09964970,-0.05354539,0.08322689
1761619730860,0.02287700,0.51218178,-0.32996713,-0.06297310,0.05255716,0.05313979,0.99011542,0.09929390,-0.05324844,0.08352713
1761619730871,-0.25549624,-0.01363879,-0.11302113,-0.05470855,0.04171851,0.03743182,0.99014070,0.09899026,-0.05301690,0.08373488
1761619730882,0.12766781,0.08875710,0.09117101,-0.05296847,0.04851217,0.02600211,0.99017193,0.09869894,-0.05275009,0.08387789
1761619730893,0.07881606,-0.65284943,0.34679066,-0.03025222,0.04579271,0.04042943,0.99018302,0.09853255,-0.05249823,0.08410025
1761619730904,0.22144397,0.03885496,0.22697316,-0.05012869,0.02446961,0.04256446,0.99019790,0.09825183,-0.05236120,0.08433861
1761619730915,0.06948529,-0.00729388,0.08709001,-0.04780481,0.01521367,0.04350668,0.99020824,0.09798173,-0.05227524,0.08458443
1761619730926,-0.21580247,0.26853025,-0.03395444,-0.05531008,0.00543446,0.03041373,0.99022541,0.09768029,-0.05224562,0.08475018
1761619730937,-0.01213631,-0.36148445,0.44695114,-0.03750601,0.01788157,0.02664753,0.99023860,0.09747026,-0.05214548,0.08489941
1761619730949,0.00000000,0.05773250,0.21287373,-0.02962759,0.02110087,0.03279891,0.99024537,0.09730435,-0.05202732,0.08508308
1761619730960,-0.06082107,-0.26564670,-0.44095273,-0.02009435,0.02666797,0.02505888,0.99025219,0.09719182,-0.05187798,0.08522341
1761619730971,0.56849259,0.37452996,0.34568441,-0.03346578,0.01905733,0.01054097,0.99027090,0.09700608,-0.05177221,0.08528191
1761619730982,0.08800918,0.02504485,0.04387002,-0.02867300,-0.01064401,-0.00166225,0.99028442,0.09684408,-0.05183235,0.08527252
1761619730995,0.24921121,0.28272609,-0.05079005,0.00390575,-0.01286221,-0.01948106,0.99028839,0.09686908,-0.05191467,0.08514784
1761619731003,0.05960464,0.05765418,-0.67297563,-0.00749445,-0.00380671,0.01918060,0.99028364,0.09683722,-0.05193085,0.08522936
1761619731015,0.18886173,0.17722612,0.34348430,0.00507696,-0.02679515,-0.01016516,0.99027793,0.09686540,-0.05207956,0.08517294
1761619731026,0.01434310,-0.01325472,0.36922839,0.02286719,-0.00974302,-0.01817475,0.99027139,0.09699117,-0.05213315,0.08507298
1761619731037,-0.04728964,-0.17145572,0.20492175,0.02770371,-0.01265304,-0.02360654,0.99026394,0.09714354,-0.05220274,0.08494315
1761619731049,0.13365890,0.03750220,0.17821187,0.00814495,-0.01489067,-0.02371982,0.99026663,0.09719241,-0.05229208,0.08480083
1761619731060,-0.25324825,-0.09678721,-0.13592194,0.00125267,-0.04962521,-0.06232750,0.99028067,0.09719924,-0.05256254,0.08446114
1761619731071,0.11237640,0.11482209,-0.09632263,0.03044917,-0.05420132,-0.05194727,0.99027275,0.09736519,-0.05285794,0.08417803
1761619731082,0.14166007,0.04487690,0.22501004,0.01508138,-0.05100947,-0.02990673,0.99026338,0.09744964,-0.05314359,0.08401055
1761619731093,0.15205267,0.08419322,0.12164213,0.01563449,-0.06687516,-0.04918577,0.99025792,0.09753720,-0.05351809,0.08373511
1761619731104,0.02004905,0.03175508,0.13392241,-0.00822798,-0.04777206,-0.04756952,0.99027067,0.09749030,-0.05379039,0.08346397
1761619731115,-0.07373592,0.05727917,0.03177570,0.02102317,-0.05603399,-0.04282502,0.99026224,0.09760697,-0.05410138,0.08322629
1761619731127,0.07547840,0.01140743,-0.00054794,0.01102267,-0.04419323,-0.03325923,0.99025824,0.09766870,-0.05434886,0.08304004
1761619731137,-0.00163620,-0.02295362,0.06961300,0.00652123,-0.06035005,-0.03054896,0.99025072,0.09770359,-0.05467173,0.08287660
1761619731148,0.02604191,-0.13950196,-0.00462967,-0.01612955,-0.07320169,-0.04553470,0.99025815,0.09761407,-0.05507800,0.08262388
1761619731160,-0.25992787,0.05267932,-0.09232747,0.00925175,-0.07172309,-0.04417972,0.99025123,0.09766588,-0.05547965,0.08237648
1761619731171,-0.07602633,0.13408550,-0.19766846,0.00823236,-0.06603236,-0.05626677,0.99025206,0.09771198,-0.05584943,0.08206138
1761619731182,0.12225424,0.05530953,0.15328429,-0.00869191,-0.08335010,-0.05248260,0.99025471,0.09766374,-0.05631203,0.08177010
1761619731193,0.29968875,-0.13929556,0.07495583,-0.01067484,-0.09323640,-0.04917257,0.99025347,0.09760343,-0.05683881,0.08149228
1761619731204,0.64977418,-0.26715078,0.02987468,-0.00753208,-0.09517770,-0.04258150,0.99024642,0.09756087,-0.05737657,0.08125169
1761619731215,0.06451757,0.08006255,0.01827417,-0.02912461,-0.10680093,-0.07733535,0.99026279,0.09740069,-0.05796397,0.08082635
1761619731227,0.00552919,-0.03303204,0.15011745,0.00574519,-0.10331843,-0.07922474,0.99026170,0.09743286,-0.05854256,0.08038269
1761619731238,-0.21018968,0.02167065,0.34129149,-0.00275146,-0.11911840,-0.11243949,0.99027457,0.09741731,-0.05921557,0.07974741
1761619731249,0.26926427,-0.03088361,0.10384244,0.01868396,-0.13033165,-0.13881506,0.99028259,0.09752101,-0.05993891,0.07897698
1761619731260,0.34054318,-0.03927760,0.17616192,-0.00247743,-0.16177698,-0.16887764,0.99030368,0.09750714,-0.06084487,0.07803127
1761619731271,0.53877562,0.17148756,0.13186043,0.00232290,-0.20040164,-0.18680273,0.99031460,0.09752003,-0.06195709,0.07699451
1761619731282,0.91611243,0.22674595,-0.06944334,0.02511892,-0.20352795,-0.19134612,0.99031158,0.09765818,-0.06307650,0.07594211
1761619731294,0.87748211,0.36553115,0.02875178,0.02467888,-0.20404491,-0.19189091,0.99030633,0.09779639,-0.06421915,0.07486752
1761619731305,-0.53932850,-0.38438990,0.13268974,0.01680772,-0.18800721,-0.22155187,0.99032109,0.09788967,-0.06526259,0.07363791
1761619731316,-0.23220704,-0.36829609,0.30960939,0.01585187,-0.23218445,-0.24645161,0.99032740,0.09797765,-0.06655121,0.07227010
1761619731321,0.14854342,-0.15544981,-0.47829277,0.00003796,-0.23811518,-0.26449832,0.99033598,0.09797775,-0.06720603,0.07154273
1761619731332,0.45911944,0.38611055,0.35740975,-0.01902095,-0.27899708,-0.31761645,0.99036639,0.09787028,-0.06878236,0.06974820
1761619731344,0.40334324,0.26343750,-0.12312229,-0.01870784,-0.32268450,-0.30088656,0.99036682,0.09776552,-0.07058940,0.06806323
1761619731355,-0.06082107,-0.02016480,-0.12164213,0.03325002,-0.32675623,-0.28628027,0.99032519,0.09795172,-0.07241923,0.06646006
1761619731366,-0.29232313,-0.03600601,-0.16523224,0.06293424,-0.30674606,-0.30300801,0.99027652,0.09829786,-0.07410634,0.06479352
1761619731377,0.37077995,0.01824599,0.26924575,0.03060066,-0.27909691,-0.26544263,0.99023670,0.09847228,-0.07569719,0.06328050
1761619731388,0.06498868,-0.10911692,-0.02682511,0.03623072,-0.31243611,-0.32012622,0.99019496,0.09867155,-0.07741559,0.06151980
1761619731400,0.21080029,-0.13536143,-0.41994182,0.02601645,-0.30243553,-0.31369767,0.99015416,0.09881724,-0.07910923,0.05976310
1761619731411,0.31931060,0.36195662,-0.36492640,0.00736143,-0.30807619,-0.27653497,0.99010296,0.09885847,-0.08083445,0.05821450
1761619731422,0.21493420,-0.43361421,-0.25614366,0.02362921,-0.33172499,-0.21142252,0.99000791,0.09898724,-0.08264235,0.05706225
1761619731433,-0.68967667,-0.01871062,0.51700443,0.02480017,-0.31326511,-0.28248246,0.98993727,0.09912365,-0.08436531,0.05550859
1761619731444,-0.14002668,0.10597898,0.25848953,-0.00796695,-0.26492123,-0.21300554,0.98988035,0.09907903,-0.08584887,0.05431576
1761619731455,-0.08362897,-0.26404302,-0.21287373,-0.00333691,-0.24920704,-0.18596849,0.98981680,0.09906034,-0.08724443,0.05327434
1761619731466,-0.46376063,-0.10762478,-0.19766846,0.00312867,-0.23839148,-0.18800242,0.98975258,0.09907786,-0.08857942,0.05222153
1761619731477,-0.20092053,0.68211905,-0.02107232,0.00217908,-0.19976987,-0.16278040,0.98969779,0.09909018,-0.08970812,0.05130182
1761619731489,-0.07825264,-0.10205389,-0.00584460,0.00803099,-0.17128498,-0.12139019,0.98963985,0.09913595,-0.09068445,0.05060989
1761619731500,-0.27208229,0.11019229,-0.06879037,0.01031981,-0.17189853,-0.14545853,0.98958622,0.09919426,-0.09165567,0.04978805
1761619731511,-0.03620403,-0.56310251,-0.02583856,0.02619592,-0.15903269,-0.16750412,0.98953813,0.09933310,-0.09249855,0.04890028
1761619731522,-0.19570176,-0.48499062,-0.51007374,0.02067778,-0.13127689,-0.15441988,0.98950056,0.09944683,-0.09322057,0.04805097
1761619731533,-0.20493631,0.27581366,0.34956584,-0.05225803,-0.11362338,-0.12709416,0.98950414,0.09914896,-0.09386822,0.04732653
1761619731544,0.17191469,-0.07506786,-0.63836567,-0.03842835,-0.10250567,-0.11260623,0.98950105,0.09893568,-0.09443713,0.04670157
1761619731555,-0.19753719,-0.12789026,-0.19100468,-0.00644243,-0.08508862,-0.11198481,0.98948869,0.09890024,-0.09490512,0.04608565
1761619731567,-0.34369527,-0.11904793,0.08672435,0.00914526,-0.06683500,-0.11950894,0.98947836,0.09895237,-0.09528608,0.04540445
1761619731578,-0.10143781,0.17991590,0.58011022,-0.02369728,-0.06169847,-0.10342499,0.98948464,0.09882085,-0.09562850,0.04483044
1761619731589,-0.26409482,0.29729092,-0.28865396,-0.03089683,-0.05953080,-0.09159071,0.98949281,0.09864629,-0.09596485,0.04431295
1761619731600,0.07567737,0.18490632,-0.09499776,-0.01374403,-0.05926895,-0.06503465,0.98948463,0.09857069,-0.09629083,0.04395526
1761619731611,-0.02286888,0.15189523,-0.07641723,-0.01725426,-0.05403233,-0.09408403,0.98948799,0.09847493,-0.09659071,0.04343310
1761619731622,-0.17070282,-0.36112102,0.22728976,-0.02898357,-0.06455091,-0.11544247,0.98949702,0.09831117,-0.09695542,0.04278085
1761619731634,0.13538228,-0.50630572,0.33228293,-0.04421205,-0.09143458,-0.12813328,0.98950197,0.09806801,-0.09745831,0.04207612
1761619731645,0.07782332,-0.03842570,0.16062291,-0.04985988,-0.10792613,-0.12368401,0.98949910,0.09778879,-0.09806270,0.04138348
1761619731656,0.13911690,-0.19332770,0.06675952,-0.05654964,-0.08786544,-0.11690516,0.98950854,0.09747494,-0.09855035,0.04073466
1761619731667,-0.02322070,0.17182716,-0.49537502,-0.04728740,-0.08930662,-0.08567025,0.98950433,0.09721250,-0.09904600,0.04025919
1761619731678,0.15123076,-0.33227328,0.01424638,-0.02277537,-0.07916187,-0.09628702,0.98949417,0.09708496,-0.09948931,0.03971998
1761619731689,-0.15259320,-0.01791171,0.00110575,-0.02740165,-0.09681490,-0.14651629,0.98948722,0.09693288,-0.10002663,0.03890682
1761619731700,0.06192188,0.64921218,0.58825784,-0.07715196,-0.09656748,-0.13811262,0.98950459,0.09650468,-0.10056258,0.03814029
1761619731711,0.46441408,-0.14373858,-0.29412892,-0.02697282,-0.11497215,-0.09400232,0.98947409,0.09635498,-0.10120068,0.03761858
1761619731723,-0.19001370,0.28944797,0.11223189,0.00319129,-0.12299136,-0.09612170,0.98942152,0.09637301,-0.10189558,0.03707549
1761619731734,0.23184667,0.03461763,-0.80116953,0.01428359,-0.12447235,-0.11331345,0.98936527,0.09645300,-0.10259262,0.03644094
1761619731745,0.03690433,0.17996262,0.19875817,-0.01812339,-0.11167511,-0.11040566,0.98933298,0.09635242,-0.10321242,0.03582819
1761619731756,0.04644141,-0.28387915,0.06192188,-0.02345158,-0.10883591,-0.10217932,0.98930282,0.09622226,-0.10381646,0.03526109
1761619731767,-0.62238854,-0.06343768,0.22821598,-0.06393277,-0.10252374,-0.10964649,0.98929886,0.09586424,-0.10439059,0.03464707
1761619731778,0.09391945,-0.32771925,-0.01354541,-0.05534370,-0.07675039,-0.09644071,0.98930214,0.09555708,-0.10481656,0.03411182
1761619731790,-0.16047545,-0.12179691,-0.15287221,-0.06997554,-0.05204657,-0.09854856,0.98932809,0.09516172,-0.10511062,0.03355503
1761619731801,0.00856221,0.37031838,-0.33974835,-0.09533791,-0.05042916,-0.07092234,0.98936234,0.09463259,-0.10539050,0.03316141
1761619731812,0.31122852,0.05655101,-0.05821836,-0.06225301,-0.01167913,-0.05445584,0.98939883,0.09428398,-0.10545591,0.03285645
1761619731823,0.00760263,0.14329182,0.01520527,-0.05104417,-0.02166555,-0.06072146,0.98942432,0.09399813,-0.10557723,0.03251641
1761619731834,-0.62341593,-0.32504227,0.18246320,-0.04065138,-0.02294342,-0.04514690,0.98944048,0.09377048,-0.10570572,0.03226359
1761619731845,-0.14651342,-0.08139341,0.20210689,-0.04792018,-0.00795909,-0.06913420,0.98947307,0.09350692,-0.10574949,0.03188335
1761619731857,0.16670501,0.37644266,-0.41137157,-0.07335014,-0.01277186,-0.04410628,0.98951208,0.09309616,-0.10582101,0.03163636
1761619731868,0.18369236,0.25338038,-0.15812194,-0.08415557,-0.00790557,-0.03444010,0.98955731,0.09262910,-0.10586489,0.03144521
1761619731879,-0.14109728,-0.09999753,0.00915080,-0.07242828,-0.00126511,-0.03710118,0.98960141,0.09221988,-0.10587204,0.03123559
1761619731890,-0.35947568,-0.49825032,0.22289136,-0.08358614,0.00735126,-0.04796228,0.98965726,0.09175597,-0.10583124,0.03096940
1761619731901,-0.33283009,-0.34407762,0.20124610,-0.09487203,0.04100748,-0.03511962,0.98973632,0.09122943,-0.10560365,0.03077449
1761619731912,-0.09102612,-0.00639894,-0.09040969,-0.14322088,0.04686124,-0.00490114,0.98983874,0.09042740,-0.10534122,0.03074704
1761619731923,-0.04747805,-0.25039222,-0.23386566,-0.13500394,0.05583437,-0.02055501,0.98994337,0.08967813,-0.10503134,0.03063296
1761619731935,-0.14706446,-0.15495587,-0.27864845,-0.19861195,0.05083532,-0.03417688,0.99007835,0.08857583,-0.10474921,0.03044328
1761619731946,-0.07328664,-0.20897637,-0.02424624,-0.24565866,0.05419198,-0.03270229,0.99023813,0.08720014,-0.10444573,0.03026015
1761619731957,-0.06388379,-0.39963031,-0.00866899,-0.30535691,0.07728615,-0.03014633,0.99043968,0.08547487,-0.10400907,0.03008982
1761619731968,-0.42605540,-1.78931146,-0.55496798,-0.38757632,0.10242845,-0.00324730,0.99068303,0.08332383,-0.10344059,0.03007180
1761619731979,0.09288282,-0.05847505,0.21672657,-0.49147230,0.12160929,0.00459797,0.99097812,0.08059615,-0.10276566,0.03009732
1761619731991,-0.21355865,-0.48817649,-0.87245354,-0.58756276,0.16088374,0.01100951,0.99133134,0.07730580,-0.10186471,0.03015897
1761619732002,-0.11829838,-0.31115685,-0.43118225,-0.61635869,0.17411475,-0.05000512,0.99170587,0.07382338,-0.10088096,0.02987644
1761619732013,0.03850064,-0.09337637,-0.15343428,-0.61668857,0.18407525,-0.09235155,0.99206688,0.07046242,-0.09987775,0.02937313
1761619732024,-0.16630853,-0.15557084,0.49466491,-0.58716698,0.15234009,-0.07070980,0.99238924,0.06720365,-0.09903226,0.02898069
1761619732035,-0.04644141,-0.05593529,0.13932422,-0.60382519,0.16127707,-0.07795280,0.99271193,0.06385242,-0.09813717,0.02854805
1761619732046,-0.10449408,-0.28101734,-0.02664498,-0.60423917,0.17410839,-0.07891008,0.99303508,0.06043847,-0.09715346,0.02810221
1761619732057,0.22248037,-0.71328639,-0.37536713,-0.68546542,0.19224896,-0.05022458,0.99337094,0.05663413,-0.09608648,0.02782346
1761619732068,-0.29453064,-0.89465852,-0.49405598,-0.78755798,0.19722167,-0.08218994,0.99372527,0.05230256,-0.09500176,0.02737141
1761619732080,-0.22310951,-0.57800786,0.01317202,-0.87166071,0.21172731,-0.08631764,0.99409916,0.04737768,-0.09380550,0.02688372
1761619732091,0.03649625,-0.52721548,-0.00558484,-0.90454128,0.21155510,-0.09315069,0.99445873,0.04222179,-0.09259964,0.02635276
1761619732102,-0.34457828,0.38257008,0.19717842,-0.89747612,0.21610344,-0.14453683,0.99478671,0.03728568,-0.09141107,0.02555781
1761619732113,0.52112889,0.55430360,-0.13144326,-0.78142555,0.22345971,-0.14462354,0.99507325,0.03294876,-0.09017087,0.02475515
1761619732124,-0.17698382,0.85291560,-0.49286981,-0.73339662,0.21814769,-0.14862080,0.99533104,0.02884174,-0.08894924,0.02392287
1761619732135,-0.15650617,0.07134019,-0.43742913,-0.70119170,0.23395876,-0.12082666,0.99556521,0.02498519,-0.08766247,0.02325832
1761619732146,-0.00689585,-0.03669520,0.00197024,-0.71761238,0.25092984,-0.11359207,0.99579335,0.02100244,-0.08626981,0.02262789
1761619732158,-0.07293727,-0.62770197,0.76557219,-0.75168322,0.24277719,-0.10610693,0.99600518,0.01675543,-0.08489811,0.02202838
1761619732169,-0.02845748,-0.36080035,0.04701064,-0.78070229,0.22561313,-0.16749143,0.99619308,0.01246157,-0.08365724,0.02110718
1761619732180,0.32644872,0.50403754,0.11854814,-0.66450450,0.19544690,-0.15422876,0.99634317,0.00870712,-0.08255297,0.02023579
1761619732191,-0.09055390,0.60656062,-0.28097737,-0.61050311,0.19711760,-0.15841096,0.99647452,0.00531882,-0.08145896,0.01935661
1761619732202,-0.01554773,0.17470004,-0.11040941,-0.55300805,0.19665408,-0.15006832,0.99659162,0.00222198,-0.08035770,0.01851623
1761619732214,-0.04561580,0.12110757,-0.03041053,-0.56518741,0.18845180,-0.13017262,0.99669146,-0.00094307,-0.07930237,0.01778726
1761619732225,0.11780186,-0.27657422,0.27360432,-0.59112162,0.18306606,-0.11142344,0.99677342,-0.00419424,-0.07829551,0.01717443
1761619732236,-0.05502603,0.08028460,0.64497265,-0.64137245,0.18658974,-0.12903173,0.99684498,-0.00775386,-0.07725993,0.01645830
1761619732247,-0.00067285,-0.21650939,0.06836187,-0.66111847,0.16179262,-0.14591013,0.99689262,-0.01148918,-0.07634581,0.01563391
1761619732258,0.36360010,0.18216242,0.05133506,-0.67068779,0.16372925,-0.13188101,0.99692295,-0.01517796,-0.07544530,0.01490857
1761619732269,0.57963659,0.54205826,-0.25909491,-0.61021158,0.14453815,-0.08736423,0.99693323,-0.01862565,-0.07462866,0.01441496
1761619732281,-0.19923576,0.60428093,-0.06792719,-0.57143719,0.14148311,-0.11813314,0.99693660,-0.02188285,-0.07382220,0.01374160
1761619732291,-0.18011205,-0.25810630,0.03112179,-0.58563073,0.16084394,-0.09716443,0.99693312,-0.02507453,-0.07294560,0.01321205
1761619732303,-0.49207815,-0.35709809,0.22162702,-0.58179681,0.14320222,-0.06002866,0.99690779,-0.02841986,-0.07212219,0.01286689
1761619732314,-0.01972077,-0.52817479,0.33989726,-0.66381333,0.17544678,-0.07183882,0.99687099,-0.03210403,-0.07114846,0.01246818
1761619732325,0.04799969,-0.25581603,-0.00099408,-0.68011130,0.17501026,-0.11128750,0.99681921,-0.03584464,-0.07018590,0.01185610
1761619732336,-0.00685934,0.34381980,-0.01707538,-0.65438907,0.18243866,-0.10496745,0.99676073,-0.03941106,-0.06919161,0.01128403
1761619732347,0.08301224,0.34063191,-0.12157139,-0.59568189,0.20105586,-0.06984051,0.99670568,-0.04271710,-0.06807575,0.01089641
1761619732358,-0.52630565,0.52785531,0.28811567,-0.56196432,0.22546918,-0.06170121,0.99665449,-0.04589219,-0.06680185,0.01054780
1761619732370,-0.32862143,-0.06820995,0.19418539,-0.55658344,0.26263060,-0.04732831,0.99660587,-0.04903689,-0.06531799,0.01028040
1761619732381,-0.49919162,-0.13427338,0.08551194,-0.60779816,0.29648420,-0.06172347,0.99654476,-0.05237978,-0.06368733,0.00994092
1761619732392,-0.19549116,-0.41961629,0.11544121,-0.57847461,0.32406346,-0.07340054,0.99648928,-0.05553247,-0.06192118,0.00954089
1761619732403,-0.21551938,0.44969088,0.67318738,-0.53736483,0.32652528,-0.12506191,0.99643598,-0.05851484,-0.06010896,0.00884679
1761619732414,-0.08471220,0.28191491,0.01049651,-0.49157042,0.30640464,-0.15786642,0.99637946,-0.06129221,-0.05837778,0.00795485
1761619732425,0.06301784,0.40237019,-0.02616610,-0.47074170,0.30924681,-0.14706668,0.99632058,-0.06390483,-0.05666146,0.00713863
1761619732436,-0.16254493,0.34020750,-0.07740235,-0.44684758,0.30565962,-0.13466529,0.99625853,-0.06638484,-0.05496505,0.00639123
1761619732449,0.05383630,0.42374792,0.07393973,-0.38581787,0.27515916,-0.11802889,0.99619391,-0.06875762,-0.05327282,0.00566536
1761619732458,-0.94633454,-0.64528346,0.01417359,-0.47847163,0.35332772,-0.13226022,0.99612464,-0.07107820,-0.05155918,0.00502389
1761619732470,0.25920161,0.79460636,0.02259097,-0.33812842,0.27641388,-0.10189217,0.99606412,-0.07314079,-0.04987305,0.00440235
1761619732481,-1.00252745,-0.40009904,-0.22266926,-0.38206514,0.30519262,-0.12792462,0.99599784,-0.07510842,-0.04830131,0.00374354
1761619732492,0.35427401,0.42691660,0.34897471,-0.33904440,0.25749257,-0.09484080,0.99592565,-0.07695621,-0.04689798,0.00322666
1761619732503,0.83231506,0.10479151,0.47381974,-0.30276206,0.25746562,-0.09292147,0.99586041,-0.07868196,-0.04543042,0.00269701
1761619732514,-0.34015352,-0.05662204,0.31692352,-0.31551353,0.21588781,-0.10953200,0.99577670,-0.08041728,-0.04424304,0.00209458
1761619732525,0.29940635,0.20351375,0.35281397,-0.29146943,0.21260065,-0.08663214,0.99569736,-0.08203494,-0.04306311,0.00161377
1761619732536,-0.06588949,0.31272839,0.02410925,-0.29157651,0.18109735,-0.06765528,0.99560538,-0.08366777,-0.04204896,0.00123490
1761619732548,0.28687690,1.58552659,-0.73833126,-0.27066834,0.17258449,-0.04827284,0.99551669,-0.08519704,-0.04107386,0.00096216
1761619732559,0.04534545,0.19372367,-0.07767634,-0.24048583,0.17081775,-0.00461633,0.99544025,-0.08653174,-0.04012582,0.00093654
1761619732570,0.08242450,0.19807585,0.21073757,-0.17593903,0.15710845,-0.01935997,0.99538883,-0.08752579,-0.03923816,0.00082716
1761619732581,-0.25820978,-0.86404503,0.77574532,-0.12970107,0.13244696,-0.00503863,0.99535432,-0.08823915,-0.03850970,0.00079944
1761619732592,0.14016491,0.36300954,0.19711555,-0.09605557,0.10734147,-0.01460480,0.99532962,-0.08877706,-0.03790859,0.00071766
1761619732603,-0.51697906,0.50884187,-0.18246320,-0.06371368,0.08124892,-0.01299162,0.99531501,-0.08913386,-0.03745359,0.00064490
1761619732615,0.31931060,0.33398130,0.19766846,-0.03554973,0.08976893,0.00951745,0.99531592,-0.08933294,-0.03695089,0.00069820
1761619732626,0.04278586,0.16981188,-0.01125944,-0.01557436,0.06078593,0.03008951,0.99532045,-0.08941859,-0.03661657,0.00086369
1761619732637,0.55050879,0.05957908,0.25529268,-0.02812978,0.04933436,0.01806239,0.99531628,-0.08957753,-0.03633783,0.00096575
1761619732648,0.06836066,0.31565752,0.05534610,-0.02146242,0.04145502,0.00902795,0.99531388,-0.08969664,-0.03610775,0.00101585
1761619732659,-0.49286485,0.23951834,-0.90579477,0.00255384,0.03824174,0.00432266,0.99532297,-0.08968221,-0.03589169,0.00104027
1761619732670,-0.24364795,0.36456180,0.01818480,0.00432365,0.01875671,0.00388899,0.99532875,-0.08965865,-0.03578946,0.00106147
1761619732681,0.38495241,0.19190978,0.05283243,0.02869785,0.03461326,0.00120385,0.99534996,-0.08949938,-0.03559736,0.00106815
1761619732693,0.49172100,-0.01730494,0.79692714,0.04418160,0.02759814,0.01523543,0.99537785,-0.08924975,-0.03544143,0.00115423
1761619732704,0.01027465,0.19794002,0.24138573,0.03485462,0.02822334,0.02422111,0.99540057,-0.08905631,-0.03528479,0.00128866
1761619732715,-0.05075271,0.04204297,0.03136942,0.04523013,0.02845581,0.01152878,0.99542875,-0.08880302,-0.03512544,0.00135322
1761619732726,0.04021078,-0.38664792,-0.25326789,0.05286427,0.04137014,0.01774786,0.99546343,-0.08850434,-0.03489169,0.00145349
1761619732737,-0.04735938,-0.13549616,0.06960923,0.05093432,0.03481431,0.02200327,0.99549480,-0.08822420,-0.03470022,0.00157451
1761619732748,0.14279128,-0.05230698,0.06552088,0.06162149,0.04484180,0.00362518,0.99553402,-0.08787912,-0.03444910,0.00159481
1761619732759,-0.05868982,0.49875348,0.32736813,0.06213804,0.03545454,0.00896742,0.99557077,-0.08753736,-0.03425410,0.00164413
1761619732771,0.17731794,-0.00357738,0.14249478,0.07116466,0.03088352,0.00906918,0.99561231,-0.08713172,-0.03407807,0.00169583
1761619732782,-0.05601486,0.44779422,0.14665708,0.09588507,0.03292785,-0.00163344,0.99566499,-0.08659956,-0.03389532,0.00168676
1761619732793,0.01630114,0.67658888,-0.32300918,0.11857335,0.01567336,-0.00792891,0.99572558,-0.08593555,-0.03380755,0.00164236
1761619732804,0.05320084,0.12696445,-0.04560072,0.15434687,0.02476273,0.02078917,0.99580290,-0.08508664,-0.03367135,0.00175670
1761619732815,0.13981678,-0.06665178,-0.06234407,0.17217343,0.03358288,0.02273298,0.99589014,-0.08413108,-0.03348497,0.00188287
1761619732826,-0.01641761,-0.37994382,0.25420388,0.17215205,0.01914685,0.02605662,0.99597517,-0.08315842,-0.03337679,0.00203009
1761619732838,0.19892336,0.06212868,0.10127515,0.14765017,0.04331686,0.03505732,0.99605019,-0.08234634,-0.03313854,0.00222290
1761619732849,-0.04109361,-0.04401269,-0.11145938,0.14626114,0.01848826,0.02006018,0.99612012,-0.08153459,-0.03303593,0.00233424
1761619732860,0.45141974,-0.35267317,-0.33559578,0.13410130,0.02909778,0.03532993,0.99618856,-0.08075680,-0.03286717,0.00253915
1761619732871,-0.07781506,-0.09166530,0.18720725,0.12495509,0.03500693,0.02747779,0.99624886,-0.08008205,-0.03267813,0.00268753
1761619732882,-0.18705567,0.13695075,0.02924089,0.08439363,0.03786748,0.01896779,0.99629298,-0.07961366,-0.03246796,0.00279280
1761619732893,0.01548047,0.02195082,0.41797267,0.07844554,0.03579486,0.03262550,0.99633360,-0.07917829,-0.03226930,0.00297388
1761619732905,0.00317328,-0.22623888,-0.08647193,0.08285373,0.03632774,0.01420640,0.99637746,-0.07870602,-0.03206223,0.00305485
1761619732916,0.17571026,0.04190275,-0.10089254,0.08728693,0.03717659,0.01709412,0.99642273,-0.07821285,-0.03185219,0.00315143
1761619732927,0.08042028,-0.99003520,-0.36952875,0.09173109,0.02893516,0.00998380,0.99646710,-0.07770833,-0.03169304,0.00320634
1761619732938,0.30320610,-0.29136706,-0.12342156,0.09152951,0.03137572,0.00646556,0.99651199,-0.07720034,-0.03151891,0.00324223
1761619732949,0.15828545,-0.08065437,0.07753316,0.08357719,0.01685972,0.01013012,0.99655094,-0.07673231,-0.03142449,0.00329896
1761619732960,-0.25432253,0.82563451,0.37662817,0.07975051,0.01395270,-0.00273739,0.99658708,-0.07629368,-0.03134775,0.00328390
1761619732972,0.05065115,0.03821434,0.11216583,0.05527844,0.01479056,-0.00696433,0.99661369,-0.07598136,-0.03126419,0.00324455
1761619732982,0.10058469,-0.03737852,0.06293647,0.05769011,0.01607659,0.00714848,0.99664023,-0.07566695,-0.03117657,0.00328351
1761619732994,-0.30995540,-0.43187063,-0.10758226,0.05516071,0.00719973,-0.01015502,0.99666553,-0.07535253,-0.03113553,0.00322563
1761619733005,-0.07717076,0.06626527,0.01619459,0.04805150,0.00566576,-0.00671037,0.99668637,-0.07509065,-0.03110465,0.00318906
1761619733016,0.24256501,0.07818838,-0.20627787,0.06698999,-0.01004440,-0.00341414,0.99671334,-0.07470881,-0.03116191,0.00316960
1761619733027,0.42809565,0.69612966,0.30503198,0.08811753,-0.01776211,-0.00370904,0.99674655,-0.07422416,-0.03125960,0.00314920
1761619733038,0.15147818,-0.31456622,-0.10143810,0.11944543,-0.01988105,0.00229885,0.99679301,-0.07354930,-0.03137193,0.00316219
1761619733049,0.27787892,0.20104198,0.15149423,0.08121361,-0.03127037,0.00349056,0.99682038,-0.07310262,-0.03154391,0.00318138
1761619733061,0.33710032,-0.44357270,-0.33658487,0.08335267,-0.03484305,0.01677794,0.99684898,-0.07261918,-0.03174600,0.00327870
1761619733072,0.17874909,0.07168730,0.12574463,0.07971420,-0.03268327,0.02671586,0.99687413,-0.07218872,-0.03192249,0.00342296
1761619733083,-0.28665693,0.10607214,0.04232714,0.09877838,-0.04241145,0.00586056,0.99690571,-0.07164544,-0.03215576,0.00345519
1761619733094,-0.33007391,0.34384321,0.05900030,0.10689220,-0.04313288,0.00802977,0.99694150,-0.07103081,-0.03240377,0.00350137
1761619733105,0.23068572,0.19167026,0.10120856,0.11771248,-0.03824534,0.02798479,0.99697966,-0.07038927,-0.03261221,0.00365388
1761619733116,-0.03543246,-0.24271102,-0.37748120,0.13295950,-0.04100485,0.02830224,0.99702382,-0.06964470,-0.03284183,0.00381237
1761619733128,0.16725793,-0.55796201,-0.38013166,0.11775234,-0.03298484,0.02967860,0.99706291,-0.06898529,-0.03302655,0.00397857
1761619733139,0.07256470,0.09609316,-0.00262615,0.09640147,-0.02491565,0.02940796,0.99709453,-0.06845026,-0.03316483,0.00414179
1761619733150,-0.07740235,0.00937294,0.18576563,0.09741259,-0.03217076,0.03123778,0.99712481,-0.06790962,-0.03334338,0.00431516
1761619733161,-0.05027336,0.46596413,0.57654316,0.08734066,-0.02662304,0.01150855,0.99715396,-0.06739868,-0.03349912,0.00438248
1761619733172,0.06267816,0.13286634,0.15611505,0.10603886,-0.03111239,0.01816394,0.99718581,-0.06683667,-0.03366402,0.00447875
1761619733184,-0.05333528,-0.05182428,-0.25089352,0.10646890,-0.03356029,0.01699708,0.99721967,-0.06622448,-0.03385699,0.00457649
1761619733194,0.46233794,-0.00962959,0.13008913,0.11550666,-0.03486017,0.01264507,0.99725386,-0.06560651,-0.03404349,0.00464414
1761619733205,0.19097401,-0.17016309,-0.08044057,0.12464965,-0.02983485,0.00986367,0.99729321,-0.06491471,-0.03420908,0.00469888
1761619733216,0.01548047,-0.07075058,-0.01548047,0.11152892,-0.03098381,0.02883310,0.99732662,-0.06429572,-0.03438104,0.00485890
1761619733227,-0.12727315,0.27650159,0.12018635,0.11741643,-0.01361571,0.01478422,0.99736472,-0.06365580,-0.03445524,0.00493948
1761619733239,-0.11996816,-0.00963189,-0.02943405,0.12348611,-0.00862099,0.01567676,0.99740650,-0.06296428,-0.03450352,0.00502727
1761619733250,-0.01125944,0.08375526,-0.08529024,0.13044787,-0.02843737,-0.00002126,0.99744611,-0.06224682,-0.03465992,0.00502715
1761619733261,0.16940299,0.10071510,-0.01099931,0.14077946,-0.02122008,-0.00041014,0.99749127,-0.06145141,-0.03477982,0.00502483
1761619733272,0.12547796,-0.05931257,-0.52464991,0.13686499,-0.03476585,0.00712345,0.99753048,-0.06069866,-0.03497103,0.00506401
1761619733283,0.08183198,-0.06545284,-0.18052798,0.13865707,-0.02294300,-0.00349471,0.99757301,-0.05992218,-0.03509951,0.00504444
1761619733295,0.11441749,-0.15415343,0.09862787,0.12160884,-0.01918056,0.01825020,0.99761260,-0.05918036,-0.03521651,0.00515577
1761619733306,-0.04656473,0.28387223,0.62309342,0.15036690,-0.02931754,0.00152978,0.99765441,-0.05837590,-0.03537336,0.00516395
1761619733317,0.08333412,-0.05283377,-0.04600738,0.16990819,-0.01628159,-0.01161765,0.99770626,-0.05743291,-0.03546372,0.00509947
1761619733327,0.19096178,0.47098642,0.21088400,0.17868001,-0.02597683,-0.00521040,0.99775418,-0.05651271,-0.03559750,0.00507264
1761619733339,0.01723198,-0.04238020,-0.37897495,0.17050948,-0.03157071,-0.01383618,0.99780524,-0.05548965,-0.03578693,0.00498962
1761619733415,-0.15852412,-0.24249034,-0.26141653,0.03561998,-0.00808515,-0.00035464,0.99786843,-0.05413965,-0.03609336,0.00497618
1761619733419,95.58307826,177.96371670,73.35228357,6.01147419,-0.40991212,0.11698657,0.99840504,-0.04241728,-0.03689268,0.00520431
1761619733452,-10.92222315,-19.69932099,-8.28067697,0.56964735,0.01887908,0.01137503,0.99876564,-0.03316051,-0.03658590,0.00538915
1761619733476,-0.23172099,-0.50318295,0.48027748,0.37720304,0.02865641,0.00371573,0.99892150,-0.02852091,-0.03623343,0.00543485
1761619733498,0.06078916,0.17281055,-0.12205029,0.34515337,0.04730224,-0.00377510,0.99904267,-0.02468971,-0.03570837,0.00539295
1761619733513,0.14170512,0.19366587,-0.29532401,0.41828098,0.05696281,0.00646465,0.99913018,-0.02155260,-0.03528115,0.00544144
1761619733526,0.11144827,0.04302516,0.00124176,0.42548260,0.05951571,-0.00847169,0.99919888,-0.01882951,-0.03490025,0.00538722
1761619733538,-0.14399761,-0.14142723,0.06399894,0.38518232,0.06025754,0.00098188,0.99925017,-0.01661472,-0.03455377,0.00539286
1761619733549,0.03507592,0.21098324,-0.06203410,0.41531169,0.07473522,0.03654507,0.99930146,-0.01418514,-0.03411657,0.00560665
1761619733562,-0.29556090,-0.03589818,-0.06330710,0.48777171,0.10930579,0.04166171,0.99936035,-0.01120973,-0.03344980,0.00586079
1761619733574,-0.23027616,-0.50448032,0.06705932,0.42773808,0.11415049,0.03458682,0.99940765,-0.00862192,-0.03275919,0.00607004
1761619733585,-0.51260090,-0.68042653,-0.15660726,0.36239958,0.09190309,0.00965633,0.99944082,-0.00650188,-0.03222156,0.00612653
1761619733597,-0.07346728,-0.35218330,0.03980697,0.29196825,0.07259660,0.01107474,0.99946386,-0.00477927,-0.03179324,0.00619187
1761619733609,0.17807765,0.01129038,0.01369828,0.27801702,0.09035164,0.01913243,0.99948647,-0.00313897,-0.03126016,0.00630475
1761619733621,0.33106351,0.21802247,-0.12396863,0.34509239,0.07705927,0.01714515,0.99950400,-0.00113743,-0.03081322,0.00640419
1761619733632,0.21098824,0.63095990,0.01516828,0.37304082,0.07015732,0.03417135,0.99951521,0.00100755,-0.03040982,0.00660068
1761619733644,-0.07218398,-0.49411942,-0.11208767,0.39600750,0.07731491,0.04755588,0.99952201,0.00334400,-0.02995366,0.00688126
1761619733656,-0.04999519,-0.52933563,-0.16151416,0.34893176,0.07977486,0.04804471,0.99952501,0.00542014,-0.02947900,0.00716712
1761619733667,0.08253432,-0.28471394,0.09465389,0.31631499,0.08003048,0.03857103,0.99952534,0.00723895,-0.02901882,0.00738891
1761619733678,-0.14914383,-0.05303456,0.01282531,0.30806975,0.05670470,0.03654423,0.99951899,0.00896414,-0.02870128,0.00759355
1761619733691,0.20622143,-0.11902037,-0.04989228,0.23851857,0.05029601,0.03527139,0.99951159,0.01049066,-0.02837938,0.00781929
1761619733702,0.04292516,0.33068379,0.33420300,0.29203438,0.02774359,0.01564592,0.99949737,0.01206765,-0.02822957,0.00790378
1761619733712,0.25360428,0.28199472,0.12221893,0.30193149,0.02759931,0.02441179,0.99948057,0.01360750,-0.02808881,0.00802828
1761619733724,0.28505244,-1.16718113,0.13998111,0.26288670,0.02728871,0.03290901,0.99946170,0.01511910,-0.02793190,0.00821751
1761619733735,0.05077237,-0.53055147,0.20956824,0.25244919,0.01505007,0.00935849,0.99944124,0.01653281,-0.02784762,0.00826991
1761619733746,-0.00213391,-0.27313598,0.08388915,0.19966529,-0.00515913,0.01782020,0.99942029,0.01766092,-0.02787677,0.00837060
1761619733758,-0.11941877,0.37978519,-0.52872913,0.17134534,0.01638669,0.02740127,0.99940353,0.01865472,-0.02778172,0.00852953
1761619733769,-0.36391277,0.33811973,-0.21008556,0.14918265,0.00351617,0.03774751,0.99938663,0.01947523,-0.02776239,0.00873714
1761619733780,0.01016116,-0.25298172,0.08718933,0.14605641,0.01461643,0.03335517,0.99937054,0.02031505,-0.02767834,0.00892893
1761619733791,-0.36347198,-0.12598059,-0.37814837,0.18299865,0.02163851,0.01920923,0.99935157,0.02133984,-0.02755717,0.00903650
1761619733803,-0.01720461,0.02393975,0.15204076,0.17559088,0.01662056,0.04061693,0.99933037,0.02233193,-0.02746326,0.00926599
1761619733814,-0.00544968,-0.04630805,0.01385967,0.17367221,0.02625780,0.02129226,0.99931108,0.02330450,-0.02731622,0.00938522
1761619733825,0.04274479,0.23809976,0.32982175,0.14172770,0.00772769,0.00747887,0.99929288,0.02410526,-0.02727255,0.00942748
1761619733837,0.04481201,-0.25664797,-0.08962403,0.13688684,-0.00968958,0.02377407,0.99927116,0.02487867,-0.02732730,0.00956180
1761619733848,-0.20237806,-0.10566052,0.13778932,0.11122520,-0.00341130,0.02297307,0.99925369,0.02550153,-0.02734640,0.00969045
1761619733859,0.01520527,-1.21030358,0.15205266,0.09530732,0.01970137,0.02502451,0.99924157,0.02603525,-0.02723608,0.00983059
1761619733870,0.07602633,-0.44493223,-0.13684740,0.08353836,0.02277778,0.04049131,0.99923049,0.02650307,-0.02710852,0.01005734
1761619733882,-0.13630321,0.17546318,0.04254474,0.08747825,0.04207647,0.04596290,0.99922103,0.02699732,-0.02687079,0.01031703
1761619733893,-0.50948554,1.17959700,-0.24220770,0.08745320,0.03590794,0.03299376,0.99921123,0.02748268,-0.02667150,0.01050015
1761619733904,0.07986190,0.04955276,0.13629946,0.09861746,0.04250552,0.02101997,0.99920097,0.02803494,-0.02643347,0.01061786
1761619733915,-0.22047636,-0.03955745,-0.01520527,0.09680740,0.02732729,0.02825049,0.99918795,0.02857706,-0.02628044,0.01077606
1761619733926,0.44095273,0.13319457,0.03041053,0.10337114,0.03262855,0.02705828,0.99917437,0.02915594,-0.02609772,0.01092759
1761619733937,-0.11403950,-0.00139580,-0.16725793,0.09450025,0.01389036,0.03123525,0.99915889,0.02968514,-0.02601993,0.01110250
1761619733949,-0.01520527,-0.13592677,0.30410533,0.08110688,0.02961017,0.04279519,0.99914691,0.03013934,-0.02585411,0.01134216
1761619733960,-0.51697906,-0.17346477,-0.07602633,0.07131650,0.02399104,0.04185988,0.99913556,0.03053871,-0.02571976,0.01157657
1761619733971,0.00069109,0.08187852,-0.02847301,0.06725166,0.02779450,0.04775330,0.99912493,0.03091196,-0.02556550,0.01184160
1761619733982,-0.11472442,0.18586533,-0.06301282,0.09393052,0.03269714,0.04614599,0.99911009,0.03143797,-0.02538240,0.01210002
1761619733993,0.28890006,-0.15864557,-0.28890006,0.14067068,0.03227135,0.04248176,0.99908666,0.03222573,-0.02520168,0.01233792
1761619734005,-0.03801317,0.09075643,-0.33451586,0.17439302,0.02677455,0.03455971,0.99905604,0.03320233,-0.02505174,0.01253145
1761619734016,0.01307017,-0.02993042,0.16817842,0.16015980,0.02242822,0.03485504,0.99902624,0.03410723,-0.02492502,0.01272838
1761619734027,-0.50519657,0.26474073,0.58376061,0.13850283,0.00911522,0.02248219,0.99899985,0.03486207,-0.02487535,0.01285091
1761619734038,-0.03850141,-0.00840093,-0.08397771,0.10957652,0.01577944,0.02694573,0.99897849,0.03547570,-0.02478698,0.01300181
1761619734049,-0.03372531,-0.01019631,-0.05998682,0.12877840,0.00209949,0.02471148,0.99895135,0.03619042,-0.02477533,0.01313896
1761619734060,0.01606474,0.61505732,0.09876840,0.13270223,0.01102194,0.02714756,0.99892317,0.03694682,-0.02471250,0.01329370
1761619734072,-0.20105009,0.03198175,-0.10093987,0.12497388,-0.00432396,0.04143060,0.99889386,0.03763418,-0.02473629,0.01352157
1761619734083,0.17048934,-0.22461942,-0.10863518,0.11218073,0.00772705,0.05459784,0.99886664,0.03826800,-0.02469263,0.01383004
1761619734094,-0.11466507,-0.42506245,-0.33974835,0.12709327,0.01252828,0.05984748,0.99883643,0.03897337,-0.02462310,0.01416220
1761619734105,-0.01869837,-0.16059386,-0.04301310,0.11004175,0.01891874,0.06574064,0.99880951,0.03958960,-0.02451715,0.01453034
1761619734116,-0.19011951,-0.01837334,-0.06496268,0.09582033,0.02525382,0.06466384,0.99878644,0.04012140,-0.02437699,0.01488923
1761619734127,-0.59464921,0.40828971,-0.34615954,0.09753154,0.02294813,0.05760808,0.99876261,0.04066758,-0.02424848,0.01521183
1761619734139,-0.32108152,-0.15781014,-0.31638209,0.13576573,0.00367829,0.03075665,0.99872953,0.04142108,-0.02422807,0.01538253
1761619734150,0.15095679,0.01355477,-0.11219021,0.11158649,0.00019725,0.04457338,0.99869957,0.04204596,-0.02422696,0.01563214
1761619734161,0.71441128,-0.11673694,0.37240588,0.10341936,0.01043011,0.03820027,0.99867354,0.04261477,-0.02416960,0.01584225
1761619734172,-0.16756977,0.02650370,-0.06844016,0.10034398,0.01139920,0.04070953,0.99864707,0.04318171,-0.02410519,0.01607226
1761619734183,-0.01630244,-0.15140496,-0.21713756,0.10824449,0.03437759,0.03930939,0.99862196,0.04378247,-0.02391440,0.01629042
1761619734194,0.11310660,-0.17420717,-0.38419909,0.05973252,0.03242845,0.03976680,0.99860779,0.04411996,-0.02373118,0.01651510
1761619734205,-0.07735134,-0.18248392,0.10085666,0.03021313,0.03144434,0.03621241,0.99860121,0.04428613,-0.02355823,0.01671427
1761619734217,-0.08154428,-0.23147463,0.14081835,0.00819753,0.03186480,0.02092357,0.99860140,0.04433245,-0.02337820,0.01683249
1761619734228,-0.23412498,-0.06677959,0.38002497,0.02457786,0.02400313,0.01633611,0.99859691,0.04446886,-0.02324498,0.01692316
1761619734239,0.01821892,0.05006244,-0.11397101,0.02685457,0.02135130,0.02799219,0.99859031,0.04461924,-0.02312541,0.01707991
1761619734250,0.00197040,0.04518509,-0.01801510,0.03644240,0.03556759,0.01933842,0.99858402,0.04481967,-0.02292979,0.01718627
1761619734261,0.30738263,0.00868208,-0.23644818,0.04009224,0.02671915,0.03004819,0.99857461,0.04504018,-0.02278283,0.01735154
1761619734275,0.20285906,-0.10837777,-0.10907772,0.03408521,0.02471439,0.03616982,0.99856348,0.04527537,-0.02261230,0.01760111
1761619734283,-0.90732102,0.05693023,0.21507739,0.06289147,0.02670871,0.04844373,0.99855040,0.04553951,-0.02250013,0.01780457
1761619734294,0.10733997,-0.03576997,0.00412846,0.06025350,0.02051452,0.04189555,0.99853363,0.04587091,-0.02238730,0.01803500
1761619734305,0.03649264,0.00577001,-0.00912316,0.04929787,0.01344316,0.02997680,0.99851955,0.04614698,-0.02231202,0.01820287
1761619734317,0.06120761,-0.02379697,0.02127338,0.03120340,0.00352528,0.02513047,0.99850886,0.04632952,-0.02229139,0.01834988
1761619734328,-0.23483787,0.25228010,0.02346321,0.03570336,-0.01123741,0.02745336,0.99849569,0.04652410,-0.02235264,0.01849950
1761619734339,-0.04816132,0.07917143,-0.04816132,0.02964566,-0.00328093,0.03903108,0.99848378,0.04668567,-0.02237052,0.01871222
1761619734350,0.02555792,-0.03881331,-0.10716512,0.02010309,-0.00183547,0.01701226,0.99847643,0.04679925,-0.02238089,0.01880834
1761619734361,-0.03452271,-0.37960611,0.06293647,0.00794995,-0.01038998,0.02680106,0.99847036,0.04684258,-0.02243751,0.01895441
1761619734372,0.06317534,-0.15462505,0.07372741,-0.00642600,0.00299608,0.03365551,0.99846882,0.04680627,-0.02242059,0.01914456
1761619734384,-0.17896464,-0.05764787,-0.10172727,-0.00407768,0.01015931,0.04178387,0.99846665,0.04678344,-0.02236369,0.01937855
1761619734395,-0.28445363,0.42506339,-0.18189552,-0.00376596,0.02254256,0.04263360,0.99846580,0.04676254,-0.02223858,0.01961517
1761619734406,-0.12384376,0.10648870,0.00000000,0.00901358,0.02977529,0.05208073,0.99846140,0.04681256,-0.02207333,0.01990422
1761619734417,-0.04390349,-0.00970823,0.02821878,0.01519349,0.03979692,0.05746877,0.99845585,0.04689764,-0.02185047,0.02022604
1761619734428,0.07675391,-0.30032165,0.11709806,0.01060819,0.02782956,0.04414866,0.99845137,0.04695758,-0.02169323,0.02047548
1761619734439,-0.21186324,-0.20554647,-0.07027859,-0.00512123,0.03870564,0.04342594,0.99845238,0.04692916,-0.02147841,0.02071650
1761619734451,0.20124610,-0.06763635,0.26316798,-0.00549270,0.04534222,0.04604620,0.99845386,0.04689867,-0.02122676,0.02097205
1761619734462,0.08513579,0.11907368,-0.50697920,-0.00673470,0.04862594,0.04735550,0.99845578,0.04686096,-0.02095446,0.02123724
1761619734473,-0.14532285,0.18352497,-0.04533968,-0.00413724,0.03879511,0.04054966,0.99845656,0.04683738,-0.02073333,0.02146838
1761619734484,0.09469947,0.09149575,-0.10590335,0.02377059,0.05933356,0.04008078,0.99845230,0.04697049,-0.02040106,0.02169283
1761619734495,-0.06808519,0.07979433,0.38314047,0.02662225,0.05808973,0.04298116,0.99844676,0.04711558,-0.02008447,0.02192708
1761619734506,0.05013400,0.08778498,0.01008361,0.04858224,0.05449808,0.04365022,0.99843469,0.04738521,-0.01978201,0.02216933
1761619734517,0.00136984,0.01314247,0.01246558,0.05078363,0.06210539,0.04006044,0.99842298,0.04766960,-0.01943422,0.02239367
1761619734529,0.41431937,-0.11838430,-0.21739554,0.04814006,0.04829452,0.04229255,0.99840890,0.04796085,-0.01914203,0.02264954
1761619734540,-0.15957856,0.05696461,0.08796137,0.08115060,0.06693688,0.03978107,0.99839062,0.04837878,-0.01879731,0.02285442
1761619734551,0.09596674,0.05366654,0.02835543,0.05624232,0.05620107,0.02550726,0.99837768,0.04869936,-0.01847696,0.02299981
1761619734563,-0.16285641,-0.06007081,0.12511000,0.05915476,0.05856139,0.03625462,0.99836278,0.04903062,-0.01814902,0.02320283
1761619734573,-0.28745112,0.19377617,0.03227782,0.03943072,0.05227925,0.04969106,0.99835123,0.04924158,-0.01786933,0.02346868
1761619734584,0.26701585,-0.09525995,0.01477895,0.03646053,0.06956741,0.03559878,0.99834333,0.04944576,-0.01747975,0.02366803
1761619734596,-0.02307285,0.49596368,-0.36169696,0.02290875,0.06778032,0.03570469,0.99833874,0.04957519,-0.01709679,0.02386976
1761619734607,-0.04514484,0.00007516,-0.03041053,0.01456953,0.07218561,0.03373334,0.99833699,0.04965678,-0.01669255,0.02405867
1761619734618,0.07107520,0.05748360,-0.00056297,0.02028951,0.07647811,0.02631556,0.99833488,0.04976837,-0.01627192,0.02420341
1761619734629,0.02783777,-0.47354808,0.32943619,0.03205819,0.06735866,0.01533778,0.99832986,0.04994950,-0.01589134,0.02429006
1761619734640,0.05609958,0.04731127,-0.02548113,0.04913707,0.07461295,0.01724984,0.99832035,0.05022221,-0.01547724,0.02438580
1761619734651,0.05418164,0.12901399,0.06192188,0.07970408,0.07461889,0.02427497,0.99830103,0.05066457,-0.01506311,0.02452053
1761619734663,0.88759031,-0.10241054,-0.36794005,0.11338032,0.09079584,0.03167250,0.99827178,0.05129950,-0.01455465,0.02469789
1761619734674,-0.08504466,0.15873853,-0.05818156,0.12787422,0.08957410,0.01733535,0.99823892,0.05202838,-0.01404408,0.02479671
1761619734685,-0.12871182,0.04483933,0.05999041,0.11781228,0.10139914,0.03420474,0.99820822,0.05267046,-0.01349145,0.02498312
1761619734696,-0.86759235,-0.00864681,0.16278717,0.07665038,0.08816777,0.04980561,0.99818459,0.05310737,-0.01298890,0.02526701
1761619734707,0.01640583,0.07755417,0.26319736,0.08410607,0.11169585,0.02875546,0.99816385,0.05356575,-0.01238015,0.02542373
1761619734718,-0.19069357,-0.03929399,-0.08648867,0.09119833,0.11825686,0.02905357,0.99814015,0.05407646,-0.01171792,0.02558643
1761619734730,0.07602633,0.00249461,0.15205267,0.10791767,0.12651086,0.04254049,0.99810916,0.05468079,-0.01100945,0.02582466
1761619734741,-0.17486057,0.43471619,0.04561580,0.14220666,0.14068286,0.03886758,0.99806793,0.05547715,-0.01022163,0.02604232
1761619734752,-0.03337976,-0.19190313,-0.42889193,0.17811322,0.13813779,0.03557419,0.99801488,0.05646568,-0.00945497,0.02623975
1761619734763,-0.06575250,0.14617759,-0.10712179,0.15732040,0.14883057,0.02101163,0.99796910,0.05734667,-0.00862151,0.02635742
1761619734774,0.03307553,-0.09857408,0.03014141,0.12074627,0.14463886,0.02996652,0.99793190,0.05802889,-0.00780431,0.02652673
1761619734785,-0.16683895,-0.10413485,-0.28373781,0.10558784,0.15078357,0.04945540,0.99789683,0.05860962,-0.00697500,0.02679873
1761619734797,-0.07098054,0.01916222,-0.19586361,0.08561211,0.18414180,0.05130136,0.99786694,0.05909761,-0.00592539,0.02709115
1761619734808,-0.52327809,-0.02724510,-0.27282756,0.11221940,0.21280516,0.08624179,0.99782428,0.05970360,-0.00477624,0.02755686
1761619734819,-0.17457899,0.44073385,0.28495796,0.16336013,0.29473429,0.11637613,0.99775744,0.06061841,-0.00312573,0.02820856
1761619734830,-0.10856244,-0.21170753,0.06375042,0.22084781,0.34793821,0.14413385,0.99766172,0.06186620,-0.00115988,0.02902292
1761619734841,-0.69971921,-0.00335148,-0.02664401,0.24412864,0.38295445,0.11129314,0.99755977,0.06320891,0.00094637,0.02963503
1761619734852,-0.20679163,0.08874346,0.02266967,0.19764646,0.38862224,0.06670096,0.99747342,0.06431573,0.00312266,0.03000856
1761619734863,0.10643687,-0.42334194,0.03041053,0.16733873,0.40962237,0.09124164,0.99738723,0.06525283,0.00541654,0.03051951
1761619734875,-0.23512970,-0.08929711,-0.11629784,0.14709053,0.41423123,0.10345967,0.99729900,0.06608389,0.00775695,0.03110406
1761619734886,-0.33409639,0.00705416,0.06542430,0.15468638,0.47229642,0.12015084,0.99719784,0.06693467,0.01035458,0.03176489
1761619734897,-0.20250650,0.08212680,0.03787494,0.14899267,0.50883206,0.13807974,0.99708289,0.06776902,0.01320404,0.03253813
1761619734908,-0.28890006,0.10224948,0.04561580,0.18146421,0.52929460,0.14524907,0.99694276,0.06878522,0.01616809,0.03335153
1761619734919,-0.24582156,0.02253204,-0.20428691,0.18747540,0.53776817,0.14471444,0.99679035,0.06982571,0.01915270,0.03415469
1761619734930,-0.35605080,1.20418097,-0.57277737,0.17031638,0.52235692,0.11682249,0.99664133,0.07077097,0.02205178,0.03480306
1761619734942,0.36535920,-0.31279361,0.00444083,0.14623064,0.49095774,0.11300098,0.99649457,0.07159717,0.02482569,0.03544151
1761619734953,0.03054995,-0.05606479,0.05740103,0.13586985,0.47192363,0.10625977,0.99635025,0.07235125,0.02744487,0.03603125
1761619734964,0.13677891,-1.08905207,0.63273087,0.14752135,0.44111213,0.10659978,0.99619704,0.07317737,0.02991510,0.03662821
1761619734975,0.21803965,0.16631624,0.16655326,0.14446221,0.44755582,0.11267971,0.99603693,0.07397913,0.03239903,0.03725359
1761619734986,-0.07164283,0.00043691,0.15424442,0.16622806,0.43175538,0.11326160,0.99586183,0.07491001,0.03481686,0.03788785
1761619734999,0.52571061,0.21234560,-0.03779964,0.15116956,0.36654991,0.10393102,0.99567972,0.07586994,0.03714446,0.03854781
1761619735008,-2.11333762,0.40963871,-0.30162010,0.23663782,0.45905801,0.10681616,0.99549397,0.07697030,0.03927907,0.03904451
1761619735019,1.32719812,-0.23209629,0.52356011,0.15801576,0.35869450,0.08724591,0.99532919,0.07783149,0.04123396,0.03952000
1761619735031,0.51751241,-0.18571489,0.37620129,0.13259585,0.31453425,0.07180481,0.99517756,0.07858729,0.04302681,0.03992929
1761619735042,-0.05963835,-0.13232865,-0.02422148,0.14360541,0.28739315,0.07340083,0.99503036,0.07936994,0.04459310,0.04032932
1761619735053,0.44674973,0.31399163,0.13238044,0.15880565,0.23969516,0.08093514,0.99487812,0.08026719,0.04594738,0.04078660
1761619735064,0.07649926,0.28596509,0.06805707,0.19645583,0.20217014,0.07474553,0.99471568,0.08138699,0.04709975,0.04121265
1761619735076,0.29140049,0.32181824,0.43152369,0.21723090,0.18099902,0.06435650,0.99454008,0.08269037,0.04818574,0.04159879
1761619735087,-0.44588546,0.04964843,0.22831825,0.25750000,0.19031284,0.06753012,0.99436124,0.08405512,0.04919440,0.04195670
1761619735097,-0.00815180,0.23652703,0.18699235,0.20726585,0.16284720,0.07687460,0.99421034,0.08513290,0.05004120,0.04235645
1761619735108,0.13805233,-0.43029815,-0.48428381,0.18567639,0.13848125,0.07537693,0.99406862,0.08613556,0.05078900,0.04276349
1761619735119,0.44076337,-0.08566666,0.00172005,0.17421788,0.11980563,0.10812294,0.99392417,0.08710247,0.05145392,0.04336357
1761619735130,-0.03283523,-0.51014036,-0.24289995,0.18834409,0.08827817,0.10623210,0.99377802,0.08816661,0.05195269,0.04396378
1761619735142,0.16431071,-0.12793013,0.23899740,0.15956726,0.07300224,0.09890261,0.99365109,0.08906816,0.05236516,0.04452258
1761619735153,0.00836985,-0.11563439,-0.06486631,0.15045954,0.05071180,0.10159804,0.99353663,0.08989569,0.05264407,0.04508137
1761619735164,0.46583407,0.25993122,-0.07879093,0.13589288,0.03154312,0.10893462,0.99343024,0.09065669,0.05282071,0.04569140
1761619735175,-0.08022349,-0.02728544,0.15903955,0.13983416,0.01582871,0.09848263,0.99333006,0.09142578,0.05290777,0.04623306
1761619735186,0.37224759,-0.04859482,-0.09606389,0.10796327,0.02348581,0.11305885,0.99323588,0.09204117,0.05304164,0.04687749
1761619735197,-0.59145475,-0.02031063,-0.51541057,0.09246569,0.00905427,0.11437417,0.99315680,0.09254511,0.05309099,0.04750083
1761619735208,0.02727092,-0.02541151,-0.13649163,0.06553023,-0.00131750,0.09602521,0.99309653,0.09291535,0.05308354,0.04804337
1761619735220,0.13443604,-0.13782028,-0.01493734,0.04772142,-0.00189395,0.09307461,0.99304625,0.09318498,0.05307284,0.04856924
1761619735231,0.35888541,-0.24704463,0.22850003,0.04276259,-0.01795843,0.06863179,0.99301154,0.09341590,0.05297587,0.04893986
1761619735242,0.73340045,-0.15877462,0.15477260,0.02322281,-0.02865151,0.05966377,0.99299078,0.09354943,0.05281112,0.04928292
1761619735253,0.14783430,0.08127658,-0.16849481,0.05720842,-0.05638990,0.04542882,0.99296533,0.09386122,0.05250379,0.04953051
1761619735264,0.53061808,0.07758808,0.27956118,0.04782186,-0.07041732,0.03662442,0.99295037,0.09413141,0.05210594,0.04973744
1761619735275,-0.40606148,0.06094998,0.05614820,0.04354893,-0.06923506,0.03513792,0.99293807,0.09436657,0.05173207,0.04992718
1761619735287,0.50845201,-0.23005497,-0.24306998,0.04910988,-0.06514362,0.04454114,0.99291755,0.09465141,0.05135423,0.05018552
1761619735297,-0.10634807,-0.20520619,-0.32758939,0.02219337,-0.06393907,0.03648363,0.99291398,0.09477015,0.05101216,0.05038071
1761619735309,-0.01165263,-0.08112936,-0.02941580,0.00749476,-0.08885335,0.01464054,0.99293124,0.09481212,0.05051458,0.05046270
1761619735320,0.12924477,-0.04442789,-0.07602633,0.01892221,-0.08010489,0.02579979,0.99293649,0.09491808,0.05006599,0.05060717
1761619735331,-0.12355529,0.34117593,-0.16405362,0.00700085,-0.08114462,0.01474178,0.99295173,0.09495833,0.04959941,0.05069194
1761619735342,0.05116267,0.01542776,-0.09380987,0.05923849,-0.09522515,0.01241525,0.99294313,0.09528118,0.04908044,0.05075960
1761619735353,0.23291715,-0.02650747,0.10921542,0.05270183,-0.10167692,0.02406742,0.99293592,0.09557368,0.04851613,0.05089318
1761619735365,0.49522086,-0.13988595,0.11084366,0.04991859,-0.08601648,0.01501078,0.99292779,0.09586321,0.04801723,0.05098024
1761619735376,0.08683710,0.02076544,-0.26445843,0.07179523,-0.10408086,0.02105034,0.99291147,0.09625090,0.04745520,0.05109391
1761619735387,0.04026580,0.00918652,0.17007372,0.03914138,-0.09926342,0.01414371,0.99291253,0.09647009,0.04689932,0.05117312
1761619735398,-0.07923829,-0.22187468,-0.04560072,0.02317233,-0.11410513,-0.00888127,0.99293210,0.09659754,0.04627174,0.05112427
1761619735410,0.10921266,0.01914792,0.01070957,0.01093190,-0.10876284,-0.00588920,0.99295731,0.09666204,0.04563004,0.05108952
1761619735420,0.22240566,0.06424587,-0.23074947,0.01558206,-0.13131126,0.00028835,0.99298092,0.09674462,0.04493409,0.05109105
1761619735431,0.14930438,0.19115857,-0.15168374,0.02587840,-0.12671382,-0.02559044,0.99300557,0.09688696,0.04423717,0.05095030
1761619735443,0.12465887,0.07114597,0.00814764,0.01362247,-0.12657731,0.00964449,0.99302686,0.09696392,0.04352201,0.05100480
1761619735454,0.01381025,-0.03691097,0.00739336,0.02101269,-0.14199483,0.01602314,0.99304496,0.09707949,0.04274103,0.05109292
1761619735465,-0.55330135,-0.22297122,-0.18065349,-0.00883907,-0.14459893,-0.01063817,0.99308813,0.09702911,0.04191682,0.05103229
1761619735476,0.12416986,-0.18720002,0.02959059,-0.00948034,-0.14342525,0.01649939,0.99312154,0.09697697,0.04112798,0.05112303
1761619735487,0.05044746,0.02541443,0.04168875,-0.02659533,-0.13854127,0.01424970,0.99316416,0.09682670,0.04034522,0.05120354
1761619735498,0.43442658,-0.01109699,0.08759848,0.00516961,-0.12632372,0.01663721,0.99318501,0.09685565,0.03963781,0.05129671
1761619735510,-0.02591596,-0.00269094,-0.00290259,0.01020509,-0.12854800,0.02453910,0.99320066,0.09691229,0.03892437,0.05143290
1761619735521,-0.06192188,-0.08139341,-0.03096094,0.02070101,-0.11500510,0.02302921,0.99320763,0.09702718,0.03828609,0.05156072
1761619735532,-0.18664122,-0.30832081,0.00315064,0.02372238,-0.11622896,0.03044707,0.99321065,0.09716003,0.03763521,0.05173122
1761619735543,-0.03041053,-0.21988241,0.10643687,0.03106130,-0.12097600,0.03680008,0.99320831,0.09733397,0.03695774,0.05193730
1761619735554,-0.00093169,0.00004479,-0.00688019,0.02149992,-0.10577369,0.04114901,0.99320635,0.09745115,0.03638128,0.05216156
1761619735566,0.00893124,0.29971515,-0.04498698,-0.00325317,-0.11324866,0.04447310,0.99321836,0.09743244,0.03573010,0.05241728
1761619735576,0.15641465,0.23457920,-0.18343172,0.00208105,-0.09871729,0.04324533,0.99322394,0.09744368,0.03519702,0.05265081
1761619735588,-0.18264000,0.05804324,0.02446071,0.02769339,-0.09251336,0.04707293,0.99321273,0.09760153,0.03466970,0.05291912
1761619735599,-0.64406900,0.11405786,0.09614186,0.00546871,-0.10435028,0.02104813,0.99322356,0.09763188,0.03409055,0.05303594
1761619735610,0.21657231,-0.00357658,-0.07287569,-0.00345972,-0.11539951,0.00810814,0.99324501,0.09761251,0.03344432,0.05308134
1761619735621,0.24589067,-0.02281685,-0.05031153,0.01642092,-0.12859564,0.03203017,0.99325031,0.09770364,0.03273061,0.05325911
1761619735632,0.48313216,-0.01635836,-0.17849710,0.02956182,-0.11696061,0.03422896,0.99324498,0.09787215,0.03206393,0.05345422
1761619735644,0.11082396,0.15231993,0.01998880,0.03081419,-0.12219517,0.04855497,0.99323488,0.09804933,0.03136131,0.05373341
1761619735655,0.01429148,-0.12567190,-0.11658840,0.02030847,-0.13913985,0.05192859,0.99323235,0.09815595,0.03063083,0.05400603
1761619735666,0.16001881,-0.52321734,0.45258538,0.00397585,-0.11276147,0.05882099,0.99323143,0.09817881,0.02998245,0.05434425
1761619735677,0.04690493,-0.23096710,-0.08012926,-0.00430118,-0.13832663,0.06088540,0.99323801,0.09815537,0.02922857,0.05467608
1761619735688,0.06149581,0.12057501,-0.07086930,-0.02440596,-0.13043760,0.05295065,0.99325620,0.09801991,0.02850464,0.05496996
1761619735700,-0.10273470,0.34459738,-0.20891731,-0.01949058,-0.11448668,0.04312633,0.99327231,0.09790687,0.02784062,0.05522009
1761619735710,0.08684260,-0.13426248,-0.01051799,-0.01294051,-0.12950646,0.03362472,0.99328859,0.09783634,0.02713481,0.05540334
1761619735721,-0.44147873,0.18728355,0.14448395,-0.02411046,-0.12092106,0.03576720,0.99330842,0.09770494,0.02647579,0.05559827
1761619735733,-0.28666810,0.24552958,0.07463135,-0.00366414,-0.11992740,0.05851973,0.99330971,0.09768442,0.02580419,0.05592598
1761619735744,-0.04009810,0.11084051,0.05162958,0.00773167,-0.10649886,0.04517408,0.99330643,0.09772849,0.02519715,0.05618348
1761619735755,0.61048379,-0.29558463,-0.25983008,-0.00323102,-0.09898831,0.06155845,0.99330274,0.09771121,0.02466756,0.05651281
1761619735766,0.25622026,-0.14823905,0.05308204,-0.03667092,-0.08107303,0.05870019,0.99331556,0.09750218,0.02420545,0.05684741
1761619735777,-0.00366643,-0.15877109,-0.00040738,-0.04540548,-0.07204105,0.06018800,0.99333075,0.09725018,0.02380562,0.05718145
1761619735788,-0.17616192,-0.22519724,-0.04041039,-0.05193861,-0.04294697,0.04934089,0.99334897,0.09695932,0.02356512,0.05745776
1761619735800,-0.30214559,-0.11914946,0.02529398,-0.04904711,-0.02361653,0.05155418,0.99336201,0.09668711,0.02343404,0.05774388
1761619735811,-0.15852418,-0.13389670,-0.03431551,-0.05496811,0.01252753,0.05670488,0.99337185,0.09637654,0.02350482,0.05806427
1761619735822,-0.00571940,0.14252852,0.09276580,-0.05915055,0.04545133,0.03852646,0.99338500,0.09605122,0.02375481,0.05827616
1761619735833,-0.08669767,0.02035055,0.04728964,-0.07311431,0.06968874,0.02845326,0.99340537,0.09564909,0.02413810,0.05843266
1761619735844,-0.22059557,0.01652982,0.03540018,-0.07543941,0.08796627,0.02313672,0.99342679,0.09521531,0.02464390,0.05856569
1761619735855,-0.06972921,0.02608847,-0.10623409,-0.05548620,0.11429861,-0.00623560,0.99344208,0.09491291,0.02526683,0.05853171
1761619735867,0.20689871,0.25108038,0.17451796,-0.03762445,0.11132702,-0.00383467,0.99344758,0.09469469,0.02591253,0.05850947
1761619735878,-0.06710139,0.16417088,0.00338326,-0.03662165,0.13237693,-0.00473171,0.99344901,0.09449693,0.02662736,0.05848391
1761619735889,-0.08053160,-0.02114482,-0.04730527,-0.02998571,0.13750624,-0.00487184,0.99344564,0.09432901,0.02739740,0.05845663
1761619735900,-0.27369480,-0.16048684,-0.31931060,-0.03446015,0.13715459,-0.00526988,0.99344420,0.09413603,0.02816546,0.05842712
1761619735911,-0.01755375,0.03287008,0.10159058,-0.03989441,0.13368101,-0.00922972,0.99344686,0.09391462,0.02890739,0.05837590
1761619735922,0.02499965,-0.17194831,0.05136914,-0.07032103,0.12044412,-0.01257056,0.99346829,0.09352082,0.02958188,0.05830550
1761619735933,-0.22476651,-0.56296580,0.14665417,-0.05294467,0.10968810,-0.02061376,0.99348416,0.09322963,0.03018516,0.05819213
1761619735945,0.12685065,0.08529308,0.13438958,-0.04860463,0.07520563,-0.04812274,0.99351328,0.09295015,0.03061759,0.05791542
1761619735955,0.17580543,0.20015817,-0.09579993,-0.03004313,0.05884024,-0.04647203,0.99353283,0.09279092,0.03092945,0.05766912
1761619735967,0.51674733,0.53675084,-0.12471268,-0.00611318,0.03441254,-0.03285690,0.99354074,0.09275638,0.03112388,0.05748348
1761619735978,0.16668600,0.05179597,0.08104565,0.00206072,0.02068556,-0.02865140,0.99354542,0.09276823,0.03124282,0.05731873
1761619735989,0.40563670,0.03417814,0.23175022,-0.01515214,0.00724741,-0.00578609,0.99355348,0.09268793,0.03128123,0.05728806
1761619736000,0.30515738,-0.06179861,0.18881780,-0.02516044,0.01025634,0.01006771,0.99356184,0.09254200,0.03134072,0.05734646
1761619736011,0.07718538,0.01051288,0.09294859,-0.00429614,-0.00040612,-0.00996769,0.99356727,0.09251837,0.03133849,0.05729163
1761619736023,-0.07395442,-0.01265897,-0.12440668,-0.01039661,-0.03211111,0.01039229,0.99357492,0.09246067,0.03116027,0.05734931
1761619736034,-0.05418164,0.09342705,-0.18576563,-0.00267298,-0.07407629,-0.00933078,0.99359210,0.09244583,0.03074915,0.05729753
1761619736045,0.05369367,0.11370770,-0.01063108,0.01710306,-0.07833539,-0.01100200,0.99360028,0.09254246,0.03030655,0.05723537
1761619736056,0.20813020,0.06470666,0.02441205,0.02041243,-0.08992156,-0.01806664,0.99361050,0.09265473,0.02981198,0.05713600
1761619736067,-0.78625051,0.30007561,-0.46721637,-0.00279724,-0.08408533,-0.01759706,0.99363164,0.09263907,0.02934110,0.05703745
1761619736078,-0.23386566,0.08597594,-0.26952603,0.00232501,-0.08039650,-0.01065641,0.99364690,0.09265197,0.02889490,0.05697831
1761619736090,-0.01513919,-0.05783435,0.10657992,0.00417729,-0.04398094,-0.01188222,0.99365574,0.09267557,0.02864641,0.05691118
1761619736101,0.48273357,-0.24789820,0.53971968,-0.01444515,-0.03131915,-0.00674099,0.99367049,0.09259468,0.02847102,0.05687343
1761619736112,0.00760263,-0.15600247,0.18246320,-0.02057173,-0.03324519,-0.01406090,0.99369104,0.09247948,0.02828485,0.05679469
1761619736123,-0.10262947,0.13409340,0.17272138,-0.01356066,-0.03055756,-0.03035038,0.99371208,0.09240557,0.02811831,0.05662928
1761619736134,-0.17787765,0.20233203,0.26777576,0.00538208,-0.02689050,-0.02817078,0.99372260,0.09243598,0.02796638,0.05647011
1761619736145,0.08116972,0.08431499,0.03644075,0.00342079,-0.02379305,-0.03118944,0.99373436,0.09245497,0.02783433,0.05629701
1761619736156,-0.17028516,-0.08565658,-0.04644141,0.01500596,-0.01250084,-0.01639324,0.99373370,0.09253825,0.02776495,0.05620603
1761619736167,0.13158399,-0.19637822,-0.07740235,0.00884295,0.01227459,-0.00554782,0.99372896,0.09258733,0.02783307,0.05617524
1761619736179,-0.18849051,-0.15792988,-0.01712305,-0.00279216,-0.00731207,-0.00995155,0.99373471,0.09257169,0.02779213,0.05611951
1761619736190,-0.28807722,-0.32915881,0.04307821,-0.00258031,0.01688985,0.00061802,0.99373320,0.09255711,0.02788755,0.05612300
1761619736201,-0.43592953,-0.13698214,-0.02483055,-0.02478898,0.01192128,-0.01302631,0.99374809,0.09242077,0.02795312,0.05605136
1761619736212,0.06403285,-0.04995255,-0.06389212,-0.02178122,0.00287820,-0.00553492,0.99376061,0.09229989,0.02796909,0.05602064
1761619736223,0.33158198,0.25129484,0.08693261,-0.00765127,0.00277972,0.00293063,0.99376325,0.09225666,0.02798480,0.05603720
1761619736234,0.24476442,0.13252545,0.09338456,-0.00994212,0.00318218,-0.00183128,0.99376849,0.09220098,0.02800262,0.05602694
1761619736245,0.03912654,-0.03695657,-0.11991300,-0.03025537,0.00617744,0.00470856,0.99378150,0.09203458,0.02803660,0.05605284
1761619736257,0.02239321,0.19996113,0.05695063,-0.03623802,0.02820569,0.02407054,0.99378819,0.09183164,0.02819455,0.05618763
1761619736268,0.22941103,0.04442750,0.00506675,-0.03764461,0.01707980,0.00747839,0.99380230,0.09162460,0.02828849,0.05622876
1761619736279,-0.08272169,-0.03719401,0.00507004,-0.04732484,0.00462179,-0.02953930,0.99383590,0.09135485,0.02831483,0.05606039
1761619736290,-0.02450247,0.04350658,0.03236423,-0.03880539,0.00218890,-0.01153150,0.99385935,0.09113560,0.02832720,0.05599524
1761619736301,-0.15165803,-0.09561525,-0.06656746,-0.01722514,-0.00136334,-0.00744193,0.99387035,0.09104258,0.02831984,0.05595505
1761619736312,-0.05670656,0.19404951,-0.13056339,-0.00521120,0.00391922,-0.00657548,0.99387450,0.09101314,0.02834198,0.05591790
1761619736324,0.18589448,-0.06065497,0.39641341,-0.01214934,0.00755183,-0.00952051,0.99388252,0.09094510,0.02838427,0.05586458
1761619736335,0.19183266,-0.18211700,0.07262337,-0.01291508,0.00417238,-0.01018958,0.99389151,0.09087407,0.02840722,0.05580854
1761619736346,-0.10477811,-0.02848504,-0.02571072,0.00069091,-0.00543922,-0.01846604,0.99389783,0.09087794,0.02837676,0.05570513
1761619736357,-0.25848953,0.22813839,-0.30410533,0.00410004,-0.01552886,-0.01609470,0.99390326,0.09090090,0.02828980,0.05561500
1761619736368,-0.16607670,0.17503367,0.02054847,0.01802189,-0.02152866,-0.01639439,0.99390259,0.09100002,0.02817139,0.05552483
1761619736379,0.03870128,-0.09341300,-0.08201956,0.04053385,-0.02908980,-0.01205920,0.99389005,0.09122903,0.02800703,0.05545670
1761619736390,-0.18162568,0.42935871,0.30494143,0.00529021,-0.02441614,-0.00683200,0.99389325,0.09125813,0.02787274,0.05541912
1761619736402,-0.12330089,0.10493794,0.00635857,-0.00237016,-0.02538538,0.00372292,0.99389728,0.09124486,0.02773059,0.05543997
1761619736413,-0.07767878,-0.04782359,0.02004168,-0.00798550,-0.02442695,0.01429683,0.99390069,0.09120054,0.02759502,0.05551932
1761619736424,0.01616416,-0.43439059,-0.23273647,-0.00053450,-0.01304946,0.00715328,0.99390075,0.09119754,0.02752194,0.05555938
1761619736435,0.00080021,-0.22462714,-0.09215804,-0.00661784,-0.00955237,0.02342951,0.99389827,0.09116015,0.02746797,0.05569175
1761619736446,-0.14096817,-0.05978721,-0.02739906,-0.00081742,-0.01637285,0.02005809,0.99389495,0.09115562,0.02737710,0.05580307
1761619736457,0.26857526,0.23861088,0.51690253,-0.01600767,-0.00798349,0.01404041,0.99389984,0.09106838,0.02733359,0.05587960
1761619736468,0.07518935,-0.04893923,0.08844164,-0.01642104,-0.00731769,0.02715906,0.99390083,0.09097642,0.02729261,0.05603169
1761619736479,-0.13061646,-0.05020300,-0.17885471,-0.02014561,-0.00691036,0.02040164,0.99390572,0.09086461,0.02725426,0.05614491
1761619736491,-0.15350751,-0.09530769,-0.30860166,-0.02926100,-0.00039771,0.02022958,0.99391449,0.09069782,0.02725199,0.05626022
1761619736502,-0.02201464,-0.13713288,-0.17611714,-0.03126673,0.00289122,0.01338855,0.99392597,0.09051960,0.02726847,0.05633654
1761619736513,-0.03614750,0.01718284,0.13598345,-0.03943027,0.01094998,0.00661800,0.99394168,0.09030668,0.02732760,0.05637228
1761619736524,0.02014188,-0.29691373,0.27965105,-0.01408268,0.00038480,-0.00089322,0.99394894,0.09022922,0.02732972,0.05636736
1761619736535,-0.07881606,-0.26702019,0.34679066,-0.02011308,-0.02061296,0.00544786,0.99396039,0.09011860,0.02721634,0.05639733
1761619736546,0.14222793,0.10225186,0.05923940,-0.00899830,-0.00859524,-0.00316572,0.99396740,0.09006731,0.02716735,0.05637928
1761619736557,0.19939080,0.27708825,-0.37665780,0.00110989,-0.01776747,-0.01168021,0.99397315,0.09007342,0.02706963,0.05631504
1761619736569,0.10620054,0.31302682,-0.32515722,-0.00577796,-0.01839497,-0.01665008,0.99398446,0.09004019,0.02696386,0.05621930
1761619736580,0.04753970,0.01760414,0.03325181,-0.01326480,-0.01710037,-0.02389650,0.99400149,0.08996525,0.02686724,0.05608429
1761619736591,0.10432192,-0.26056507,0.03507080,-0.01145451,-0.02607592,-0.02570162,0.99401918,0.08990167,0.02672252,0.05594164
1761619736603,0.31576993,-0.11173277,0.07011129,-0.01112629,-0.04730409,-0.02482857,0.99403990,0.08983881,0.02645525,0.05580136
1761619736614,0.08921320,-0.05391594,-0.08827128,-0.00302815,-0.05648034,-0.01603323,0.99405483,0.08982185,0.02613896,0.05571158
1761619736624,-0.06056385,0.28115256,-0.04714159,-0.00452703,-0.08864764,-0.01323501,0.99407248,0.08979876,0.02568686,0.05564408
1761619736635,-0.07856747,0.25425194,-0.10895470,-0.00134697,-0.06478951,-0.01435345,0.99408710,0.08979115,0.02532080,0.05556298
1761619736647,-0.07084578,0.05144865,-0.06001371,-0.00259851,-0.08424482,-0.01512276,0.99410505,0.08977660,0.02484903,0.05547829
1761619736658,-0.21983649,-0.25283129,0.44921005,0.00529415,-0.07735730,-0.02380120,0.99412040,0.08980598,0.02441970,0.05534620
1761619736669,-0.18436173,-0.10543896,0.09621799,0.00653303,-0.08539809,-0.01797948,0.99413445,0.08984290,0.02393720,0.05524461
1761619736680,-0.02186598,0.04869123,0.02031854,0.00811811,-0.07399465,-0.00593059,0.99414207,0.08988836,0.02352283,0.05521140
1761619736691,0.12164213,0.14739011,-0.60821066,-0.00713839,-0.07574627,-0.00948265,0.99415858,0.08984838,0.02309865,0.05515830
1761619736703,-0.11403950,-0.06592909,-0.07602633,-0.01625127,-0.07074816,-0.01385972,0.99418023,0.08975738,0.02270246,0.05508068
1761619736714,-0.03013163,-0.03429627,0.01465116,-0.02986662,-0.07110670,0.02262837,0.99419715,0.08959162,0.02230782,0.05520627
1761619736725,-0.21841333,0.11771991,0.01702091,-0.00238837,-0.05145735,0.02919557,0.99419565,0.08957788,0.02201194,0.05537415
1761619736737,-0.18784512,0.06104227,0.06992079,0.01051485,-0.05265397,0.04082330,0.99418344,0.08963992,0.02170128,0.05561500
1761619736748,-0.17776302,0.12608142,-0.04552308,0.00212145,-0.04704999,0.04188996,0.99417501,0.08965169,0.02144015,0.05584749
1761619736758,0.21215952,-0.01956984,-0.22774091,0.00547297,-0.03310729,0.03227316,0.99416694,0.08967933,0.02127296,0.05601047
1761619736769,0.07956419,-0.14113770,-0.11366313,0.00831928,-0.04027542,0.02836488,0.99415858,0.08972592,0.02104742,0.05616931
1761619736781,0.10689532,0.00487292,0.03294216,0.00124484,-0.03174871,0.01880184,0.99415571,0.08973295,0.02086804,0.05627555
1761619736792,-0.28025038,0.32358777,0.00697487,-0.01488419,-0.04603119,-0.00711435,0.99417060,0.08965109,0.02061486,0.05623642
1761619736804,-0.30044783,0.36011473,0.01514471,-0.00893044,-0.04412687,-0.00121072,0.99418147,0.08959662,0.02034569,0.05622903
1761619736816,0.03288067,-0.02968919,-0.01463945,-0.00066076,-0.04551575,0.00542432,0.99418540,0.08959278,0.02008170,0.05626049
1761619736826,0.38582590,-0.22102477,0.05615408,-0.01236486,-0.02534026,-0.01475682,0.99419856,0.08952663,0.01994613,0.05618154
1761619736836,0.11971725,-0.23362256,-0.01075355,0.00337454,-0.01683412,0.00454951,0.99419740,0.08954401,0.01985943,0.05620497
1761619736847,0.05834241,-0.08875033,-0.04301517,0.01256916,-0.00757394,-0.01466048,0.99419659,0.08961063,0.01981929,0.05612727
1761619736858,0.10164535,0.01630310,-0.01708693,0.02784117,-0.01613648,-0.01718138,0.99418981,0.08976515,0.01972973,0.05603192
1761619736870,0.37809803,-0.29638564,0.02533647,0.03144067,-0.03171964,-0.03605578,0.99418874,0.08994593,0.01954735,0.05582459
1761619736881,0.13981284,0.01445809,0.03358249,0.02981103,-0.02890843,-0.01500528,0.99418163,0.09010989,0.01938835,0.05574207
1761619736892,-0.23581986,-0.01885755,0.01990508,0.03883095,-0.03156383,-0.00994645,0.99416845,0.09032734,0.01921159,0.05568637
1761619736903,-0.23326253,0.26372799,-0.04267811,0.02613598,-0.03524067,0.00160328,0.99415835,0.09047501,0.01901248,0.05569542
1761619736914,0.02987468,-0.09373763,0.07468669,0.03043739,-0.03407498,0.01017267,0.99414312,0.09064698,0.01881996,0.05575290
1761619736926,0.23981028,0.03216339,-0.12767962,0.01299320,-0.02925440,0.01110870,0.99413615,0.09071909,0.01865760,0.05581455
1761619736937,0.21672657,0.10352564,0.06192188,0.02202948,-0.03750799,0.01467827,0.99412429,0.09084136,0.01844943,0.05589602
1761619736948,-0.01548047,0.00855659,-0.01548047,0.02807414,-0.01144284,0.00947017,0.99410826,0.09099717,0.01838592,0.05594858
1761619736959,-0.29273563,-0.08920814,-0.24068156,0.03556258,-0.02237316,0.02830516,0.99408338,0.09119632,0.01826063,0.05610709
1761619736970,-0.34475909,0.03465799,0.09429194,0.04771855,-0.02002310,0.01892333,0.99405465,0.09146593,0.01814750,0.05621400
1761619736981,0.01778592,0.12929752,-0.13824197,0.05593753,-0.02791666,0.03844698,0.99401710,0.09177359,0.01799396,0.05642546
1761619736992,-0.35429165,-0.54050834,0.39221880,0.07077962,-0.02599532,0.04264898,0.99396989,0.09216641,0.01784968,0.05666216
1761619737004,-0.08753818,-0.11802158,0.18247775,0.02854817,-0.02454869,0.03498801,0.99394611,0.09232771,0.01771098,0.05685985
1761619737015,-0.19727324,-0.22882764,0.12384376,0.02153504,-0.02349292,0.03821311,0.99392516,0.09244723,0.01758060,0.05707193
1761619737026,0.31150249,0.53210406,-0.56369074,0.01621139,-0.02424079,0.04651224,0.99390411,0.09253801,0.01744485,0.05733240
1761619737037,0.24328426,0.21991211,-0.21287373,0.02209464,-0.01469874,0.04489371,0.99387949,0.09266174,0.01736254,0.05758380
1761619737048,-0.02082996,-0.13286081,-0.02786711,0.00218513,-0.01331375,0.03609455,0.99386813,0.09267376,0.01728931,0.05778232
1761619737059,0.12689486,-0.15306617,0.17942214,0.00871748,-0.02092011,0.04256762,0.99385172,0.09272258,0.01717216,0.05802070
1761619737071,0.00146706,-0.28890166,0.39277196,-0.00220397,-0.02429005,0.02491517,0.99384701,0.09271013,0.01703492,0.05816147
1761619737082,0.08975144,0.02316165,-0.04655772,0.01472963,-0.03023362,0.02488682,0.99383404,0.09279261,0.01686561,0.05830084
1761619737093,0.12315266,0.18942032,-0.21810876,0.03145413,-0.02949076,0.01102993,0.99381689,0.09296718,0.01670194,0.05836205
1761619737104,0.03403075,0.40922448,-0.46847532,0.02451057,-0.04047580,0.01245064,0.99380420,0.09309954,0.01648337,0.05842929
1761619737115,0.12464614,-0.07613469,-0.04787346,0.01482640,-0.05208367,0.00765430,0.99379879,0.09318109,0.01619691,0.05847138
1761619737126,0.08432806,0.11251380,0.42612150,0.02130516,-0.05030014,0.00764190,0.99378955,0.09330146,0.01591271,0.05851456
1761619737138,0.13008882,0.04902497,0.20885615,0.00496773,-0.05378944,0.00667809,0.99378950,0.09333201,0.01558191,0.05855563
1761619737148,0.23455687,0.08937445,-0.08755979,0.02380752,-0.08330470,0.00132555,0.99378432,0.09345224,0.01516122,0.05856233
1761619737160,-0.00971029,-0.13738843,-0.23033721,0.01691679,-0.08318596,-0.00642099,0.99378452,0.09354697,0.01469538,0.05852637
1761619737172,0.13091402,-0.04234008,-0.00443025,0.01004900,-0.08721501,0.00483587,0.99378474,0.09360928,0.01415464,0.05855635
1761619737183,0.09468590,0.13139235,-0.09653215,0.01165250,-0.11164293,-0.00379200,0.99378842,0.09367220,0.01355177,0.05853587
1761619737193,0.22542042,-0.04817994,0.01459557,0.01366899,-0.10897988,-0.01333147,0.99379313,0.09373986,0.01301232,0.05846988
1761619737203,-0.14177421,-0.01992221,0.08043688,0.00758790,-0.10938297,-0.00627694,0.99379877,0.09378046,0.01242712,0.05843630
1761619737215,-0.08803613,0.05660810,0.05005834,0.01610568,-0.09744550,-0.00515881,0.99379863,0.09386984,0.01188630,0.05840767
1761619737227,-0.26647586,0.11283142,0.14060254,0.01339556,-0.09008685,0.00160667,0.99379677,0.09395089,0.01134127,0.05841739
1761619737238,0.10757126,0.03530124,-0.00202627,0.02913634,-0.10892620,-0.00799543,0.99379057,0.09411842,0.01071495,0.05837142
1761619737248,0.24908749,0.07461323,0.00940554,0.03074903,-0.11622322,0.00376257,0.99378079,0.09427524,0.01012221,0.05839061
1761619737259,0.19382451,0.07763652,0.13274334,0.05325528,-0.12785195,0.00502098,0.99375866,0.09456282,0.00943181,0.05841772
1761619737270,-0.12980792,0.19751558,0.35647903,0.04483117,-0.11325936,0.00806938,0.99373790,0.09481387,0.00879756,0.05846291
1761619737283,-0.05240058,-0.03349165,0.07967680,0.03472143,-0.10405709,0.00926336,0.99371991,0.09502394,0.00816801,0.05851895
1761619737360,-0.10555124,-0.10036789,-0.03909809,0.00560545,-0.01633365,0.00165127,0.99370032,0.09524143,0.00753427,0.05858302
1761619737397,1.15111972,0.00253734,-0.02673014,0.05926721,-0.31853854,0.01596899,0.99360437,0.09633787,0.00164130,0.05887845
1761619737425,-1.01690315,-0.03207603,0.10555507,-0.00411095,-0.10223061,0.00430692,0.99360768,0.09628114,0.00023052,0.05893788
1761619737442,0.00887719,0.04516126,-0.10909998,0.00350592,-0.10209137,0.00031349,0.99360428,0.09631235,-0.00067809,0.05894067
1761619737457,0.02309773,0.08376927,-0.06200669,0.02312428,-0.08548499,-0.01115709,0.99359177,0.09648578,-0.00131923,0.05885699
1761619737471,-0.20802522,0.00075182,0.58750917,0.01292451,-0.08009316,-0.02460733,0.99359225,0.09657043,-0.00184384,0.05869582
1761619737482,-0.12206427,0.06749106,0.46579408,0.00304441,-0.07558188,0.00749991,0.99358719,0.09658763,-0.00227088,0.05873819
1761619737494,-0.03706482,-0.15910685,-0.06456080,0.02763520,-0.06335827,-0.00158598,0.99357054,0.09675483,-0.00265420,0.05872860
1761619737506,0.21141768,0.01410689,-0.79812298,0.03859522,-0.06169582,-0.01407609,0.99355220,0.09698254,-0.00301820,0.05864555
1761619737518,-0.18070981,0.03150535,-0.11967681,-0.00816939,-0.06314186,-0.00192701,0.99355651,0.09693271,-0.00340337,0.05863379
1761619737530,-0.21431615,-0.03793189,0.30486310,0.04480001,-0.06091599,0.00155710,0.99352838,0.09720151,-0.00376886,0.05864313
1761619737542,0.03400929,0.08064732,0.20472918,0.06093462,-0.05187102,0.00155079,0.99349108,0.09756407,-0.00407749,0.05865236
1761619737553,-0.17040124,0.15857992,0.06217343,0.03622796,-0.08348797,-0.02242690,0.99347612,0.09777238,-0.00455755,0.05852341
1761619737565,0.33171281,0.25008036,-0.49035806,0.01032480,-0.06804779,-0.01112973,0.99347217,0.09783175,-0.00494882,0.05845941
1761619737576,0.12980066,-0.04754851,-0.08653378,0.01983194,-0.05959423,0.00281515,0.99345822,0.09794578,-0.00529149,0.05847560
1761619737588,-0.04101278,-0.06321186,0.33391792,-0.00573882,-0.05886086,0.00861532,0.99345666,0.09791221,-0.00563583,0.05852600
1761619737600,-0.21658584,-0.04026575,0.71441000,0.01028117,-0.05707027,0.00042861,0.99344822,0.09797544,-0.00598681,0.05852863
1761619737611,0.32465577,-0.08830255,0.16751280,0.02261726,-0.07142628,0.01967611,0.99342751,0.09809757,-0.00637251,0.05863488
1761619737623,0.05218286,-0.04018500,-0.30331285,-0.00053555,-0.07875117,-0.00322929,0.99342591,0.09809452,-0.00682139,0.05861648
1761619737634,0.04898978,-0.09284715,-0.59807318,0.00960300,-0.08511661,-0.01135192,0.99342078,0.09815021,-0.00731507,0.05855064
1761619737646,0.05086421,-0.01001213,0.07017973,0.00670381,-0.06280111,0.00875057,0.99341145,0.09818809,-0.00766990,0.05860008
1761619737659,-0.29503628,-0.18843235,0.28594749,0.01945376,-0.04761043,0.00455053,0.99339476,0.09831454,-0.00797936,0.05862966
1761619737668,0.34986102,-0.48331546,1.03380860,0.02942785,-0.06010569,0.01555898,0.99337443,0.09845285,-0.00826186,0.05870278
1761619737680,-0.22256447,0.01035744,-0.38331783,0.03220720,-0.04789251,0.00338720,0.99335220,0.09864126,-0.00854203,0.05872260
1761619737690,0.20440550,0.32615453,-0.36478521,0.02984374,-0.06615552,-0.01057719,0.99333642,0.09880242,-0.00889927,0.05866548
1761619737705,-0.18548203,0.15093210,-0.52910803,0.01491370,-0.04034468,-0.00822177,0.99332638,0.09891203,-0.00919581,0.05860505
1761619737771,-0.14144891,-0.01567954,-0.02640606,0.00529269,-0.01008493,-0.00261263,0.99331092,0.09908669,-0.00952861,0.05851883
1761619737802,0.92097630,0.04874160,0.56487832,0.00898860,-0.10371969,-0.02976554,0.99330731,0.09922737,-0.01115182,0.05805300
1761619737816,0.71845893,0.18914074,-0.44218519,0.00912146,-0.12345510,-0.06373352,0.99331670,0.09929030,-0.01200366,0.05761324
1761619737835,-0.88566785,-0.05913610,0.43852574,0.02564421,-0.07703660,-0.02061229,0.99329490,0.09953008,-0.01272395,0.05742052
1761619737859,-0.29279711,0.01716325,-0.69697981,0.02089006,-0.04721651,-0.01108265,0.99326948,0.09978598,-0.01330236,0.05728476
1761619737880,0.09902901,-0.40058897,0.13935242,0.00297551,-0.04405550,-0.01089097,0.99326668,0.09981663,-0.01375613,0.05717258
1761619737902,-0.17580572,-0.05163352,-0.00638946,-0.01024499,-0.03952605,-0.02134442,0.99328537,0.09970393,-0.01419091,0.05693779
1761619737913,0.56743290,0.48449616,-0.32152227,-0.00536489,-0.06921583,-0.00558156,0.99328457,0.09967389,-0.01457852,0.05690653
1761619737924,0.34842674,0.38375964,0.26687154,0.03606454,-0.07464819,-0.01271095,0.99326193,0.09987765,-0.01500028,0.05683472
1761619737946,-0.72122279,-0.16574104,0.07481773,0.00605272,-0.02955886,-0.00494577,0.99325365,0.09994212,-0.01531509,0.05678204
1761619737976,-0.12754814,-0.03772971,-0.08145576,0.00031665,-0.02747216,-0.00468654,0.99325077,0.09994683,-0.01572442,0.05671221
1761619738014,0.20185230,-0.04712937,-0.09392580,-0.02216954,-0.04539628,-0.01321247,0.99329356,0.09952340,-0.01659149,0.05645986
1761619738046,0.38638912,-0.06697949,0.14581101,0.01559550,-0.06286324,-0.02725153,0.99327596,0.09977214,-0.01759416,0.05602519
1761619738073,-0.21645969,0.06845968,-0.29830285,-0.01743405,-0.05145070,-0.02996650,0.99331002,0.09953504,-0.01829389,0.05561765
1761619738085,0.10101769,-1.51553167,1.46054740,-0.05517527,-0.07139017,-0.06404170,0.99335621,0.09920675,-0.01871866,0.05523660
1761619738106,-0.42322245,0.67003760,-0.71387334,-0.00957518,-0.02570730,-0.02137064,0.99337406,0.09910334,-0.01899630,0.05500580
1761619738129,0.00387810,0.25782085,-0.14022634,-0.00359132,-0.01896570,-0.02219101,0.99338754,0.09906365,-0.01920587,0.05476059
1761619738141,0.03038668,-0.01075984,0.12873884,-0.02567203,-0.03072624,-0.03202249,0.99340988,0.09890962,-0.01939023,0.05456845
1761619738152,0.01605764,-0.14596628,-0.05526815,-0.04162482,-0.04675500,-0.00470608,0.99342954,0.09867444,-0.01965439,0.05454186
1761619738164,-0.14525586,0.02049385,0.01015117,-0.01565237,-0.02987760,-0.02529393,0.99344444,0.09857505,-0.01984412,0.05438125
1761619738186,-0.26527500,0.05798357,0.03040935,0.00040080,-0.01152534,-0.00617121,0.99344517,0.09857946,-0.01997089,0.05431336
1761619738196,1.30686194,0.04235857,-0.31608524,0.00787419,-0.05183739,-0.00692912,0.99343821,0.09861725,-0.02021971,0.05428010
1761619738199,1.63652790,2.22654726,3.72186946,-0.00199489,-0.14259885,-0.06973716,0.99344000,0.09861396,-0.02045500,0.05416504
1761619738211,-1.38091849,-0.44321146,-0.33622363,-0.01248734,-0.02490866,0.00827586,0.99344155,0.09854278,-0.02059698,0.05421221
1761619738229,-0.15524373,-0.06870485,-0.12824709,-0.00101917,-0.02297289,0.00454561,0.99343595,0.09853366,-0.02080259,0.05425289
1761619738230,42.48405142,5.88251791,-8.07464288,0.06962424,-0.33592304,0.04400655,0.99342202,0.09859284,-0.02108812,0.05429030
1761619738240,-6.54889792,-1.22001610,0.72500545,0.04063694,-0.03782740,-0.00119298,0.99339884,0.09878993,-0.02127159,0.05428451
1761619738258,-0.37782956,0.01027672,0.16003164,0.00168587,-0.02316476,0.00585351,0.99339017,0.09880477,-0.02147544,0.05433602
1761619738260,19.85325232,-1.03938405,-2.14499771,-0.04943010,-0.27333225,-0.11641761,0.99339708,0.09874051,-0.02183077,0.05418468
1761619738275,-3.30937116,0.28258287,0.71377244,0.01797558,-0.03804883,-0.00314037,0.99337913,0.09887173,-0.02210852,0.05416176
1761619738280,4.28755103,0.71775019,0.50693466,0.08126386,-0.13873307,-0.02910962,0.99335363,0.09908708,-0.02247617,0.05408462
1761619738305,-1.09000344,-0.17576738,-0.22470960,-0.00164672,-0.03296266,-0.02232907,0.99336128,0.09906691,-0.02287996,0.05381108
1761619738307,52.52028785,-8.18269943,-26.17172593,-0.43012097,-0.44694007,-0.09251426,0.99339683,0.09865829,-0.02330455,0.05372320
1761619738321,-6.83799823,0.95656428,3.18038657,-0.04818793,-0.03138913,0.00631419,0.99342362,0.09830893,-0.02353212,0.05376897
1761619738335,0.06351513,-0.08125471,0.17647102,-0.03083141,-0.03118860,0.00793936,0.99343628,0.09810082,-0.02374265,0.05382256
1761619738336,29.90941675,-18.33336478,4.29721761,-0.30540502,-0.37547389,-0.00197295,0.99345430,0.09784122,-0.02406180,0.05382089
1761619738351,-3.60204330,2.11814946,-0.39595795,-0.03133486,-0.02303224,0.00573376,0.99347033,0.09761404,-0.02422878,0.05386246
1761619738358,1.19223946,-0.31002825,-0.55465053,-0.03143996,-0.09797142,-0.01869424,0.99347651,0.09749929,-0.02458638,0.05379422
1761619738379,-0.44615106,0.22673109,0.04053658,-0.01878115,-0.03162286,-0.01009593,0.99349291,0.09730678,-0.02491051,0.05369074
1761619738381,21.92540742,-1.97545675,-12.24488100,-0.03788707,-0.32782408,-0.01860050,0.99348881,0.09726321,-0.02528751,0.05366935
1761619738396,-3.19965699,0.28410373,1.87892302,0.01414972,-0.02592970,0.00939967,0.99347002,0.09736721,-0.02547809,0.05373844
1761619738402,1.67842973,-0.73186206,-0.45598422,0.01993275,-0.04747064,0.01512213,0.99345604,0.09743698,-0.02564424,0.05379136
1761619738425,-0.69048179,0.20821415,0.25439725,-0.01260981,-0.01364311,0.00120851,0.99346486,0.09730079,-0.02579159,0.05380442
1761619738427,24.89097981,-9.54436107,-11.56788318,-0.07170634,-0.17249085,0.07539376,0.99346307,0.09721833,-0.02598995,0.05389112
1761619738440,-4.14322490,1.58011320,1.63854295,-0.03417137,-0.02546657,-0.01120029,0.99348520,0.09698767,-0.02616185,0.05381552
1761619738447,1.17860213,-0.19855759,-0.66472670,-0.05245461,-0.04213648,-0.05906589,0.99351110,0.09679883,-0.02631354,0.05360288
1761619738468,-0.52207001,0.07326545,0.45665357,-0.01434515,-0.01677760,-0.00572638,0.99352433,0.09664821,-0.02648971,0.05354275
1761619738470,25.91950553,-13.28895312,7.78834025,-0.30537922,-0.16799297,-0.05924502,0.99355269,0.09634283,-0.02665770,0.05348351
1761619738485,-3.46421626,1.69111416,-0.83120571,-0.02449929,-0.00624066,-0.01092650,0.99357350,0.09616031,-0.02670419,0.05340211
1761619738492,1.11071253,-0.18735811,-1.13637726,-0.03285982,0.00912672,0.00467432,0.99358412,0.09605023,-0.02667362,0.05341776
1761619738512,-0.48632396,0.18107439,0.04358313,-0.00088919,0.00393358,0.00252622,0.99358470,0.09604103,-0.02663291,0.05344391
1761619738515,7.69989167,-2.73798933,-14.52197661,-0.07704973,-0.02081599,-0.20736072,0.99360811,0.09594086,-0.02665997,0.05317434
1761619738528,-1.32697627,0.54389577,2.60165792,-0.01839323,-0.00206828,-0.00933119,0.99362298,0.09581763,-0.02667382,0.05311182
1761619738536,0.24175380,-0.04706749,-1.06064377,-0.02492672,0.00212851,-0.02451487,0.99363749,0.09572166,-0.02666563,0.05301744
1761619738558,-0.22564610,0.05395490,0.48461610,-0.00913790,-0.00775393,-0.00737712,0.99364936,0.09561977,-0.02675209,0.05293519
1761619738560,14.35535328,-2.30627302,-45.87024442,-0.27007681,0.06458271,0.05173466,0.99367056,0.09539021,-0.02669719,0.05297916
1761619738575,-1.60779958,0.18211664,5.27817093,-0.02396597,0.00954530,0.00687882,0.99368631,0.09521765,-0.02662846,0.05302869
1761619738581,0.60220364,-0.29226141,-1.76906706,-0.02835570,0.01947044,-0.00074424,0.99369663,0.09512833,-0.02656713,0.05302634
1761619738603,-0.26632982,0.11256032,0.63841053,-0.00003779,0.00556401,-0.01000268,0.99370420,0.09512792,-0.02650565,0.05291581
1761619738605,6.31108004,-17.32691937,-3.21703259,-0.08608528,0.03400481,-0.06700751,0.99371691,0.09504183,-0.02647165,0.05284881
1761619738619,-0.96934889,2.32840714,0.73010534,-0.01255314,0.00185357,-0.00644798,0.99372774,0.09495647,-0.02645904,0.05280496
1761619738625,0.32999111,-0.43943763,-0.24749333,-0.01316456,0.02476255,-0.03514766,0.99374060,0.09491171,-0.02637485,0.05268546
1761619738648,-0.07969599,0.29466926,-0.10569079,-0.00069283,0.00361267,-0.00751946,0.99374701,0.09490378,-0.02633348,0.05259936
1761619738650,4.70345412,2.00946485,-31.57539421,-0.02778458,0.08803909,-0.12024704,0.99375665,0.09488016,-0.02625865,0.05249715
1761619738695,-0.20450816,-0.06848858,1.25083660,-0.00112551,0.00506519,-0.00133032,0.99376372,0.09485461,-0.02614367,0.05246695
1761619738721,0.09135031,-0.13263700,-0.05179230,0.03398679,0.01922888,-0.03489502,0.99375217,0.09528454,-0.02590043,0.05202553
1761619738748,-0.13168084,0.14865310,-0.09901671,0.00362598,0.00996649,-0.01450432,0.99376140,0.09533458,-0.02576289,0.05182537
1761619738761,-1.15613912,-0.28519480,-0.12147686,0.01492247,0.07196849,-0.00331310,0.99376517,0.09543009,-0.02530229,0.05180417
1761619738787,0.45726351,0.23122202,0.04860128,0.03379497,0.00571783,-0.00978492,0.99373101,0.09587449,-0.02522710,0.05167550
1761619738798,-0.40127626,0.14746667,-0.27760804,0.02660844,0.04473722,-0.02119548,0.99372922,0.09601551,-0.02498999,0.05156316
1761619738820,0.05279189,-0.22729397,0.16432405,-0.00386076,0.02680837,-0.00137359,0.99374148,0.09597305,-0.02469510,0.05154805
1761619738831,-0.06496796,-0.09240331,-0.08293782,-0.00336191,0.04897758,0.00301214,0.99374920,0.09595422,-0.02442083,0.05156492
1761619738843,0.13830032,0.09448035,0.14190613,-0.00245695,0.05308233,-0.00287802,0.99375938,0.09593935,-0.02409968,0.05154751
1761619738855,-0.10649852,0.02685324,-0.10655812,-0.00108092,0.02761483,0.00050785,0.99376366,0.09593314,-0.02394089,0.05155043
1761619738865,-0.17661729,-0.19138479,0.46409090,-0.00267321,0.05302024,0.00044306,0.99377164,0.09591897,-0.02365989,0.05155277
1761619738876,0.06009635,-0.05495521,0.11128413,0.00918235,0.03801810,-0.00302855,0.99377259,0.09596993,-0.02344889,0.05153597
1761619738911,0.15955138,0.04218203,-0.01665036,0.00080097,0.00593269,0.00351821,0.99377053,0.09598367,-0.02334714,0.05159630
1761619738921,-1.89029715,-0.29548984,-1.02769335,-0.07531180,0.07328021,-0.00127198,0.99381885,0.09558075,-0.02295509,0.05158950
1761619738948,0.81708260,0.09934240,0.37112158,0.00513430,0.00283740,0.00469181,0.99380988,0.09564929,-0.02291721,0.05165213
1761619738983,0.01852221,0.01711912,0.02343457,0.00114787,0.00472886,0.00723244,0.99380332,0.09566921,-0.02283517,0.05177762
1761619739018,-0.20752743,0.01859796,-0.05682383,0.00481670,0.01171253,0.02593231,0.99377598,0.09575398,-0.02262902,0.05223403
1761619739052,-0.06143579,0.08836957,0.21911488,0.02731357,0.00421504,0.01387919,0.99372115,0.09621149,-0.02255842,0.05246650
1761619739084,0.08578202,0.09018046,-0.15008215,0.03794144,0.00428896,0.00823702,0.99365638,0.09682234,-0.02248937,0.05259912
1761619739114,-0.06527169,0.04212947,0.11158817,0.00153075,0.00740887,-0.00027237,0.99365688,0.09684584,-0.02237564,0.05259494
1761619739134,-0.34076989,0.01834913,-0.03181280,0.06071406,0.04043754,0.03592702,0.99359059,0.09742566,-0.02198947,0.05293804
1761619739177,0.25567295,-0.15952352,-0.03154733,-0.00021568,-0.00322933,0.00158737,0.99358767,0.09742099,-0.02205938,0.05297241
1761619739217,-0.03798023,0.03104157,-0.05961959,0.03015199,0.00413709,0.01736318,0.99351028,0.09803458,-0.02197519,0.05332575
1761619739249,0.36829667,-0.15988768,0.17714891,0.02561379,-0.01175249,0.00918354,0.99345850,0.09843800,-0.02216029,0.05347039
1761619739281,-0.20056044,0.15128380,-0.18626164,-0.03917547,-0.01708844,0.00652184,0.99350834,0.09781511,-0.02243200,0.05357409
1761619739313,0.05708674,0.18220562,-0.04607063,-0.00095112,-0.02371748,-0.00300637,0.99350385,0.09780008,-0.02280674,0.05352658
1761619739332,-0.18403500,-0.18038127,-0.25169759,0.01089195,-0.05736630,0.00319288,0.99347807,0.09790900,-0.02338040,0.05355851
1761619739356,0.11987156,-0.32459179,0.16556846,-0.02254942,-0.01604120,0.03115296,0.99347993,0.09763841,-0.02357289,0.05393235
1761619739378,-0.19116256,0.00280011,-0.12234833,-0.01408632,-0.00242088,0.00274993,0.99349234,0.09748980,-0.02359843,0.05396136
1761619739401,-0.06501613,0.09073139,-0.06269179,-0.00536860,0.00367767,0.00817105,0.99349433,0.09742672,-0.02355522,0.05405737
1761619739423,0.16333715,0.09358635,0.18120284,-0.00485150,0.01353718,0.01948312,0.99349147,0.09737456,-0.02340970,0.05426681
1761619739445,-0.00661759,-0.03624099,-0.02539347,-0.01760352,0.01634917,0.01328556,0.99350707,0.09717564,-0.02322495,0.05441694
1761619739481,-0.02176586,-0.04445481,-0.01161795,-0.03212255,0.00232971,0.00728670,0.99355738,0.09659583,-0.02318290,0.05454847
1761619739513,-0.05829818,0.04649871,-0.12229660,-0.02239252,-0.00140026,-0.02582233,0.99361386,0.09623979,-0.02320516,0.05413789
1761619739528,-0.34764821,0.53282171,-0.34384955,0.05989353,0.01731850,-0.00604937,0.99357677,0.09667701,-0.02307874,0.05409373
1761619739543,-0.13307353,-0.25543809,0.36693583,0.02874282,0.02192076,0.03264252,0.99354560,0.09689690,-0.02291104,0.05434345
1761619739572,0.22242363,-0.12437700,0.23202531,-0.01243861,-0.01330690,0.03734056,0.99352918,0.09671902,-0.02310133,0.05487742
1761619739588,-0.09704735,0.01584331,-0.26555245,0.02201180,-0.02898149,0.03698394,0.99348973,0.09689732,-0.02333608,0.05517699
1761619739594,-2.29636913,0.09807030,-2.23474341,0.09893588,0.01705928,0.08716233,0.99344313,0.09722381,-0.02327979,0.05546462
1761619739620,0.64580698,0.06989973,0.59602679,0.03081447,0.01344208,0.01349224,0.99339829,0.09762286,-0.02310571,0.05563935
1761619739623,-13.92032890,4.59512957,-13.44309551,0.11426509,0.17096407,0.06247593,0.99338265,0.09778854,-0.02285781,0.05572994
1761619739639,2.30265749,-1.02316994,2.06317057,-0.00338492,0.02289100,-0.00041872,0.99338962,0.09776180,-0.02267698,0.05572663
1761619739651,0.19467794,-0.15030769,0.18068266,-0.05572755,0.02345643,-0.00660519,0.99342662,0.09743858,-0.02254093,0.05568832
1761619739665,0.16905073,0.07527571,0.18046090,-0.01779155,0.01130493,-0.00772539,0.99344462,0.09730692,-0.02245727,0.05563115
1761619739679,0.12952456,0.00471749,0.04493433,-0.01659641,0.00656921,-0.00777658,0.99345985,0.09719241,-0.02241194,0.05557749
1761619739695,0.02692032,0.07526281,-0.00204458,-0.02114509,0.01811059,0.00247220,0.99347807,0.09702748,-0.02227068,0.05559677
1761619739698,-8.94604271,-0.73942708,-15.52727098,-0.19137660,0.10335923,-0.02154134,0.99350802,0.09676912,-0.02213115,0.05556769
1761619739710,1.73763933,0.03587398,3.04055533,-0.04062940,0.00184308,0.02518488,0.99352480,0.09650503,-0.02211917,0.05573140
1761619739717,-0.90288693,-0.47749845,-1.76062951,-0.09346119,-0.01929331,0.02094924,0.99354904,0.09620128,-0.02218187,0.05579948
1761619739739,0.39510011,0.07153443,0.82158434,-0.02401192,-0.01280664,0.00687847,0.99356684,0.09594195,-0.02232018,0.05587377
1761619739740,5.46375911,-41.46147858,-2.34555315,-0.19872786,-0.20515344,-0.19331979,0.99358717,0.09578297,-0.02248430,0.05571911
1761619739754,-0.58157350,4.65016322,0.28547558,-0.00672202,-0.02307683,0.00081689,0.99358769,0.09573793,-0.02263892,0.05572459
1761619739762,-0.26266077,0.17267867,-0.47817159,0.05084112,-0.01846959,0.00435855,0.99356541,0.09594129,-0.02271280,0.05574202
1761619739773,-0.28669342,0.65478135,-0.46698515,0.01364756,-0.00296417,-0.00233765,0.99355851,0.09601635,-0.02272910,0.05572916
1761619739789,0.11836475,-0.00196101,0.20862109,0.03032676,0.00677475,0.00407831,0.99353384,0.09626503,-0.02267355,0.05576260
1761619739806,-0.01213877,-0.03810128,0.25214845,0.01690938,0.00741290,0.01040554,0.99351596,0.09641215,-0.02260906,0.05585313
1761619739808,-12.60148506,-2.91719516,-10.94962774,-0.09060277,0.05690576,0.00602171,0.99352521,0.09632607,-0.02255499,0.05585885
1761619739824,1.57060580,0.19035329,1.41901089,-0.02809650,-0.01143947,-0.00410890,0.99354621,0.09610692,-0.02264422,0.05582680
1761619739828,-1.58535742,-1.58742771,-3.05235030,-0.24065586,-0.12468409,-0.00271983,0.99359030,0.09558951,-0.02291229,0.05582096
1761619739842,0.45030086,0.45976047,0.77829236,-0.01741967,-0.02127324,-0.00998421,0.99360268,0.09546583,-0.02306333,0.05575007
1761619739858,0.05967497,0.06163070,-0.07883982,0.01488552,-0.01188999,0.01887534,0.99358151,0.09557970,-0.02315429,0.05589446
1761619739862,-3.53874588,1.73168703,-4.56609587,0.00387213,-0.01350365,-0.02232594,0.99358258,0.09558706,-0.02317995,0.05585205
1761619739876,0.68210190,0.02128477,1.24098685,0.02868663,-0.01246907,-0.00914698,0.99356366,0.09580078,-0.02327284,0.05578390
1761619739885,-0.39556663,0.53803298,-0.32192138,0.06650576,-0.01496744,0.00560627,0.99353176,0.09610005,-0.02334020,0.05580913
1761619739895,0.07631743,-0.47618818,-0.02465640,0.03032686,-0.02447571,-0.02982234,0.99352302,0.09624411,-0.02345646,0.05566747
1761619739910,0.33557649,-0.33234306,0.11059671,-0.05032460,-0.03571144,-0.02417548,0.99356356,0.09586415,-0.02372608,0.05548495
1761619739917,-0.50274537,-0.06817408,-0.49136783,-0.08348277,-0.06304225,-0.00229613,0.99358786,0.09555944,-0.02395618,0.05547657
1761619739928,0.08694510,0.04959416,0.31300237,-0.01336794,-0.03736302,-0.00508510,0.99359155,0.09548525,-0.02416355,0.05544834
1761619739944,0.12462183,0.03327093,0.07868564,0.00982915,-0.01661194,0.01051414,0.99357663,0.09556094,-0.02429146,0.05552930
1761619739950,-0.82569205,1.15376243,0.19391253,0.02285610,-0.00019833,0.05683132,0.99355886,0.09563636,-0.02429211,0.05571685
1761619739962,0.31805328,-0.31414743,0.02322070,0.02368526,-0.02373961,0.03736851,0.99353132,0.09576781,-0.02442387,0.05592424
1761619739976,0.03436664,-0.16859791,0.05063352,-0.00392160,-0.02212535,0.00866575,0.99352640,0.09573840,-0.02458981,0.05598924
1761619739991,-0.03679299,-0.12756101,-0.11663378,-0.01066579,-0.01697875,0.00407698,0.99352911,0.09566161,-0.02471206,0.05601859
