UnixTime(ms),Ax,Ay,Az,Gx,Gy,Gz,QuatW,QuatX,QuatY,QuatZ
1759199099390,0.00000000,0.00000000,0.00000000,0.00000000,0.00000000,0.00000000,0.93799075,0.13287060,0.32007984,0.00822491
1759199099407,0.13337708,-0.06840108,-0.01234040,-0.01910626,-0.00783148,0.00314527,0.93803675,0.13270629,0.32001249,0.00825196
1759199099415,1.12700828,-0.67154737,-0.40576588,-0.05562691,-0.07201068,-0.00453800,0.93817793,0.13246431,0.31969924,0.00823222
1759199099426,-0.52545184,0.41488659,0.16324138,-0.02734679,-0.04435134,0.00241841,0.93828307,0.13231254,0.31945309,0.00824564
1759199099438,-0.05276009,-0.02189296,-0.06897900,-0.01453470,-0.03352657,-0.01236665,0.93835973,0.13223042,0.31926367,0.00817577
1759199099449,-0.12479844,0.21119753,0.01712869,-0.03309215,-0.03038391,-0.01802907,0.93844382,0.13204676,0.31909504,0.00807571
1759199099459,-0.00131612,0.13217761,0.05325272,-0.03241790,-0.03000803,-0.00724239,0.93851940,0.13188142,0.31894200,0.00803877
1759199099470,-0.04426447,-0.01817675,0.02774177,-0.01190025,-0.03972194,-0.00790835,0.93860395,0.13181538,0.31872154,0.00799488
1759199099481,-0.00918865,-0.22279216,0.00062975,-0.00999833,-0.02873688,0.00675233,0.93866667,0.13175889,0.31855918,0.00803303
1759199099492,-0.07413418,-0.13299992,-0.00879924,-0.02279249,-0.01659545,-0.02115423,0.93871622,0.13163353,0.31846790,0.00791668
1759199099504,-0.01792481,-0.04861212,-0.01010604,-0.02073576,-0.00735973,-0.01822623,0.93874761,0.13151637,0.31842632,0.00781370
1759199099515,-0.03826967,0.10063607,0.01311854,-0.00518255,-0.00136587,-0.02512110,0.93875543,0.13148735,0.31841867,0.00767303
1759199099527,0.01144921,0.15896524,0.01838580,-0.00662276,-0.00688770,0.00284587,0.93877438,0.13144861,0.31837838,0.00768967
1759199099537,0.01908459,-0.01221654,0.07387879,-0.00039808,0.00232334,0.01415053,0.93876984,0.13144648,0.31839081,0.00776538
1759199099549,-0.08021839,0.04480983,-0.01633880,-0.00980555,-0.01246907,0.03129771,0.93880001,0.13139107,0.31832036,0.00794221
1759199099560,-0.10373113,0.09354425,-0.15046794,-0.04648401,-0.03407221,0.03315375,0.93889860,0.13113309,0.31813126,0.00812621
1759199099571,0.00233409,-0.15558988,-0.23108526,-0.03675171,-0.03079778,0.01387256,0.93898198,0.13093463,0.31796495,0.00820113
1759199099582,0.07448300,-0.15182582,-0.08077962,-0.04290828,-0.04708438,-0.02856011,0.93910386,0.13069863,0.31770598,0.00804405
1759199099593,-0.01298530,-0.20803213,-0.00735515,-0.04649772,-0.02208174,-0.04757624,0.93918485,0.13043592,0.31758122,0.00777524
1759199099604,-0.03528913,0.07025290,0.20921645,-0.07309403,0.02335763,-0.03138775,0.93919868,0.13003025,0.31771086,0.00760104
1759199099615,-0.10946336,0.21243709,0.14622762,-0.03375161,-0.01074045,-0.00581545,0.93924544,0.12984124,0.31765071,0.00756847
1759199099626,0.05084261,0.18911550,-0.02922262,-0.00586822,-0.00307250,0.02234110,0.93925478,0.12980838,0.31763350,0.00769358
1759199099637,-0.08150777,0.02508743,-0.14030974,0.00588930,-0.00271072,0.00682745,0.93925504,0.12984077,0.31761860,0.00773113
1759199099649,0.03020567,-0.00083174,-0.04672798,0.01222423,0.00812308,0.01409082,0.93922931,0.12990984,0.31766449,0.00781075
1759199099660,-0.00015840,-0.13263714,0.04678711,-0.00411503,-0.01301989,-0.00160154,0.93925698,0.12988700,0.31759223,0.00780186
1759199099671,0.08175623,-0.06603388,0.07679764,-0.02777152,-0.01676779,-0.02729664,0.93931099,0.12973287,0.31749917,0.00765036
1759199099682,0.04257129,-0.02322070,0.03591953,-0.03232247,-0.02287334,-0.05386166,0.93938103,0.12955348,0.31737222,0.00735143
1759199099693,-0.06627576,0.14101740,0.04269223,-0.00266997,-0.03606052,-0.02036895,0.93945155,0.12953866,0.31717209,0.00723838
1759199099704,0.05656171,-0.06059462,-0.02380428,0.01864003,-0.01248192,0.00664157,0.93946054,0.12964397,0.31710156,0.00727591
1759199099715,-0.02516861,0.01040736,0.05265436,0.00350198,-0.01742856,0.02122476,0.93948958,0.12966341,0.31700484,0.00739370
1759199099727,0.05321411,-0.05563294,-0.04801364,0.00497260,-0.02601626,0.01821096,0.93953368,0.12969101,0.31686044,0.00749477
1759199099738,0.06414294,-0.08002456,-0.00814094,-0.01758348,-0.03470929,-0.00501451,0.93961302,0.12959254,0.31666607,0.00746669
1759199099749,-0.32168642,-0.15514124,-0.03349910,-0.03369754,-0.02875850,-0.02165192,0.93969424,0.12940383,0.31650503,0.00734544
1759199099760,-0.13086457,0.05319644,-0.00027049,-0.06331058,-0.01880177,-0.02953343,0.93977820,0.12905563,0.31640162,0.00718301
1759199099771,-0.00404322,-0.00164148,0.02390510,-0.02507283,-0.01285549,-0.01288285,0.93982225,0.12891522,0.31632962,0.00711086
1759199099782,0.22092496,0.00069973,0.06895806,-0.00354837,0.00824472,0.02041325,0.93980869,0.12889553,0.31637538,0.00722416
1759199099793,0.13647069,0.13520359,0.06458493,-0.02428428,0.01690074,0.02674625,0.93979430,0.12875953,0.31647003,0.00737394
1759199099805,0.00307536,0.03047717,0.03473063,-0.01119527,-0.00510517,0.01834655,0.93981155,0.12869740,0.31644169,0.00747576
1759199099816,0.03579859,-0.03168659,-0.03458917,-0.01396187,-0.02405212,-0.00336954,0.93986724,0.12861991,0.31630820,0.00745706
1759199099827,0.03464849,0.01022674,-0.06108005,-0.04202208,-0.02334325,-0.01351482,0.93994399,0.12838459,0.31617748,0.00738138
1759199099838,-0.08817475,-0.02289675,-0.03766238,-0.03894122,-0.01790189,-0.01671682,0.94000763,0.12816846,0.31607813,0.00728860
1759199099849,-0.18963575,-0.00048376,-0.34818962,-0.02644188,-0.00539867,0.00684782,0.94003740,0.12802171,0.31604816,0.00732660
1759199099860,-0.11542813,0.06847347,-0.09029908,-0.00598463,-0.00584151,0.01222941,0.94005270,0.12798760,0.31601487,0.00739631
1759199099871,-0.07024308,0.17397435,-0.04830508,-0.00252432,-0.01752767,0.01910397,0.94008616,0.12797372,0.31591846,0.00750138
1759199099883,0.25368919,0.02315222,0.28139796,-0.00344952,-0.00355579,0.00688569,0.94009501,0.12795474,0.31589891,0.00753925
1759199099894,0.22832954,-0.04032419,0.20618687,-0.00234097,-0.01495316,0.01867634,0.94012408,0.12794163,0.31581517,0.00764384
1759199099905,0.02423339,-0.11000060,0.02126361,-0.00419369,-0.02830163,-0.01464171,0.94018117,0.12791815,0.31565668,0.00756185
1759199099916,0.11784082,0.00641472,0.05298085,-0.03547920,-0.03245491,-0.02868540,0.94027045,0.12771947,0.31547493,0.00740121
1759199099927,-0.03884803,-0.04887103,0.01599123,-0.03538945,-0.02603781,-0.02397006,0.94034662,0.12752305,0.31533042,0.00726818
1759199099938,0.00628894,-0.07957929,-0.06530823,-0.01081013,-0.02359100,-0.00661692,0.94039893,0.12746306,0.31519949,0.00723145
1759199099949,-0.43245875,0.04486879,-0.07825578,0.00566621,-0.00196480,-0.00733747,0.94039864,0.12749422,0.31518869,0.00719110
1759199099960,-0.15595765,0.15165957,0.08213868,-0.02202863,-0.00518658,0.01717292,0.94042435,0.12737086,0.31515964,0.00728726
1759199099972,0.12151132,0.02939518,0.01523211,-0.02029431,-0.03036988,0.01366678,0.94049548,0.12725823,0.31499109,0.00736311
1759199099983,0.56048445,-0.16930628,-0.12675978,0.00232820,-0.06231901,0.00551543,0.94061028,0.12727127,0.31464210,0.00739400
1759199099994,0.25753920,-0.06889886,-0.01769988,-0.04358022,-0.05717185,-0.00884490,0.94075069,0.12702722,0.31432194,0.00734447
1759199100005,-0.05606942,-0.17295991,-0.10714961,-0.05242568,-0.04460809,-0.02373808,0.94087474,0.12673363,0.31407214,0.00721154
1759199100016,-0.00565611,-0.10779591,0.06814378,-0.07641238,-0.02109846,-0.01776692,0.94097072,0.12631336,0.31395609,0.00711382
1759199100027,0.01410807,0.05978002,0.17410030,-0.07809991,-0.03437746,0.01006361,0.94109311,0.12587601,0.31376358,0.00717017
1759199100038,-0.03012779,0.00563412,-0.13995128,-0.01078040,-0.05331924,0.00911612,0.94119837,0.12581671,0.31347032,0.00722031
1759199100050,-0.26097905,0.24461375,-0.37843554,-0.00209966,-0.04972568,0.01424577,0.94129286,0.12580485,0.31318937,0.00730080
1759199100061,0.00577154,0.12407995,-0.10024191,-0.01726870,-0.05482383,0.01596516,0.94140922,0.12570642,0.31287688,0.00739180
1759199100072,0.11236474,0.02602572,0.05583020,-0.03977434,-0.06459343,0.00919604,0.94155600,0.12548766,0.31252161,0.00744238
1759199100083,0.24176374,-0.20889531,0.25511370,-0.04988429,-0.07260057,0.01238526,0.94172748,0.12520831,0.31211505,0.00751174
1759199100094,0.08030281,-0.10192280,-0.07151227,-0.06060806,-0.06259070,-0.01005030,0.94188908,0.12486890,0.31176454,0.00745546
1759199100106,-0.06565510,-0.07304041,-0.07778023,-0.05268972,-0.04433481,-0.03450146,0.94201290,0.12457121,0.31151405,0.00726052
1759199100117,-0.07894354,-0.01563673,-0.05330830,-0.04925703,-0.03892273,-0.02524068,0.94212148,0.12429783,0.31129803,0.00712044
1759199100128,0.06530823,0.09433411,0.06434070,-0.04701214,-0.03393912,-0.01021133,0.94221851,0.12403691,0.31110967,0.00706377
1759199100139,-0.06596062,0.02515629,-0.08318987,-0.03302811,-0.03690525,0.00619585,0.94231162,0.12385030,0.31090115,0.00709877
1759199100150,-0.11232759,-0.00335638,-0.23387025,-0.03726660,-0.02373783,-0.00671493,0.94238251,0.12364347,0.31076941,0.00706150
1759199100162,0.06412710,-0.08609365,-0.03937452,-0.05226552,-0.02836878,0.01054489,0.94247360,0.12334817,0.31060913,0.00712108
1759199100173,0.06291509,-0.16512215,0.06511879,-0.08369172,-0.03016932,0.00231370,0.94258934,0.12288368,0.31044169,0.00713392
1759199100184,0.22608416,-0.19731744,0.13309745,-0.10573966,-0.02802221,0.00782310,0.94271768,0.12229154,0.31028476,0.00717773
1759199100195,0.07792699,-0.11095093,-0.04585338,-0.13026765,-0.03569269,0.00764417,0.94287746,0.12156204,0.31008488,0.00722054
1759199100206,0.03278636,-0.15110234,-0.12841323,-0.12314604,-0.03272666,-0.02955619,0.94302761,0.12087242,0.30990161,0.00705503
1759199100218,0.01235428,-0.07531359,-0.07032436,-0.13662820,-0.03383455,-0.01724676,0.94318832,0.12010731,0.30971214,0.00695844
1759199100229,0.10596170,-0.01520527,-0.03147965,-0.13818384,-0.01383577,-0.03213528,0.94331328,0.11933348,0.30963466,0.00677849
1759199100240,-0.00399106,0.20314661,0.06927769,-0.21667533,-0.04705086,-0.01046236,0.94355071,0.11813093,0.30937353,0.00672042
1759199100251,-0.11008407,-0.06496056,-0.43988147,-0.17380929,-0.04028465,0.00443376,0.94374581,0.11715760,0.30914793,0.00674525
1759199100262,-0.02660922,-0.06200898,-0.14385608,-0.19190650,-0.07138371,0.01350617,0.94400889,0.11608292,0.30874818,0.00682088
1759199100274,0.41909516,-0.21833812,-0.59086715,-0.13132921,-0.06898045,0.00575425,0.94422505,0.11534748,0.30836189,0.00685311
1759199100285,-0.29555237,-0.10239797,0.60642879,-0.10194208,-0.09168362,-0.03593907,0.94446356,0.11477660,0.30784847,0.00665185
1759199100296,0.27416996,0.17984979,0.48466787,-0.18764959,-0.03786803,-0.04896296,0.94466164,0.11372576,0.30763640,0.00637766
1759199100307,-0.34754604,0.14787649,0.10627165,-0.19549879,-0.04104806,-0.06784056,0.94486825,0.11264075,0.30740859,0.00600114
1759199100318,0.08998989,0.07194902,-0.25279614,-0.14138614,-0.01155580,-0.07495152,0.94498697,0.11184191,0.30734330,0.00557766
1759199100329,-0.11935461,0.11679377,-0.33731324,-0.10254742,-0.02644535,-0.03684379,0.94510410,0.11126765,0.30719520,0.00537134
1759199100341,0.29460204,0.32073609,0.23781987,-0.10958127,-0.03076370,0.00115484,0.94523209,0.11065399,0.30702293,0.00537781
1759199100352,-0.36277167,0.05370652,0.03180429,-0.10019008,-0.06714597,0.01569792,0.94541747,0.11009794,0.30665027,0.00546493
1759199100363,0.20608375,-0.40732985,-0.08647293,-0.09957195,-0.06523749,0.00344002,0.94559890,0.10954531,0.30628820,0.00548402
1759199100374,-0.23263894,0.17464321,0.08929706,-0.12085199,-0.08092122,-0.03146453,0.94582673,0.10886250,0.30583099,0.00530625
1759199100385,0.41171037,-0.42011262,-0.00186717,-0.11615504,-0.04586880,-0.02145701,0.94598646,0.10820622,0.30557184,0.00518502
1759199100396,-0.07207327,0.12773537,0.05344450,-0.12819972,-0.05079864,-0.02881803,0.94615634,0.10750754,0.30529498,0.00502796
1759199100408,-0.01916844,0.05860164,0.06292803,-0.10758264,-0.03756820,-0.01801852,0.94629420,0.10689969,0.30508272,0.00492615
1759199100419,-0.04653559,0.06939668,-0.10432085,-0.09826275,-0.03155963,-0.00270840,0.94641218,0.10635434,0.30490757,0.00491112
1759199100430,0.05890328,0.06413866,-0.09579810,-0.10238250,-0.02812487,0.02523884,0.94652641,0.10578099,0.30475007,0.00505246
1759199100441,0.08362897,-0.18721484,-0.15822980,-0.08688552,-0.03893727,0.03002518,0.94664992,0.10529443,0.30453202,0.00522060
1759199100452,-0.16945585,-0.08359194,-0.48033620,-0.09009251,-0.04698132,-0.00149348,0.94678929,0.10479442,0.30427127,0.00521231
1759199100463,-0.16689881,-0.02491388,0.06373600,-0.13448094,-0.07178439,0.01271231,0.94699914,0.10404805,0.30387287,0.00528286
1759199100475,0.23017462,0.00612927,0.27369980,-0.14141655,-0.04872308,0.01581105,0.94717437,0.10324905,0.30359758,0.00537220
1759199100486,0.11156983,-0.10516958,0.01465101,-0.11430966,-0.04888190,0.00833660,0.94732995,0.10261463,0.30332629,0.00541846
1759199100497,0.21672642,0.16281878,0.01661150,-0.11208789,-0.03562783,0.02085697,0.94746091,0.10198694,0.30312677,0.00553526
1759199100508,0.17752436,0.48637786,0.14614660,-0.13441672,-0.06194634,0.01308752,0.94765041,0.10124093,0.30278297,0.00560790
1759199100519,0.18044422,0.21987104,-0.06615482,-0.11555379,-0.09690649,0.00251171,0.94789028,0.10059960,0.30224514,0.00562184
1759199100530,0.16698951,0.33043813,-0.05260029,-0.10594757,-0.14501084,0.02443659,0.94821363,0.10000100,0.30142583,0.00575991
1759199100542,0.06500083,0.20447215,-0.05899400,-0.11672789,-0.19586292,0.03953197,0.94862892,0.09934732,0.30032900,0.00598129
1759199100553,-0.40637771,-0.01141777,-1.00553370,-0.10799109,-0.23724931,0.07342482,0.94910040,0.09875337,0.29902412,0.00638512
1759199100564,0.22053366,-0.65740623,-0.39889163,-0.10077030,-0.23218242,0.09381597,0.94956804,0.09818402,0.29771229,0.00691518
1759199100575,0.77131353,-0.25519871,0.17729226,-0.12918611,-0.20282700,0.02034815,0.94999325,0.09746704,0.29658660,0.00702811
1759199100586,0.38228895,-0.51686870,0.45290610,-0.19654603,-0.24130596,-0.05956603,0.95051918,0.09638603,0.29525942,0.00670050
1759199100597,0.10813020,-0.05162081,0.23219073,-0.20761884,-0.22779583,0.01792957,0.95103547,0.09521299,0.29397238,0.00680180
1759199100609,0.22245692,-0.36292272,-0.41604023,-0.19122531,-0.19587074,-0.01785284,0.95148110,0.09414212,0.29287550,0.00670183
1759199100620,-0.52363137,0.02066966,-0.44879294,-0.19321400,-0.26566952,0.03204085,0.95204288,0.09306013,0.29138775,0.00688126
1759199100631,0.59680671,-0.25682645,-0.47860952,-0.16460760,-0.20212979,0.07051974,0.95247527,0.09213832,0.29025582,0.00727617
1759199100642,-0.21179428,0.07587242,0.09875668,-0.20129835,-0.21338678,0.03369506,0.95294966,0.09100099,0.28905019,0.00746654
1759199100653,-0.08712924,0.34097536,0.04663574,-0.20220610,-0.18167685,-0.02640887,0.95335882,0.08988885,0.28805096,0.00732129
1759199100665,0.06405219,0.22979823,0.01112533,-0.24072193,-0.20562092,0.00470117,0.95383186,0.08854081,0.28689949,0.00734762
1759199100676,0.36777738,-0.35993717,0.00748384,-0.18241062,-0.19678868,-0.02560468,0.95425797,0.08751931,0.28579747,0.00720423
1759199100687,-0.11259437,-0.19014814,0.01233260,-0.16985235,-0.23281790,-0.00769783,0.95472604,0.08658512,0.28451697,0.00716190
1759199100698,-0.09373701,0.50938939,0.14837446,-0.23350141,-0.20626990,-0.03746379,0.95518871,0.08527752,0.28336186,0.00695210
1759199100709,-0.02818255,-0.00527850,-0.37064832,-0.17429952,-0.18378116,-0.01545367,0.95558414,0.08429272,0.28232350,0.00686479
1759199100720,-0.55309714,0.18209673,-0.15395168,-0.12191256,-0.19081266,-0.03432036,0.95595716,0.08361611,0.28126449,0.00667431
1759199100732,0.82478326,0.15324859,0.02180885,-0.06799972,-0.14281617,0.06696494,0.95622500,0.08323191,0.28045758,0.00705266
1759199100743,-0.24177467,0.17201168,0.39310513,-0.03763445,-0.17436100,0.03538683,0.95652768,0.08302116,0.27948115,0.00725083
1759199100754,-0.41476341,0.28287491,-0.17890114,-0.05942145,-0.20772460,0.05598617,0.95688992,0.08269137,0.27832828,0.00756155
1759199100765,0.10013929,-0.03628235,-0.38132750,-0.06622948,-0.14830238,0.05061362,0.95715837,0.08232379,0.27750520,0.00784246
1759199100776,0.10304187,0.06893647,0.39983150,-0.08364229,-0.11122380,0.03507480,0.95737532,0.08185958,0.27688791,0.00803712
1759199100787,-0.13242537,0.03463350,0.21289621,-0.11271263,-0.12256584,0.00759087,0.95762695,0.08122839,0.27620154,0.00807963
1759199100798,0.03516218,0.16797068,0.00795901,-0.09390154,-0.07161828,-0.00458404,0.95778720,0.08070254,0.27580048,0.00805396
1759199100810,0.21151920,-0.27536965,-0.31361532,-0.04212824,-0.04834878,-0.01290666,0.95788646,0.08046452,0.27552731,0.00798104
1759199100821,-0.19032683,0.26851515,0.30416656,-0.06635874,-0.07110776,0.00943787,0.95802902,0.08009954,0.27513622,0.00803294
1759199100832,0.20730135,0.21510269,-0.00869119,-0.06846686,-0.05682669,-0.01556639,0.95815305,0.07971613,0.27481799,0.00794577
1759199100843,-0.58635309,-0.48894435,-0.03088570,-0.01896287,-0.05027351,0.00331976,0.95824243,0.07960994,0.27453646,0.00796436
1759199100854,-0.15632915,0.24233394,-0.15169629,-0.03730866,0.00645970,-0.03779498,0.95825114,0.07940101,0.27457263,0.00775271
1759199100865,-0.10628137,-0.00577494,-0.00596175,-0.08057872,0.02256756,-0.02198506,0.95825317,0.07895380,0.27469788,0.00763069
1759199100877,0.18781431,0.16762031,0.28094769,-0.11797836,0.05770750,-0.03178164,0.95821575,0.07828722,0.27502393,0.00745113
1759199100888,0.06519692,-0.29545178,0.17417133,-0.11374288,0.05214996,-0.03624667,0.95818555,0.07765595,0.27531336,0.00724996
1759199100899,-0.19592469,-0.25421833,-0.11731293,-0.09508959,0.03922617,-0.04300026,0.95816737,0.07712820,0.27553107,0.00701131
1759199100910,0.07153581,0.10553577,-0.02919908,-0.09107886,0.02974000,-0.03917340,0.95816197,0.07661816,0.27569761,0.00679194
1759199100921,-0.37404943,-0.51841215,-0.00464328,-0.07554901,0.01868234,-0.04895810,0.95816745,0.07619886,0.27580130,0.00652022
1759199100933,-0.10580194,0.14356161,0.18327150,-0.10397211,0.06561591,-0.07085267,0.95810984,0.07561142,0.27617203,0.00611990
1759199100944,-0.18646450,-0.00796007,-0.02063037,-0.11806354,0.08820974,-0.07283118,0.95802337,0.07496207,0.27665718,0.00571933
1759199100955,-0.38235880,0.30922238,0.12630656,-0.13284144,0.07938281,-0.06431561,0.95795551,0.07422480,0.27709776,0.00536238
1759199100966,-0.07805113,-0.14376511,0.12603205,-0.12070902,0.09115053,-0.05142594,0.95786142,0.07354883,0.27760820,0.00507439
1759199100977,0.12829444,-0.15585398,0.00784022,-0.09959580,0.08441455,-0.05395518,0.95776852,0.07299109,0.27808092,0.00477224
1759199100988,-0.04228965,-0.02684680,0.35732376,-0.07744089,0.07994447,-0.05718820,0.95767292,0.07255742,0.27852861,0.00445199
1759199100999,-0.10156364,0.01519584,0.14284531,-0.11083357,0.05612020,-0.05672060,0.95763048,0.07194784,0.27883727,0.00414003
1759199101011,-0.06655972,-0.19065497,0.08714836,-0.07285290,0.07712685,-0.05605429,0.95753397,0.07152893,0.27928075,0.00381771
1759199101022,-0.09907533,0.04949404,0.10427536,-0.08929292,0.08119548,-0.04980405,0.95744207,0.07104229,0.27972326,0.00354628
1759199101033,-0.15958464,0.19187926,0.36527561,-0.09682377,0.07148421,-0.04292106,0.95736665,0.07050491,0.28012000,0.00330807
1759199101044,-0.02937845,0.18601233,-0.04342846,-0.06515904,0.06239389,-0.04476084,0.95729131,0.07013677,0.28047253,0.00305517
1759199101055,-0.38177595,-0.32070601,-0.04141539,-0.03469417,0.05297843,-0.04087382,0.95721991,0.06994421,0.28076656,0.00282832
1759199101066,0.38248752,0.81893154,0.23253381,-0.06814635,0.03699439,-0.04524844,0.95718735,0.06955919,0.28097558,0.00257267
1759199101077,-0.26149233,-0.30405649,0.48693329,-0.05101922,0.02626355,-0.04983997,0.95716599,0.06927858,0.28112003,0.00229855
1759199101089,0.21564910,-0.38288654,-0.31992237,-0.03941405,0.03774489,-0.03812818,0.95712073,0.06905983,0.28132951,0.00208694
1759199101100,-0.20253569,0.28113476,0.61730514,-0.02855433,0.00623193,-0.05104612,0.95712258,0.06889993,0.28136441,0.00180108
1759199101111,-0.05179294,0.16440694,0.14278696,-0.04562301,0.00620464,-0.04676037,0.95713118,0.06864444,0.28139915,0.00153922
1759199101122,-0.08395045,-0.03375986,0.14326345,-0.04224890,0.02069184,-0.02091601,0.95711437,0.06840996,0.28151399,0.00142314
1759199101133,-0.06337317,-0.01741553,0.29509645,-0.05699989,0.02460581,-0.03028092,0.95709699,0.06809361,0.28165056,0.00125508
1759199101144,-0.09775120,0.11391536,-0.04053454,-0.05880246,0.03757193,-0.04725265,0.95705873,0.06776432,0.28186096,0.00099046
1759199101155,-0.22522801,0.12283004,-0.06699821,-0.05265730,0.03945502,-0.03576078,0.95701465,0.06746943,0.28208191,0.00079020
1759199101167,-0.09643762,0.12394526,0.16074809,-0.04202499,0.07208513,-0.02928180,0.95691318,0.06723620,0.28248198,0.00062769
1759199101178,-0.15157276,0.08143835,0.40911568,-0.01361743,0.05967085,-0.02191292,0.95681907,0.06715926,0.28281912,0.00050388
1759199101189,-0.08999735,0.03997052,0.32028646,0.01558015,0.06290546,-0.01669236,0.95670977,0.06724573,0.28316825,0.00041124
1759199101200,-0.04886023,0.15770728,0.25276704,-0.00361662,0.06951225,0.00709824,0.95659689,0.06722565,0.28355404,0.00045063
1759199101211,-0.05530744,0.06023032,0.13461070,0.01653202,0.05320088,-0.00100753,0.95650202,0.06731823,0.28385196,0.00044499
1759199101223,-0.01473010,0.07745183,0.09432017,0.02974500,0.03208498,-0.00003958,0.95643695,0.06748481,0.28403164,0.00044477
1759199101234,-0.10155171,0.03523275,0.02080620,0.04156254,0.01396878,-0.00858625,0.95639764,0.06771548,0.28410917,0.00039712
1759199101245,-0.08320752,0.18915199,-0.15528846,-0.01037939,0.02658726,0.00987100,0.95635784,0.06765787,0.28425673,0.00045190
1759199101256,-0.11776190,0.02706551,-0.23760123,0.01815235,0.01338952,-0.00319718,0.95632810,0.06776043,0.28433238,0.00043384
1759199101267,-0.09674014,0.12046473,-0.00498923,0.03988466,-0.00226143,-0.01641889,0.95631605,0.06798379,0.28431971,0.00034189
1759199101278,-0.09498391,0.05791573,0.22798161,0.04786883,-0.01412257,0.00116197,0.95632039,0.06824707,0.28424204,0.00034828
1759199101289,0.06287723,0.03957689,0.25172923,0.03606107,-0.00269196,0.03293389,0.95631035,0.06844901,0.28422696,0.00053271
1759199101301,0.08362897,0.00451406,0.16702035,0.03550087,-0.02665580,0.04960727,0.95634026,0.06864781,0.28407769,0.00081051
1759199101312,0.06652304,-0.08244105,0.03349910,0.02494607,-0.03496473,0.02259555,0.95638824,0.06878751,0.28388189,0.00093705
1759199101323,-0.06345092,-0.08870603,-0.04445236,0.00401969,-0.03374770,0.01169740,0.95644215,0.06880982,0.28369459,0.00100197
1759199101334,-0.10546070,-0.13811481,-0.17560657,-0.00091215,-0.04021183,-0.00692134,0.95650872,0.06880476,0.28347141,0.00096355
1759199101345,-0.12672340,0.11170648,-0.53622965,-0.00504167,-0.02893214,-0.01551919,0.95655884,0.06877652,0.28330939,0.00087665
1759199101356,-0.09503292,0.02660922,-0.41244285,-0.00572292,-0.01896917,-0.00655982,0.95659263,0.06874448,0.28320317,0.00083991
1759199101367,-0.00651787,-0.04014815,0.03201917,-0.02500325,-0.01941239,0.01051439,0.95663443,0.06860571,0.28309543,0.00089827
1759199101379,0.10660138,-0.36759748,0.51244418,-0.01674532,-0.03008102,0.02388044,0.95668984,0.06851361,0.28292998,0.00102961
1759199101390,0.08956886,-0.26487252,0.24962965,-0.00575686,-0.04894121,0.02759523,0.95677372,0.06848108,0.28265346,0.00118552
1759199101401,-0.08942797,-0.06922116,-0.22400873,0.00634398,-0.05178369,0.02352230,0.95685589,0.06851629,0.28236606,0.00131607
1759199101412,0.01935059,-0.07159717,-0.21987104,-0.01476153,-0.04251188,0.02172116,0.95693117,0.06843437,0.28213012,0.00143662
1759199101423,-0.09033893,-0.15481928,-0.06741146,-0.03149175,-0.04796394,0.01128104,0.95702364,0.06825644,0.28185913,0.00150036
1759199101434,0.00779161,-0.12007210,0.10442467,-0.07130850,-0.02507896,-0.00562320,0.95709281,0.06786067,0.28171994,0.00146915
1759199101446,-0.12868140,-0.10159058,-0.16496375,-0.08997094,-0.03155812,0.02089824,0.95717943,0.06736134,0.28154479,0.00158514
1759199101457,-0.07925831,-0.18187887,-0.12962575,-0.04450365,-0.05316959,0.02229885,0.95728425,0.06711212,0.28124704,0.00171001
1759199101468,-0.03613117,-0.14882890,-0.21751701,-0.03145246,-0.02489051,0.00865943,0.95733696,0.06693755,0.28110890,0.00175807
1759199101479,0.10069666,0.14556335,0.13834279,-0.05781930,-0.02748726,0.02147581,0.95740511,0.06661088,0.28095360,0.00187941
1759199101490,-0.03720279,0.10264587,-0.04117993,-0.07651211,-0.03387509,0.02250580,0.95748945,0.06618623,0.28076559,0.00200432
1759199101501,-0.11658729,-0.03168659,-0.12989081,-0.06192079,-0.02105164,0.00816609,0.95754730,0.06584257,0.28064875,0.00204964
1759199101513,0.01345443,-0.05329549,-0.10869497,-0.06863367,-0.01594613,0.02066373,0.95759956,0.06545822,0.28055945,0.00216535
1759199101524,0.09930940,0.05559426,0.00118791,-0.09886607,-0.04614395,0.02070862,0.95771265,0.06490457,0.28030105,0.00228132
1759199101535,0.12471626,-0.04102065,0.02309112,-0.08796627,-0.05743927,0.02006254,0.95783858,0.06441636,0.27998226,0.00239267
1759199101546,0.09481787,-0.05853552,-0.31178633,-0.08388554,-0.06133432,0.01567105,0.95796899,0.06395080,0.27964185,0.00247964
1759199101557,0.00432785,0.10722025,-0.44967478,-0.11585635,-0.06274384,-0.00496428,0.95811464,0.06330200,0.27929049,0.00245184
1759199101568,-0.08273672,-0.16768925,-0.24676533,-0.04962544,-0.03709653,0.00914475,0.95819266,0.06302658,0.27908460,0.00250260
1759199101579,-0.11755481,0.10981458,0.32799245,-0.05509093,-0.00436381,-0.00674982,0.95821987,0.06272083,0.27906038,0.00246514
1759199101591,-0.08326938,0.15595458,0.40749215,-0.04726755,-0.02938319,0.01846679,0.95828479,0.06245613,0.27889584,0.00256855
1759199101602,0.05934756,0.19748181,0.03341648,-0.06057836,-0.03541286,0.03961729,0.95836321,0.06211992,0.27869930,0.00278843
1759199101613,0.06995193,-0.02252109,-0.09702775,-0.03556804,-0.05094641,0.03148435,0.95845849,0.06192074,0.27841400,0.00296474
1759199101624,0.12116697,-0.16203112,-0.12021664,-0.03724467,-0.05726208,0.02642661,0.95856456,0.06171217,0.27809333,0.00311273
1759199101633,0.01180171,-0.21491657,-0.04086295,-0.07895398,-0.05534385,0.02408101,0.95866238,0.06134503,0.27783598,0.00322470
1759199101645,-0.36854889,0.27206493,-0.28015295,-0.09073036,-0.06459216,0.01022392,0.95879932,0.06083694,0.27747426,0.00328196
1759199101656,-0.10168522,0.11498983,-0.16583244,-0.06747279,-0.04732378,0.00772733,0.95889972,0.06045909,0.27720925,0.00332523
1759199101667,0.01226579,0.09459619,-0.06306274,-0.03927376,-0.04597186,0.02478208,0.95898824,0.06023720,0.27694951,0.00346525
1759199101678,0.38309881,-0.10580747,0.19728180,-0.04186218,-0.07028510,0.05120026,0.95911430,0.06000486,0.27655943,0.00374941
1759199101689,0.20318116,-0.07982117,0.01378729,-0.02454807,-0.05402840,0.02238227,0.95920873,0.05986862,0.27625957,0.00387363
1759199101700,0.05950305,0.10739576,0.03483106,-0.09677265,-0.07387088,0.02563638,0.95935950,0.05933153,0.27584959,0.00401592
1759199101711,0.09530164,-0.27139198,0.04668329,-0.02337406,-0.06726216,0.01491291,0.95947442,0.05920180,0.27547628,0.00409868
1759199101723,0.04390533,0.19451226,0.14788609,-0.08788862,-0.08086574,0.00494584,0.95963730,0.05870084,0.27501535,0.00412687
1759199101734,-0.04457377,-0.00869468,-0.23075909,-0.03153967,-0.08580049,0.01030141,0.95978540,0.05852422,0.27453486,0.00418456
1759199101745,-0.19265496,0.03903376,-0.38442662,-0.01897725,-0.06261340,0.00588830,0.95989100,0.05841889,0.27418736,0.00421724
1759199101756,-0.19994669,0.13194858,-0.17778670,-0.04285521,-0.08464596,0.01164766,0.96004190,0.05817676,0.27370911,0.00428305
1759199101768,0.06848865,0.04040894,0.06844582,-0.04714053,-0.05567381,-0.00139840,0.96015327,0.05789628,0.27337785,0.00427473
1759199101778,0.19016820,-0.18083655,0.11116468,-0.03926653,-0.05921414,0.01377990,0.96024998,0.05769798,0.27307882,0.00434432
1759199101790,0.22167716,0.10127109,0.23810614,-0.04152663,-0.07339818,0.00369605,0.96038529,0.05745712,0.27265311,0.00436576
1759199101801,0.05869228,-0.00907782,-0.22129727,-0.04126851,-0.07594051,-0.00217538,0.96051617,0.05723221,0.27223923,0.00435390
1759199101812,0.08522162,-0.02887257,0.02048959,-0.06227509,-0.07846489,0.00895226,0.96066238,0.05688036,0.27179591,0.00440448
1759199101888,0.02953432,0.04098178,0.14771758,-0.01109195,-0.01138603,-0.00112332,0.96080858,0.05646219,0.27136665,0.00436213
1759199101890,-30.69604986,-106.73403798,-173.27826202,-2.40670651,-1.68284877,-0.76339622,0.96151521,0.05369448,0.26943138,0.00348422
1759199101925,2.05231957,6.88832764,11.25925429,-0.06494976,-0.05345704,-0.01738658,0.96183792,0.05256760,0.26850390,0.00318257
1759199101953,-0.00697722,-0.07834263,-0.06016532,-0.03714091,-0.04356414,-0.02625140,0.96204094,0.05203834,0.26788311,0.00280849
1759199101971,-0.06036717,-0.00280574,-0.08236891,-0.06689562,-0.02051975,-0.00981331,0.96212683,0.05142290,0.26769433,0.00271820
1759199101986,-0.03794266,0.16443003,0.19246406,-0.01924696,-0.04173264,0.00396567,0.96222022,0.05128047,0.26738551,0.00274755
1759199101999,0.07023733,0.17943386,0.20691487,-0.06261342,-0.06011214,0.00151941,0.96235129,0.05087036,0.26699177,0.00275750
1759199102012,0.05066471,-0.01791119,0.04670862,-0.07834130,-0.04800873,-0.00503284,0.96245684,0.05039639,0.26670132,0.00272705
1759199102022,0.02096400,-0.31254544,0.07771246,-0.09128458,-0.02396134,0.01796477,0.96251639,0.04991715,0.26657552,0.00282137
1759199102034,-0.11942897,-0.02257648,0.11075231,-0.07511148,-0.02343851,-0.01049861,0.96257982,0.04945897,0.26643255,0.00275733
1759199102046,0.01746612,0.20540328,0.09069623,-0.07641648,0.00415637,-0.05109422,0.96259719,0.04900047,0.26645749,0.00245076
1759199102065,-0.06164433,0.29669503,0.02569181,-0.03552704,0.02162252,-0.02977280,0.96255955,0.04867540,0.26665533,0.00217834
1759199102069,-0.82080297,-0.91897258,-0.94328644,-0.14160116,-0.02107206,-0.06435320,0.96259037,0.04834263,0.26660581,0.00202711
1759199102080,0.16748035,0.28433545,0.36767629,0.06787903,0.00380312,0.00290606,0.96256527,0.04872276,0.26662711,0.00204338
1759199102092,-0.04169108,-0.02986179,0.12805447,0.00907525,-0.00697548,-0.02526694,0.96257426,0.04877630,0.26658595,0.00189431
1759199102108,0.10055158,0.02632723,0.11713167,-0.04258018,-0.00677482,0.01346764,0.96260546,0.04844418,0.26653311,0.00199936
1759199102115,-0.22795806,-0.97109102,-0.04617380,-0.01385788,-0.01117694,-0.04537097,0.96261963,0.04839359,0.26649231,0.00183375
1759199102126,0.18502128,0.26708480,0.09648445,-0.05224483,-0.00571705,-0.04776288,0.96264362,0.04810102,0.26646030,0.00156628
1759199102138,0.09029911,-0.03044247,0.18071874,-0.06543904,0.01290202,-0.00961476,0.96264187,0.04771820,0.26653578,0.00151003
1759199102150,-0.09545969,0.07312620,0.02194354,-0.04666136,0.00817629,-0.01850184,0.96264228,0.04744757,0.26658320,0.00140272
1759199102161,-0.01097991,0.27109798,-0.21026557,-0.02143913,-0.02788785,-0.00365597,0.96269277,0.04732429,0.26642284,0.00138170
1759199102173,0.01216881,0.01599973,-0.12439230,-0.01497632,-0.01756524,0.01945768,0.96272478,0.04723818,0.26632184,0.00149358
1759199102184,0.06909169,-0.16789606,0.02502908,-0.03934944,-0.04516291,0.04874749,0.96280861,0.04700799,0.26605764,0.00177876
1759199102196,0.21195539,-0.06464667,-0.01026942,-0.06974230,-0.07943043,0.01675655,0.96295149,0.04661394,0.26560886,0.00187343
1759199102207,0.01258760,-0.31438491,-0.12759704,-0.04169135,-0.08706867,0.01541396,0.96310083,0.04637422,0.26510821,0.00196206
1759199102218,-0.09123141,-0.18371910,0.00988990,-0.06768485,-0.02806469,-0.04248249,0.96316326,0.04599180,0.26494965,0.00172203
1759199102230,-0.23125130,0.07055398,0.12549112,-0.09370832,-0.00353014,-0.02693093,0.96319469,0.04545297,0.26492935,0.00156718
1759199102243,-0.09392088,0.34250989,0.16321148,-0.07346771,0.00995072,0.01657003,0.96319910,0.04497911,0.26499353,0.00167406
1759199102252,-0.49789763,0.04810858,0.06068217,0.01235314,0.00101341,0.01768364,0.96319493,0.04503717,0.26499829,0.00175717
1759199102264,-0.04680063,0.25605196,-0.16663699,0.03618048,-0.04153471,0.04422116,0.96324987,0.04524340,0.26476155,0.00200923
1759199102275,0.06950033,0.01833114,-0.13632064,0.08577342,-0.00705888,0.06476332,0.96323758,0.04571086,0.26472308,0.00236219
1759199102286,-0.02792645,0.31590297,0.10786838,0.00015649,-0.07990343,-0.02418662,0.96336292,0.04571175,0.26426763,0.00222433
1759199102297,0.16448455,0.02127961,-0.10087700,-0.01356788,-0.05205841,0.03739220,0.96344816,0.04563374,0.26396829,0.00243933
1759199102310,0.06359101,-0.05999263,0.00410738,-0.01029057,-0.00418073,-0.00223006,0.96345831,0.04556994,0.26394237,0.00242551
1759199102320,-0.34095780,-0.07048730,0.12345852,0.00348705,-0.07406386,0.02442338,0.96355855,0.04558737,0.26357205,0.00254762
1759199102331,0.21960206,0.03673973,0.01999493,0.03160377,-0.01576329,0.02848517,0.96357387,0.04576435,0.26348378,0.00270714
1759199102342,-0.14389209,0.08222028,-0.19269471,0.01598639,-0.01949330,0.02064013,0.96359867,0.04585228,0.26337656,0.00282066
1759199102353,-0.09796687,0.04555039,-0.82741817,0.01983641,-0.00856261,0.00320805,0.96360650,0.04596435,0.26332818,0.00283879
1759199102365,0.01731197,-0.05757271,0.09154908,0.02142152,0.00077585,0.00515719,0.96359950,0.04608431,0.26333253,0.00286767
1759199102376,-0.01235428,0.00475165,0.27559546,0.00666660,0.00622487,0.00507770,0.96358810,0.04612165,0.26336739,0.00289610
1759199102387,-0.08100088,-0.08254921,0.48076429,0.01722320,0.01445723,0.00958322,0.96356094,0.04621896,0.26344907,0.00295025
1759199102398,0.08223143,0.03364947,0.02194494,0.00575106,0.02457429,0.01742662,0.96352181,0.04625088,0.26358546,0.00304697
1759199102409,0.14795197,0.06123804,-0.04419593,0.00824391,0.01627654,0.02646805,0.96349393,0.04629745,0.26367742,0.00319651
1759199102421,0.12940035,-0.16461299,0.02007675,0.01318877,-0.02221587,0.04555833,0.96352353,0.04637131,0.26355301,0.00345164
1759199102432,0.10311071,-0.06224656,-0.00641472,-0.01379903,-0.05497865,-0.00745227,0.96361156,0.04629404,0.26324513,0.00340990
1759199102443,0.16108079,-0.04846679,-0.12330521,-0.03963721,-0.06385942,-0.00137035,0.96371985,0.04607207,0.26288752,0.00340223
1759199102454,0.00246316,-0.03612635,-0.23115155,-0.03660129,-0.08514936,0.02479264,0.96386031,0.04586527,0.26240643,0.00354231
1759199102465,-0.01166983,-0.25510596,-0.14978539,-0.04576813,-0.08159074,0.01141325,0.96399408,0.04561355,0.26195768,0.00360508
1759199102477,0.19107486,0.08378913,0.16378027,-0.07220493,-0.08253515,0.02433471,0.96413937,0.04520559,0.26149135,0.00374257
1759199102488,0.12932285,-0.13656582,0.05761027,-0.03864976,-0.13421650,0.05557865,0.96434798,0.04499301,0.26075316,0.00404825
1759199102499,0.14581505,-0.03807796,-0.05627245,-0.04351201,-0.13008495,0.03340750,0.96455519,0.04474935,0.26002469,0.00423534
1759199102510,-0.08743028,-0.17676122,-0.19149133,-0.05143509,-0.14226087,0.03288270,0.96478209,0.04446131,0.25922803,0.00441948
1759199102521,-0.03326152,-0.03872591,-0.05773250,-0.07452797,-0.12380507,0.02072462,0.96498671,0.04404395,0.25853472,0.00453554
1759199102532,-0.11974147,-0.05583184,-0.00498923,-0.07477698,-0.10786188,0.01631147,0.96516692,0.04362520,0.25793069,0.00462688
1759199102543,-0.08282742,-0.02987031,-0.02666537,-0.07623905,-0.09388958,0.01581162,0.96532463,0.04320208,0.25740960,0.00471464
1759199102555,-0.04478105,-0.10985719,-0.06385399,-0.01554772,-0.07618917,0.00880937,0.96544195,0.04311501,0.25698294,0.00476397
1759199102566,-0.06946774,0.23323936,0.09587395,-0.00218845,-0.08046225,0.01487664,0.96556084,0.04310286,0.25653638,0.00484653
1759199102577,-0.12566792,0.30950399,0.17530976,0.00462536,-0.09773884,0.04044408,0.96570505,0.04312900,0.25598415,0.00507504
1759199102588,-0.31858258,0.18972779,0.12606137,0.01446121,-0.08284854,0.01540461,0.96582278,0.04320926,0.25552435,0.00516054
1759199102599,-0.04219119,0.06824391,0.02107847,-0.00414310,-0.05562947,0.00824386,0.96590593,0.04318605,0.25521282,0.00520670
1759199102611,-0.13257092,0.01140395,0.01615560,-0.00218004,-0.05899306,0.04323232,0.96599237,0.04317385,0.25488246,0.00544881
1759199102622,0.01862926,0.03283553,0.14626106,0.01537598,-0.06551541,0.03180461,0.96608341,0.04325918,0.25451885,0.00562532
1759199102633,0.08949646,-0.00532141,0.17101081,0.01079417,-0.06300797,0.02371804,0.96617201,0.04331909,0.25416915,0.00575696
1759199102644,0.12227842,-0.04260632,0.12533570,-0.00719793,-0.07853318,0.03449251,0.96628927,0.04327842,0.25372544,0.00595184
1759199102655,0.07579693,-0.13392575,0.05115704,-0.01662232,-0.05132517,0.03267581,0.96636702,0.04318617,0.25344059,0.00613319
1759199102666,-0.01810195,-0.18221998,-0.11892527,-0.01183861,-0.03432499,0.02025935,0.96641870,0.04312106,0.25325180,0.00624462
1759199102678,0.02996159,-0.04650176,-0.11421347,-0.01947627,-0.01755819,0.01838690,0.96644919,0.04301004,0.25315172,0.00634942
1759199102689,0.04655779,-0.03413266,-0.02428341,-0.03740378,-0.02318129,0.04393982,0.96649083,0.04280058,0.25302190,0.00659548
1759199102700,0.18545896,-0.02820737,-0.04632479,-0.04580190,-0.01627196,0.02211544,0.96652485,0.04254638,0.25293159,0.00671822
1759199102711,0.14596114,0.04482386,-0.01348440,-0.01966690,-0.01870299,-0.00228981,0.96655718,0.04243625,0.25282686,0.00670540
1759199102722,0.07862524,0.14446789,-0.01149475,-0.03284095,-0.03824384,-0.00108005,0.96662185,0.04225069,0.25261078,0.00669930
1759199102733,0.15663083,0.10183668,0.02339251,-0.04082782,-0.03419341,0.00230267,0.96668014,0.04202818,0.25242442,0.00671185
1759199102745,0.18733255,-0.03793252,-0.14754078,-0.01743524,-0.03061423,0.00308772,0.96672901,0.04193055,0.25225299,0.00672914
1759199102756,0.16759422,-0.07648449,-0.27305492,0.00391477,-0.04635450,0.01178226,0.96679470,0.04195227,0.25199572,0.00679453
1759199102767,0.23066458,0.16251913,-0.15346746,0.01412787,-0.05186472,0.01593614,0.96686629,0.04203139,0.25170528,0.00688377
1759199102778,-0.01568043,0.10192280,0.16725793,0.03303128,-0.04092004,0.03098742,0.96691661,0.04221636,0.25147612,0.00705730
1759199102789,0.05785739,0.19565473,0.11234787,0.03018100,-0.05050577,0.02056470,0.96698130,0.04238387,0.25119582,0.00717144
1759199102800,0.12432752,0.01789929,-0.03507294,0.02546581,-0.06262111,0.01457364,0.96706471,0.04252520,0.25084827,0.00725232
1759199102811,0.15110662,0.01239281,-0.00032106,0.02890393,-0.06667906,-0.01242405,0.96715488,0.04268707,0.25047487,0.00718275
1759199102823,0.14445003,-0.00522681,-0.03611251,0.03798223,-0.07757532,-0.03415489,0.96725928,0.04289977,0.25004044,0.00699148
1759199102834,0.15956521,0.05911521,0.00046683,0.02758517,-0.07695414,-0.00621784,0.96736583,0.04305700,0.24960181,0.00695604
1759199102845,-0.01452355,-0.09525028,-0.02452866,0.03542537,-0.09319330,-0.00331379,0.96748713,0.04324830,0.24909856,0.00693814
1759199102856,-0.10580614,-0.05428400,0.07315665,0.01470099,-0.07025299,0.00504154,0.96758532,0.04333136,0.24870163,0.00696663
1759199102867,0.13165614,-0.13048940,-0.04562720,-0.03429082,-0.10702102,0.01366636,0.96774142,0.04314619,0.24812372,0.00704043
1759199102878,0.21959529,-0.39108941,0.03217190,-0.03206071,-0.07938898,-0.02507378,0.96786539,0.04296505,0.24767517,0.00689876
1759199102889,0.16292258,-0.23869872,0.09086366,-0.07358595,-0.05844721,-0.05055528,0.96796927,0.04255296,0.24734787,0.00661565
1759199102901,-0.09001046,0.04676320,0.13953371,-0.08077936,-0.04974914,-0.04352880,0.96806101,0.04210464,0.24707176,0.00637407
1759199102912,-0.06530823,0.18600751,-0.04571576,-0.04474447,-0.03224039,-0.00413692,0.96811758,0.04185631,0.24689282,0.00635111
1759199102923,-0.24283050,0.09622083,-0.21058352,-0.01322560,-0.03295896,0.01240137,0.96816737,0.04178224,0.24670825,0.00642055
1759199102934,-0.05321843,0.09907181,-0.08030281,0.00543299,-0.01124292,0.03101662,0.96818093,0.04181267,0.24664529,0.00659425
1759199102945,0.08198947,0.01314371,0.20739682,-0.00533681,-0.04956805,0.00591634,0.96825203,0.04178305,0.24637019,0.00662708
1759199102956,-0.00190494,0.01191978,0.18765362,-0.03645157,-0.04622879,-0.03165411,0.96832785,0.04157892,0.24611131,0.00644982
1759199102967,-0.10498989,-0.11289210,0.00924120,-0.04402139,-0.02696987,-0.03399317,0.96837757,0.04133460,0.24596163,0.00626116
1759199102979,-0.25517194,0.06626834,-0.02412637,-0.04196317,0.00711651,-0.03081145,0.96837855,0.04109961,0.24600148,0.00608861
1759199102990,-0.24803591,0.15347816,-0.02375823,-0.02446553,0.01754779,-0.01142895,0.96835979,0.04096260,0.24609975,0.00602461
1759199103001,-0.21762538,0.11142609,0.04632855,0.01517162,0.02279540,0.02053953,0.96832302,0.04104756,0.24622740,0.00613963
1759199103012,-0.18151287,0.10311071,-0.02898504,-0.00181777,0.01333997,0.00768453,0.96830418,0.04103738,0.24630211,0.00618267
1759199103023,-0.10168522,-0.01425494,-0.14706344,0.01677475,0.01203429,0.01201393,0.96828262,0.04113132,0.24636950,0.00624994
1759199103034,-0.02201748,-0.19858832,-0.09365565,0.01565571,0.00747960,-0.00787924,0.96826876,0.04121743,0.24641064,0.00620661
1759199103046,-0.02531709,0.06334789,0.29635338,-0.01171454,0.01354382,-0.03997888,0.96825352,0.04115124,0.24648716,0.00598073
1759199103057,-0.04811960,0.07301422,0.24897184,-0.05290517,0.01944045,-0.05708260,0.96824039,0.04085762,0.24659505,0.00566392
1759199103068,-0.12181764,0.09012716,0.16917571,-0.01751763,0.02022591,-0.01899992,0.96821629,0.04075952,0.24670832,0.00555752
1759199103079,-0.18669429,-0.11367606,-0.19658123,0.02514268,0.04003351,0.00425918,0.96815363,0.04089906,0.24693050,0.00558116
1759199103090,0.02273694,0.08465882,-0.09965552,-0.00215418,0.04546297,0.00053870,0.96808972,0.04088710,0.24718282,0.00558415
1759199103101,-0.20244544,-0.02833562,-0.09599494,-0.00392424,0.01193817,-0.00105779,0.96807390,0.04086552,0.24724848,0.00557833
1759199103113,0.01827049,-0.14415838,0.00118412,-0.00955299,-0.00514430,-0.01384549,0.96808414,0.04081107,0.24721916,0.00549941
1759199103124,0.04791167,-0.19245949,0.03425187,-0.00959843,0.00619587,-0.01232712,0.96807788,0.04075684,0.24725417,0.00542976
1759199103135,-0.05358213,-0.00968509,0.15958763,-0.03652122,-0.00138007,-0.00482617,0.96808830,0.04055780,0.24724665,0.00540346
1759199103146,-0.04500114,0.05744042,0.13241180,-0.04364366,-0.00112407,0.02671657,0.96809927,0.04031339,0.24724035,0.00555307
1759199103157,-0.14302454,0.00380132,-0.00902813,0.00058127,0.00055272,0.01493524,0.96809786,0.04031665,0.24724345,0.00563671
1759199103168,-0.17286754,0.11356638,-0.03791703,-0.02806036,0.01899155,0.00679830,0.96807738,0.04016232,0.24734790,0.00567410
1759199103179,-0.18276596,0.01430505,-0.02179493,-0.02311798,0.02847265,0.01735902,0.96804109,0.04003170,0.24750877,0.00577218
1759199103191,-0.07896923,-0.02913291,0.02457567,-0.02747204,0.04102943,0.03678789,0.96798790,0.03987923,0.24773648,0.00597635
1759199103202,-0.07643482,-0.11320093,0.07353223,-0.02056349,0.04095598,0.02166207,0.96793364,0.03976510,0.24796379,0.00609658
1759199103213,-0.07768299,-0.06022176,0.03541046,-0.01946970,0.04044215,0.02651362,0.96787912,0.03965607,0.24819027,0.00624505
1759199103224,0.02379388,0.14862317,0.00250067,-0.02265917,0.04892763,0.03450622,0.96781215,0.03952805,0.24846671,0.00644001
1759199103235,-0.03820922,0.02648926,-0.04011206,0.00957332,0.02380395,0.05075234,0.96777448,0.03958070,0.24859763,0.00671915
1759199103247,-0.07856955,-0.16255600,0.02691055,0.01312346,0.02722237,0.01767187,0.96773122,0.03965485,0.24875143,0.00681900
1759199103258,0.00203522,0.00989856,-0.02045100,0.01046072,0.00911086,0.00689960,0.96771543,0.03971343,0.24880246,0.00685763
1759199103269,0.00644444,0.00944205,-0.02390964,0.00161338,0.01651616,0.00265734,0.96769139,0.03972238,0.24889412,0.00687238
1759199103280,0.05756800,0.21793598,0.00677271,0.00694128,0.02760693,0.02466111,0.96764940,0.03976091,0.24904734,0.00700925
1759199103291,0.13206775,0.10691199,-0.00048376,0.01344527,0.03350038,0.01773953,0.96759774,0.03983553,0.24923327,0.00710771
1759199103302,0.12839298,0.01634402,-0.02917238,0.01615153,0.00472393,0.03328970,0.96758571,0.03992678,0.24925996,0.00729579
1759199103313,0.13360368,-0.03883696,0.00422852,0.00132101,0.00200070,0.03262782,0.96758120,0.03993405,0.24927096,0.00747525
1759199103325,0.05333938,-0.11340883,0.02801311,-0.01363630,-0.01287041,-0.00101138,0.96760296,0.03985769,0.24919889,0.00746958
1759199103336,0.06982610,-0.14117399,0.05891412,-0.01378287,0.00570964,-0.00503750,0.96759820,0.03978188,0.24923029,0.00744188
1759199103347,0.13634247,0.08727115,0.01867991,-0.02791451,0.01205500,-0.02408181,0.96758834,0.03962695,0.24929719,0.00730822
1759199103358,-0.02694312,0.09991512,0.11178996,0.00901945,0.03190052,-0.02357007,0.96754122,0.03967746,0.24947584,0.00717623
1759199103369,0.00084189,0.27442565,0.01804859,0.06594719,0.04827626,-0.01339831,0.96745605,0.04005007,0.24974860,0.00710053
1759199103380,-0.16991221,0.17224617,0.02030544,0.08690047,0.03896800,0.02279115,0.96737778,0.04054105,0.24996877,0.00722930
1759199103391,0.01302593,0.27355787,0.03223185,0.09482145,0.05624251,0.02177093,0.96727584,0.04105783,0.25027529,0.00734795
1759199103402,0.04225065,0.18124078,0.02529435,0.08956767,0.02901399,0.00979812,0.96721308,0.04155045,0.25043487,0.00740184
1759199103414,0.11735701,-0.06359430,-0.01911889,0.10675072,0.02411074,-0.00748759,0.96715257,0.04214826,0.25056989,0.00735991
1759199103425,0.12781927,-0.03017295,0.03041053,0.09139798,0.02797683,-0.01374982,0.96709010,0.04266008,0.25072656,0.00728291
1759199103436,-0.05485114,-0.06257194,0.19535886,0.06568394,0.02677387,-0.02803046,0.96703658,0.04302463,0.25087515,0.00712734
1759199103447,-0.22741592,-0.43107382,0.38373230,0.07371226,0.06705078,-0.03698954,0.96692111,0.04344110,0.25125399,0.00691835
1759199103458,-0.23144929,0.15728987,0.04159734,0.13813506,0.09746476,-0.07351098,0.96674847,0.04420775,0.25179492,0.00651036
1759199103469,-0.18141175,0.35943715,0.02757459,0.19266357,0.12558129,-0.04957057,0.96651899,0.04527704,0.25249189,0.00623525
1759199103481,-0.00455901,0.78903861,-0.08554461,0.20289472,0.16232208,-0.00642379,0.96622739,0.04641325,0.25340090,0.00619927
1759199103492,-0.43667625,1.49486777,0.64551108,0.19795681,0.16596260,0.05156436,0.96592737,0.04752181,0.25433029,0.00648803
1759199103503,0.20717176,-0.76406464,-0.13708498,0.19446126,0.14994493,0.05065668,0.96564974,0.04861079,0.25516998,0.00677171
1759199103514,0.25213642,-0.02467200,-0.07015668,0.17772753,0.15786468,0.06861511,0.96536487,0.04959718,0.25604613,0.00715253
1759199103525,-0.16910722,-0.12878886,0.10112872,0.17437210,0.14738271,0.07073361,0.96509190,0.05057366,0.25687147,0.00754863
1759199103536,0.05791354,-0.25778826,-0.14848120,0.19938864,0.15405248,0.03900644,0.96480357,0.05168027,0.25772646,0.00776512
1759199103548,-0.40104091,0.85360276,0.00072565,0.18564258,0.15828109,0.02772559,0.96451147,0.05271058,0.25860492,0.00791900
1759199103559,0.02740544,-0.18351627,0.28827293,0.16388062,0.19363709,-0.00909598,0.96416989,0.05362832,0.25968929,0.00786806
1759199103570,-0.02478835,0.26873109,0.10170878,0.16471581,0.21758829,0.00461154,0.96379572,0.05453425,0.26088603,0.00789342
1759199103581,0.28467510,-0.79223055,0.16718573,0.16753324,0.23439653,-0.01381134,0.96338285,0.05548081,0.26221037,0.00781539
1759199103592,-0.21060303,0.02599529,0.10277011,0.18909865,0.25356025,-0.00225045,0.96293376,0.05653977,0.26363030,0.00780279
1759199103603,0.21277007,-0.46818917,-0.38231231,0.26776984,0.29871593,-0.00628534,0.96239017,0.05802589,0.26528818,0.00776790
1759199103614,-0.16192838,0.30744218,0.47345655,0.22741571,0.31922561,-0.02861322,0.96181921,0.05929942,0.26707584,0.00760767
1759199103626,-0.05169302,-0.23258110,0.13770775,0.23085752,0.34776518,-0.05347009,0.96119244,0.06060376,0.26904071,0.00730556
1759199103637,0.08880756,0.57069497,0.54915351,0.20810958,0.40268883,-0.02002073,0.96049769,0.06174837,0.27125550,0.00719545
1759199103648,-0.46008875,-0.45516274,-0.04458033,0.18707984,0.36708808,0.00057504,0.95985845,0.06277730,0.27327449,0.00719861
1759199103659,0.88843210,-0.93471875,-0.11891097,0.30095892,0.48296221,0.02980696,0.95896328,0.06447772,0.27600322,0.00736702
1759199103670,-0.87875638,1.33689008,0.80610606,0.11512123,0.38345005,0.02292763,0.95830402,0.06511665,0.27813137,0.00749427
1759199103681,0.51822048,-1.19796268,-0.67861635,0.14153157,0.46066339,0.00175619,0.95749723,0.06590922,0.28071109,0.00750410
1759199103692,0.06984919,-0.22380252,-0.01330461,0.10444736,0.46103437,-0.01083621,0.95669654,0.06649413,0.28329288,0.00744342
1759199103704,0.25214981,-0.29463660,0.12553393,0.06917870,0.48089889,0.00675797,0.95588252,0.06687461,0.28593782,0.00748059
1759199103715,-0.27366730,-0.12883454,-0.03242293,0.03543081,0.47354692,-0.03147209,0.95506543,0.06707479,0.28861336,0.00730277
1759199103726,0.22398931,0.32741795,0.22689914,-0.01452219,0.52472019,-0.00985816,0.95419457,0.06699492,0.29149932,0.00724855
1759199103737,0.08117085,-0.26131005,-0.40105690,-0.00769292,0.51928942,0.02921124,0.95329511,0.06695146,0.29443331,0.00741360
1759199103748,-0.43116046,-0.24189730,-0.11484128,0.01183929,0.55002495,0.02441113,0.95234987,0.06701657,0.29745845,0.00754786
1759199103759,0.03274332,-0.08427714,-0.15497912,-0.00012654,0.54864777,0.01584501,0.95137545,0.06701586,0.30055831,0.00763738
1759199103771,0.07569847,0.06490581,0.20888787,-0.04727742,0.56720897,0.01676411,0.95039291,0.06675347,0.30370632,0.00773042
1759199103782,0.07856911,-0.16003201,-0.02199455,-0.06089118,0.58618514,-0.00116947,0.94936163,0.06641248,0.30698895,0.00772387
1759199103793,0.38997479,-0.20304294,-0.53268537,-0.04221160,0.61319868,-0.00003422,0.94827078,0.06617820,0.31039221,0.00772368
1759199103804,-0.08951501,0.11071121,0.20434217,-0.05740185,0.58879084,0.01517662,0.94720687,0.06585675,0.31368943,0.00780867
1759199103815,0.04699935,0.02126538,-0.20660187,-0.07794406,0.58273257,0.03993130,0.94616733,0.06542806,0.31689446,0.00802829
1759199103826,0.39108855,-0.21453864,-0.23751966,-0.10384899,0.56271087,0.05886126,0.94515250,0.06485170,0.32001751,0.00835497
1759199103838,-0.19918553,-0.65372509,-0.37022057,-0.11371179,0.52968965,0.03016141,0.94417629,0.06420923,0.32301025,0.00852539
1759199103849,-0.01250082,-0.45416940,-0.25744521,-0.15035766,0.56889315,0.02634983,0.94314534,0.06337474,0.32616761,0.00867163
1759199103860,-0.22943172,-0.36380056,-0.18353018,-0.16547434,0.56020013,-0.01044210,0.94211700,0.06244809,0.32930473,0.00861315
1759199103871,0.15205267,-0.16013046,-0.01876900,-0.15582323,0.60462644,-0.05741676,0.94098706,0.06157548,0.33269064,0.00829162
1759199103882,0.03163475,0.22000926,0.01533253,-0.17521233,0.60474506,-0.03233210,0.93985844,0.06060305,0.33604698,0.00811218
1759199103893,0.06240564,0.05031153,-0.37939244,-0.14094198,0.60820403,-0.01990822,0.93869580,0.05982082,0.33942251,0.00800168
1759199103904,-0.01166429,0.45086013,-0.23963546,-0.13751109,0.56068834,0.01722786,0.93758287,0.05903701,0.34261843,0.00809988
1759199103914,-0.17890772,-0.38426190,-0.20010090,-0.14672447,0.60487292,0.04116183,0.93652703,0.05831072,0.34561255,0.00830363
1759199103926,0.23076680,0.04547901,0.46965339,-0.14281992,0.51012479,0.02206642,0.93551625,0.05751093,0.34846925,0.00842721
1759199103937,-0.03566037,0.07566814,-0.79466445,-0.15916390,0.49674516,0.00245932,0.93453851,0.05662757,0.35122619,0.00844086
1759199103948,0.28147722,-0.51333185,-0.49288051,-0.18663802,0.48921966,-0.00596946,0.93356741,0.05558240,0.35396582,0.00840743
1759199103959,-0.03003660,0.08401956,0.07390585,-0.20057032,0.47444540,0.01528917,0.93262969,0.05446923,0.35659899,0.00849228
1759199103970,-0.03580429,0.23936737,-0.02608589,-0.20374661,0.42995257,0.01795658,0.93177059,0.05332825,0.35900672,0.00859284
1759199103981,-0.23236254,0.54314246,0.35903005,-0.19493256,0.41022229,0.07639695,0.93094752,0.05224637,0.36128346,0.00901684
1759199103992,-0.07571812,0.08654845,-0.24784328,-0.11362448,0.37479187,0.04904679,0.93016309,0.05161008,0.36338229,0.00929150
1759199104004,-0.18725148,0.14391135,-0.33431162,-0.11347349,0.35092929,0.01942416,0.92943353,0.05098030,0.36532995,0.00939931
1759199104015,-0.22833692,0.08078870,-0.18745881,-0.08721728,0.37492477,0.01236261,0.92863868,0.05049624,0.36741078,0.00946792
1759199104026,-0.17495046,0.40404828,0.06629937,-0.07897651,0.34800944,-0.02370485,0.92789057,0.05005398,0.36935963,0.00933517
1759199104037,-0.14512640,0.56423042,-0.05763316,-0.05068762,0.31582404,0.00302578,0.92719352,0.04976759,0.37114404,0.00935227
1759199104048,-0.40960312,0.50258868,-0.13497141,-0.00743015,0.31273442,0.03305068,0.92649721,0.04972635,0.37287972,0.00953570
1759199104060,-0.19601609,1.22268622,-0.33421193,0.05945429,0.27440482,0.04713357,0.92585658,0.05005930,0.37441638,0.00979965
1759199104071,0.34876849,-1.41194725,0.01419964,0.09397901,0.24457503,0.01610876,0.92526671,0.05059028,0.37579823,0.00989066
1759199104082,0.07114094,0.19294050,0.28741180,0.05574914,0.22918082,-0.02051202,0.92474295,0.05089411,0.37704727,0.00977887
1759199104093,0.58511115,0.18402364,-0.05113925,0.01325799,0.23586785,-0.01838146,0.92420514,0.05096769,0.37835633,0.00967686
1759199104104,-0.07342509,0.01449157,-0.05032310,0.02618411,0.17242574,-0.02983852,0.92379929,0.05111563,0.37933054,0.00950827
1759199104115,0.31022489,-0.10750676,-0.59747630,0.05026115,0.15053181,-0.00137636,0.92344363,0.05139207,0.38015846,0.00950070
1759199104126,0.20464125,-0.19823137,-0.11812214,0.04440100,0.08374151,0.02140893,0.92323718,0.05163849,0.38062323,0.00961952
1759199104138,0.29894020,-0.45776085,0.08591492,0.03772958,0.04827056,0.01724324,0.92311172,0.05185167,0.38089596,0.00971694
1759199104149,0.37633038,-0.26931350,0.35493985,-0.02091798,0.00135334,0.03969549,0.92311279,0.05173557,0.38090347,0.00993725
1759199104160,0.16275885,-0.40264633,-0.24362244,-0.04533661,-0.04269779,0.00917943,0.92322506,0.05148169,0.38066436,0.00998866
1759199104171,0.15918013,-0.11736565,-0.18816517,-0.09115183,-0.06747921,-0.01029667,0.92340972,0.05097124,0.38028648,0.00993099
1759199104182,0.40177520,-0.11266318,-0.26965129,-0.11351706,-0.07333013,0.00757971,0.92361132,0.05034122,0.37987950,0.00997306
1759199104193,0.19196649,-0.23521289,0.07337654,-0.11502745,-0.08810918,0.00315692,0.92384879,0.04969706,0.37938609,0.00999074
1759199104204,0.19283205,-0.04978241,0.00215534,-0.12570931,-0.12512981,0.01225213,0.92417019,0.04899938,0.37869161,0.01005874
1759199104216,-0.11948987,-0.25736280,-0.10642823,-0.12246503,-0.15007823,0.02529090,0.92454530,0.04831970,0.37785868,0.01019910
1759199104227,0.19625581,0.31200548,-0.12497471,-0.12892768,-0.14628700,0.00294896,0.92491693,0.04759770,0.37703947,0.01021562
1759199104238,-0.16319283,-0.02746012,0.15101448,-0.10053979,-0.18249550,0.01317707,0.92535690,0.04703970,0.37602662,0.01028875
1759199104249,0.23752845,0.12166681,0.29533833,-0.09149978,-0.19399553,0.02717892,0.92581766,0.04653188,0.37494995,0.01043959
1759199104260,0.15393192,-0.02803043,0.14184733,-0.07076232,-0.20581943,0.04107560,0.92630081,0.04613561,0.37379736,0.01066962
1759199104271,0.13679917,0.26445423,0.03821024,-0.07091810,-0.22196538,0.04415131,0.92682286,0.04573492,0.37254325,0.01091907
1759199104283,-0.05290877,0.07336476,-0.19600482,-0.06622315,-0.24809975,0.05044200,0.92738477,0.04537070,0.37117871,0.01119650
1759199104294,-0.03141270,-0.05187069,0.05583184,-0.06443077,-0.26592502,0.01930574,0.92799567,0.04500989,0.36968953,0.01130462
1759199104305,0.00869049,-0.19502627,0.20114892,-0.08177518,-0.26554831,0.00379267,0.92860307,0.04455603,0.36821573,0.01132567
1759199104316,-0.01077508,-0.03905078,0.25617438,-0.08424840,-0.27641206,-0.02151263,0.92922800,0.04409267,0.36669547,0.01120735
1759199104327,-0.13666815,0.17550735,-0.01578605,-0.07879067,-0.25216856,-0.03478693,0.92981233,0.04364750,0.36527071,0.01101080
1759199104338,-0.01552064,0.21920856,0.13992335,-0.06204895,-0.25752016,-0.01639580,0.93039488,0.04330003,0.36382860,0.01091898
1759199104349,0.12096276,-0.02517952,0.01867461,-0.02898872,-0.25520943,-0.00797479,0.93095551,0.04313914,0.36241219,0.01087472
1759199104361,-0.16132072,0.15965962,0.27592021,-0.02008521,-0.27781743,0.00685531,0.93156984,0.04302566,0.36084252,0.01091346
1759199104372,0.17341893,-0.11077355,0.08289928,-0.01563221,-0.29019590,0.03125763,0.93219405,0.04293890,0.35923193,0.01108694
1759199104383,0.04301738,-0.06602219,-0.23816447,-0.03347835,-0.30693048,0.03285530,0.93286100,0.04275142,0.35751312,0.01127093
1759199104394,0.42294422,-0.32644181,0.62925689,-0.07844362,-0.34186724,0.04713582,0.93360258,0.04231606,0.35561576,0.01153253
1759199104405,-0.22387529,-0.52131547,-0.16462954,-0.07331505,-0.33194467,0.01398182,0.93432607,0.04190549,0.35375687,0.01161083
1759199104416,0.05899337,0.00910946,0.17554610,-0.10814519,-0.34426458,-0.01149644,0.93507475,0.04130529,0.35184620,0.01154702
1759199104428,-0.02995677,0.20218253,0.24487885,-0.14203358,-0.30696007,-0.05579375,0.93575833,0.04050990,0.35012722,0.01123458
1759199104439,-0.19263448,0.01785416,0.13357481,-0.10460197,-0.26542074,-0.03215408,0.93636635,0.03989798,0.34857451,0.01104648
1759199104451,0.02090111,-0.01915832,-0.09786311,-0.07589955,-0.28047226,-0.01589886,0.93696323,0.03947673,0.34701789,0.01095824
1759199104461,-0.01596423,0.15262775,-0.05684235,-0.05313110,-0.30201657,0.02011175,0.93759338,0.03918186,0.34534170,0.01106986
1759199104473,0.04080433,-0.29607216,-0.02822829,-0.03707247,-0.30260320,0.03300257,0.93822785,0.03897240,0.34363199,0.01125632
1759199104484,-0.04299084,0.83765993,0.15693454,-0.04271748,-0.34754438,0.06259408,0.93893765,0.03873532,0.34170312,0.01160372
1759199104495,0.22549559,0.06311276,0.09033004,-0.06295282,-0.39871274,0.06529821,0.93974251,0.03838908,0.33951020,0.01196286
1759199104506,0.06918703,-0.15887683,-0.04486930,-0.10106718,-0.42905139,0.04106496,0.94063493,0.03781805,0.33708606,0.01219488
1759199104517,-0.11780740,-0.89590862,-0.13381873,-0.13217766,-0.43559942,0.00086127,0.94152691,0.03708446,0.33466848,0.01219966
1759199104528,-0.13139506,0.28705156,-0.09988637,-0.13868149,-0.40318589,-0.04874548,0.94233792,0.03632865,0.33247112,0.01193399
1759199104540,-0.31721715,0.75720268,0.22780082,-0.15780815,-0.39136808,-0.02829809,0.94315110,0.03543703,0.33025989,0.01177411
1759199104551,-0.02108385,-0.47578482,0.11080375,-0.04806945,-0.39387368,-0.00622820,0.94393107,0.03516784,0.32805420,0.01173923
1759199104562,-0.31288344,0.35206190,0.10728561,-0.05339685,-0.36863846,-0.00171792,0.94465074,0.03487149,0.32600825,0.01172970
1759199104573,0.03639504,0.33816949,-0.00511765,-0.07044194,-0.43803633,0.04896894,0.94550475,0.03447701,0.32355525,0.01200392
1759199104584,0.37339176,0.24638897,-0.49698114,-0.05089806,-0.42645261,0.06279419,0.94633172,0.03418944,0.32114579,0.01235871
1759199104596,-0.07947419,-0.31015714,-0.16946397,-0.09588217,-0.47564785,0.02989101,0.94727293,0.03363812,0.31841082,0.01253058
1759199104607,0.17754840,-0.51052052,-0.21366596,-0.12360693,-0.50862978,0.00671544,0.94821470,0.03297064,0.31566422,0.01256685
1759199104618,-0.03250478,-0.46276630,-0.02278150,-0.09632396,-0.45208438,0.01514246,0.94907121,0.03243123,0.31313255,0.01265164
1759199104629,-0.05350817,0.07449172,0.07006121,-0.11908465,-0.46597705,0.01408027,0.94997309,0.03174649,0.31045318,0.01273261
1759199104640,-0.07583904,0.04493372,-0.07577479,-0.11617421,-0.47156479,0.03429750,0.95083534,0.03110753,0.30785957,0.01292124
1759199104651,-0.14959653,-0.16923047,-0.13689033,-0.12645950,-0.46549783,0.02848735,0.95167318,0.03041833,0.30532261,0.01307650
1759199104662,-0.04816132,0.07224197,-0.09807851,-0.12894189,-0.49552528,0.07791483,0.95255164,0.02971559,0.30262199,0.01350113
1759199104673,-0.07904005,-0.01127083,-0.02209784,-0.12273909,-0.46852335,-0.00152143,0.95339495,0.02903439,0.30002169,0.01349269
1759199104684,-0.07489275,-0.23730686,-0.14113723,-0.11809069,-0.43589707,0.01907518,0.95418502,0.02836718,0.29755887,0.01360046
1759199104696,-0.24770373,0.41108928,0.17960066,-0.08211305,-0.40441662,-0.01845793,0.95492249,0.02789503,0.29523348,0.01349433
1759199104707,0.18298288,0.08473099,-0.00360557,-0.05819976,-0.38252978,0.00113828,0.95560937,0.02756038,0.29303393,0.01350088
1759199104718,-0.44219972,0.29720859,-0.17655116,-0.08649789,-0.36941321,0.05237193,0.95620528,0.02711059,0.29111298,0.01377321
1759199104730,-0.27621957,0.13225883,0.11935951,0.00692483,-0.35847920,0.02102605,0.95683830,0.02715110,0.28901588,0.01389621
1759199104740,-0.23954753,0.20918152,-0.14988427,-0.02500230,-0.30383241,0.01946786,0.95733463,0.02701609,0.28737518,0.01400134
1759199104752,-0.32838696,0.04348129,0.02573899,-0.02193782,-0.33334821,0.00346761,0.95788120,0.02689653,0.28555844,0.01402024
1759199104763,0.01439444,0.02429442,0.03540194,-0.01587596,-0.28055077,0.01050703,0.95834979,0.02680762,0.28398735,0.01407908
1759199104774,0.01491896,-0.06430183,0.08796310,-0.02799077,-0.25935312,0.01464253,0.95877829,0.02665227,0.28254794,0.01416034
1759199104785,0.05268762,0.02571454,0.05204550,-0.03086926,-0.24971365,0.02847807,0.95919170,0.02647941,0.28114954,0.01431982
1759199104796,-0.12814581,-0.05739090,-0.05686826,-0.05617977,-0.23200447,0.03140351,0.95957412,0.02616761,0.27986192,0.01449411
1759199104807,-0.05652324,-0.10785468,-0.06995968,-0.05509774,-0.21166369,0.00395360,0.95993962,0.02584804,0.27863427,0.01451704
1759199104819,0.00551129,-0.08809530,-0.13055195,-0.06778916,-0.21886926,0.00336041,0.96028815,0.02548537,0.27746332,0.01453502
1759199104830,0.07859311,0.01564046,0.09483752,-0.07284330,-0.21976764,-0.01217716,0.96065466,0.02507745,0.27623262,0.01446683
1759199104841,0.08204245,0.03160833,0.17392493,-0.05046357,-0.20907887,0.00173980,0.96100997,0.02478476,0.27501996,0.01447692
1759199104852,-0.26156284,0.58154241,0.40289439,-0.05571445,-0.23339317,-0.00575728,0.96137113,0.02448947,0.27378298,0.01444640
1759199104863,0.00672436,-0.00829352,0.03737834,-0.05406830,-0.19466570,-0.00704368,0.96170333,0.02417317,0.27264419,0.01440520
1759199104874,-0.01777572,-0.07293643,-0.09446349,-0.05138674,-0.17364543,-0.02541550,0.96198272,0.02389054,0.27168914,0.01426541
1759199104885,0.26034475,-0.50225274,-0.35794666,-0.04321405,-0.17135740,-0.03047867,0.96225425,0.02365503,0.27075524,0.01409930
1759199104896,-0.01217039,0.11567522,0.11898333,-0.03930478,-0.15413144,-0.05220347,0.96250183,0.02343885,0.26990752,0.01381219
1759199104908,0.02479983,0.08152923,0.00063375,0.01266010,-0.14366812,-0.03901670,0.96273250,0.02351101,0.26908861,0.01358979
1759199104920,0.03635758,0.20616793,0.09723090,0.01473052,-0.14498578,-0.01139112,0.96297603,0.02360013,0.26821144,0.01352087
1759199104930,0.02096423,0.04430405,-0.02052924,0.03404029,-0.13726630,-0.00542524,0.96317807,0.02378395,0.26747020,0.01349158
1759199104941,-0.01967554,0.07628354,0.14387230,0.01924944,-0.14368561,0.00764263,0.96338221,0.02388405,0.26672304,0.01353132
1759199104952,-0.05441715,0.03888959,0.32721656,0.02222826,-0.11190023,-0.01824413,0.96355535,0.02400964,0.26609080,0.01342824
1759199104963,-0.08472226,0.11614200,0.26632134,0.01955421,-0.10651889,-0.03735464,0.96372003,0.02411914,0.26549430,0.01321905
1759199104975,0.07016383,0.03275600,0.05342567,0.03749193,-0.10444102,-0.01683315,0.96388118,0.02433472,0.26489376,0.01312226
1759199104986,0.07002530,0.02487041,-0.13380664,0.03218359,-0.09099168,0.00972262,0.96400616,0.02450208,0.26442060,0.01317282
1759199104996,0.12332348,0.07774424,-0.02682852,0.08269240,-0.06903553,-0.00459511,0.96410059,0.02496515,0.26403401,0.01314709
1759199105008,0.07662476,0.22995836,0.06846083,0.07887047,-0.07843501,-0.00699972,0.96421560,0.02543049,0.26357124,0.01310579
1759199105019,0.03996012,0.30185002,0.30291716,0.06635473,-0.08953158,-0.00811817,0.96433985,0.02579212,0.26308329,0.01306155
1759199105030,0.06882603,0.18891387,0.30912095,0.09688231,-0.08927069,-0.00635471,0.96445539,0.02630560,0.26261016,0.01302787
1759199105041,0.07335302,0.09167427,0.04095175,0.13240306,-0.07370180,-0.01370644,0.96455068,0.02706692,0.26218637,0.01294905
1759199105052,0.09363160,-0.14157899,-0.16015345,0.18963174,-0.08668432,-0.01008071,0.96465197,0.02811937,0.26170527,0.01289311
1759199105064,-0.01272533,0.13658496,0.03885726,0.17876604,-0.05558342,-0.02416088,0.96470896,0.02912940,0.26139123,0.01275660
1759199105076,0.27741292,0.23696397,0.16049453,0.15849634,-0.07100473,0.04741414,0.96478994,0.03006453,0.26097230,0.01303634
1759199105086,-0.08531799,0.89581664,0.65264798,0.20942433,-0.12845470,0.01421560,0.96493068,0.03112212,0.26032360,0.01310813
1759199105097,0.59921199,0.20120539,0.25638809,0.21211828,-0.09874269,-0.00530283,0.96504007,0.03229938,0.25977558,0.01307870
1759199105107,-0.27192680,-0.05519981,-0.25658234,0.26341908,-0.17074295,0.01985366,0.96522679,0.03364281,0.25890479,0.01317995
1759199105118,-0.06626924,-0.19294480,-0.06053189,0.28403906,-0.13873863,-0.04275384,0.96537862,0.03520503,0.25814173,0.01294481
1759199105129,0.74901486,0.65603635,0.19332859,0.26264888,-0.15840586,-0.02078672,0.96556545,0.03670213,0.25723882,0.01282632
1759199105141,-0.80856973,-0.60593806,0.06092708,0.30203169,-0.21170510,-0.03073979,0.96582371,0.03843881,0.25602151,0.01264957
1759199105152,0.96757868,1.18025015,0.45810063,0.31772562,-0.16826826,-0.05113881,0.96599630,0.04013864,0.25512128,0.01237598
1759199105163,-0.43602366,0.13089197,0.07590251,0.29045198,-0.24262453,-0.02019184,0.96629177,0.04179422,0.25373832,0.01226088
1759199105174,0.07410067,-0.37210388,-0.19584700,0.40828896,-0.22660512,-0.04997715,0.96652604,0.04408064,0.25246933,0.01198101
1759199105185,0.55578081,0.83156987,0.30839350,0.37503000,-0.25072298,-0.00170828,0.96679143,0.04616205,0.25107782,0.01197153
1759199105196,-0.25881410,-0.61849313,0.20052046,0.37370088,-0.24539992,0.03143471,0.96704072,0.04823609,0.24971585,0.01214599
1759199105208,0.48010762,-0.09162231,0.08719088,0.37139869,-0.16548284,-0.00132353,0.96717600,0.05035307,0.24877259,0.01213845
1759199105219,-0.32476269,0.64797889,0.78276550,0.29689242,-0.24272385,0.04862829,0.96742409,0.05195628,0.24746189,0.01240104
1759199105230,0.35988060,-0.29980643,-0.71062342,0.36459281,-0.26396943,0.00513002,0.96768654,0.05397977,0.24599686,0.01242951
1759199105242,0.29853337,-0.08903162,-0.13083783,0.37082018,-0.21728565,0.00005617,0.96788537,0.05614907,0.24472573,0.01242984
1759199105252,0.03413333,0.79227061,0.67764073,0.36194484,-0.31623955,0.10016049,0.96819033,0.05808548,0.24303385,0.01296570
1759199105263,-0.30491538,-1.43950302,-0.51070077,0.47136007,-0.32330776,0.07252034,0.96847809,0.06074866,0.24120716,0.01337544
1759199105274,1.28581774,1.40343807,0.83716779,0.27581764,-0.25874661,0.16078540,0.96872248,0.06226566,0.23978406,0.01425976
1759199105286,-0.71827606,-0.81339969,-0.12681711,0.30518847,-0.30846981,0.08590753,0.96902992,0.06397471,0.23805663,0.01474084
1759199105297,0.20803910,0.05595458,-0.38536580,0.26872654,-0.32927951,0.12473932,0.96937271,0.06549302,0.23619620,0.01544562
1759199105308,0.05540604,-0.67877962,-0.34467590,0.38445261,-0.33030656,0.04286701,0.96966728,0.06762673,0.23436300,0.01568353
1759199105319,0.01078752,0.66378137,0.41774672,0.29609650,-0.27168077,0.05180411,0.96991198,0.06928487,0.23284158,0.01597363
1759199105330,-0.03507294,-0.29460188,-0.02917706,0.31029643,-0.28881241,0.03714394,0.97016746,0.07100702,0.23123867,0.01617978
1759199105341,0.22785316,-0.04426447,0.24671998,0.28606466,-0.25496308,0.08781347,0.97037793,0.07259468,0.22982363,0.01666715
1759199105352,-0.20103742,-0.12601921,0.00012414,0.28165112,-0.19879067,0.00131693,0.97052153,0.07417192,0.22871040,0.01667452
1759199105364,-0.34864315,-0.16866758,-0.10461843,0.28368741,-0.19590384,0.05300058,0.97065043,0.07574639,0.22762314,0.01696868
1759199105375,-0.24443069,0.13074586,-0.49553944,0.36915755,-0.12185088,-0.02317518,0.97064891,0.07783213,0.22693468,0.01683774
1759199105386,-0.15544167,0.30108071,0.00326754,0.37444654,-0.10478781,0.00583818,0.97061463,0.07994775,0.22634263,0.01687072
1759199105397,-0.30308873,-0.08144253,0.25289144,0.38619777,-0.07889211,0.03984686,0.97053459,0.08207184,0.22590872,0.01708988
1759199105409,-0.40019952,-0.13967624,0.30476104,0.35897770,0.00608290,-0.05136211,0.97035643,0.08411801,0.22594339,0.01679711
1759199105420,-0.18523241,-0.04268770,0.07145520,0.28887310,0.03238978,-0.00010584,0.97016763,0.08577903,0.22612963,0.01679651
1759199105431,-0.16547089,0.43272801,-0.05976528,0.36207689,0.10311681,-0.08399001,0.96986499,0.08777045,0.22669678,0.01633456
1759199105443,-0.46831401,0.03020034,-0.22951978,0.39403720,0.10643649,-0.07514810,0.96951515,0.09007557,0.22731943,0.01589494
1759199105454,-0.49494692,0.31456182,-0.07426378,0.42653401,0.12600195,-0.08321813,0.96912859,0.09248549,0.22803134,0.01542476
1759199105464,-0.00711525,0.18951734,0.16676585,0.56678708,0.20940124,-0.06655018,0.96859132,0.09543278,0.22912023,0.01507870
1759199105476,-0.70888737,0.34700404,0.42239052,0.45859922,0.21870261,-0.06687415,0.96804025,0.09804680,0.23036683,0.01469752
1759199105487,-0.12538664,-0.04100213,0.31036017,0.44723879,0.27694582,-0.03293436,0.96743808,0.10046189,0.23186234,0.01451967
1759199105498,-0.24212422,-0.56765081,-0.04537309,0.41336871,0.33298541,0.02668446,0.96674996,0.10275608,0.23371041,0.01466777
1759199105509,-0.11886790,0.01324469,0.17380004,0.35808363,0.39955581,-0.00504338,0.96598455,0.10477926,0.23596790,0.01463928
1759199105520,-0.36856018,-0.42444142,0.04160911,0.35171248,0.41051648,0.00970598,0.96521048,0.10673126,0.23824627,0.01469314
1759199105531,-0.18493748,-0.65520915,0.03069306,0.30316130,0.43341324,0.02970001,0.96441624,0.10842896,0.24067338,0.01485946
1759199105543,-0.57114782,-0.89924897,0.11653411,0.33363198,0.52033316,-0.01291409,0.96347346,0.11029730,0.24358725,0.01478715
1759199105554,-0.09239905,0.62995878,-0.39007306,0.27486465,0.55819747,0.02659372,0.96250663,0.11182280,0.24668524,0.01493474
1759199105565,-0.19495716,0.03241223,0.00894965,0.24710867,0.56984546,0.08241540,0.96152284,0.11319425,0.24984788,0.01539215
1759199105576,0.33943446,-0.06060061,0.12006253,0.22967354,0.56318414,0.11172244,0.96053516,0.11448043,0.25300172,0.01601779
1759199105587,-0.30220467,-0.92657093,0.55748684,0.24015996,0.53900654,0.11469435,0.95956272,0.11582532,0.25602015,0.01666008
1759199105598,-0.65678583,-0.46576684,-0.08393339,0.23864752,0.50846289,0.07562391,0.95864542,0.11713788,0.25881670,0.01707601
1759199105609,0.09519169,-0.24836038,-0.11671152,0.22080896,0.52662974,0.04450068,0.95769644,0.11836337,0.26173949,0.01732299
1759199105620,0.06177140,0.05641830,0.29872013,0.11634293,0.51624433,0.04619220,0.95681611,0.11901489,0.26463046,0.01758167
1759199105632,0.24856730,-0.23908456,0.24604018,0.10931670,0.47005619,0.13913981,0.95597096,0.11964346,0.26733328,0.01838172
1759199105643,0.02168454,0.13546500,0.56072192,0.08229535,0.44841741,0.08218206,0.95523302,0.12008374,0.26973232,0.01882140
1759199105654,-0.26335335,-0.74987367,-0.82991637,0.09515511,0.34229123,0.11053203,0.95461568,0.12061186,0.27163203,0.01943485
1759199105665,0.14706446,0.38289973,-0.13424470,0.06748309,0.35808893,0.06678400,0.95399290,0.12098639,0.27361943,0.01980550
1759199105676,-0.20108023,-0.49693225,-0.16787757,0.15290082,0.31853413,0.08957331,0.95335988,0.12184263,0.27540322,0.02030711
1759199105687,0.02565889,0.65358888,0.56259486,0.09250670,0.30387678,0.04121964,0.95279532,0.12236067,0.27710493,0.02053794
1759199105698,-0.13938038,-0.05599360,0.11028431,0.06897904,0.31474492,0.05037668,0.95223020,0.12274350,0.27885176,0.02081753
1759199105710,-0.02974952,0.30263936,-0.04177018,-0.02003972,0.24091460,0.11311108,0.95182740,0.12262928,0.28022498,0.02146226
1759199105721,-0.12709840,-0.20422141,-0.45618355,0.03644578,0.27832982,0.02885003,0.95133275,0.12283519,0.28179754,0.02162527
1759199105732,-0.64001986,-0.53342601,0.00288067,0.15736812,0.37238444,-0.04543482,0.95063016,0.12368498,0.28380842,0.02137992
1759199105743,0.12329280,0.63064100,-0.01784554,0.17454728,0.37858270,0.01799094,0.94987146,0.12465372,0.28590955,0.02147977
1759199105754,0.23801222,0.97962345,0.76229218,0.10708009,0.39559463,0.07720526,0.94911981,0.12524801,0.28810510,0.02190826
1759199105765,0.04159589,0.22016796,-0.12376917,0.10888369,0.33372552,0.11724430,0.94846633,0.12584687,0.28994059,0.02255310
1759199105776,0.62369239,0.11711511,-0.57538543,0.08918486,0.25606325,0.14436451,0.94794078,0.12634631,0.29137454,0.02336154
1759199105788,0.35152757,-0.80694965,-0.63315515,0.16399835,0.20517428,0.12438954,0.94744209,0.12727290,0.29253378,0.02406434
1759199105799,0.01847296,-0.17810674,0.26113017,0.09330965,0.12008218,0.07037734,0.94715632,0.12779077,0.29320023,0.02445494
1759199105810,0.14043012,-0.20285452,-0.39547025,0.05126140,0.11942654,-0.04815969,0.94691290,0.12808296,0.29388097,0.02418043
1759199105821,-0.10379063,-0.12838177,0.25721901,0.03074159,0.12019109,-0.04239741,0.94669255,0.12825050,0.29453601,0.02394936
1759199105832,0.35486511,-0.03687975,0.09304180,0.05455963,0.12910261,-0.01765814,0.94642836,0.12855603,0.29525898,0.02385048
1759199105843,-0.38039304,0.71001306,-0.57398279,0.03743271,0.08876949,0.01736203,0.94624550,0.12876191,0.29574721,0.02394597
1759199105854,0.12366374,-0.48042163,0.45206942,0.08512100,0.08659870,0.02167426,0.94602571,0.12923859,0.29623217,0.02406734
1759199105865,0.18029736,-0.00350513,-0.61097210,0.09389268,0.06779213,0.11678069,0.94581976,0.12975970,0.29660841,0.02471548
1759199105877,-0.10367824,-0.02958451,-0.00926014,0.09141032,0.03710034,0.07079856,0.94567245,0.13027616,0.29681803,0.02511549
1759199105888,0.37352186,-0.20596363,-0.20554731,0.14828395,0.04445664,0.02417961,0.94547941,0.13109173,0.29706254,0.02524848
1759199105899,-0.23945472,-0.00136773,0.04090230,0.13030198,0.05374887,0.02274596,0.94528169,0.13181490,0.29736085,0.02537472
1759199105910,-0.07674978,0.22484702,-0.24576069,0.09577134,0.09080555,0.01018326,0.94504509,0.13235122,0.29786936,0.02543174
1759199105921,0.08905157,0.10184542,0.46204061,0.04287852,0.14974873,0.01600007,0.94474697,0.13258920,0.29870046,0.02552054
1759199105933,0.17555934,0.23148843,-0.10885534,0.03850847,0.13556563,0.03134901,0.94446663,0.13280870,0.29947319,0.02569923
1759199105944,-0.33231512,-0.34708449,-0.26281958,0.12427478,0.14119597,0.05194843,0.94411582,0.13349221,0.30024977,0.02598495
1759199105955,-0.01612104,0.02903688,-0.84806510,0.12132757,0.14430776,0.06579490,0.94375188,0.13417164,0.30105789,0.02635340
1759199105966,-0.19463753,-0.08804949,-0.13081947,0.11420395,0.09605314,0.10685103,0.94347456,0.13480547,0.30159098,0.02694642
1759199105977,0.52790788,-0.12169388,-0.20062165,0.09211318,0.12391486,0.08612348,0.94316192,0.13532591,0.30229110,0.02743302
1759199105988,0.40723707,0.19863982,0.44657901,0.02271181,0.04698316,0.13879404,0.94303637,0.13545310,0.30255421,0.02821027
1759199105999,-0.23526946,-0.23445139,-0.27772105,-0.01947578,0.00724728,0.09710839,0.94302283,0.13534598,0.30259407,0.02874436
1759199106011,0.17221647,-0.50336494,-0.48362919,-0.01693484,0.02087168,0.05272171,0.94298958,0.13525030,0.30271199,0.02904224
1759199106022,0.11283276,-0.46450398,-0.09826416,-0.04160648,0.06217422,0.05498505,0.94290239,0.13501938,0.30305706,0.02934741
1759199106033,-0.27353078,0.02180089,-0.01275436,-0.05936154,0.07941878,0.04225665,0.94280132,0.13469290,0.30349386,0.02957982
1759199106044,0.14609735,0.36667557,-0.42716966,-0.04905529,0.11472549,0.04712325,0.94262359,0.13441573,0.30414206,0.02984607
1759199106055,-0.07323616,0.15853449,-0.29281496,-0.04119755,0.09671684,0.10086259,0.94246635,0.13418915,0.30467401,0.03040081
1759199106066,0.12684006,-0.14592336,-0.38387154,0.00978069,0.09857197,0.05115558,0.94226888,0.13424441,0.30523094,0.03068984
1759199106078,-0.13736017,-0.17027863,0.42305130,0.00576092,0.05875572,0.04595276,0.94214708,0.13427725,0.30556585,0.03095177
1759199106089,0.59825019,-0.11918336,-0.63299796,-0.04039141,0.08954029,0.03774443,0.94201201,0.13405509,0.30605832,0.03115936
1759199106100,0.18048820,-0.15592395,-0.30090272,-0.06043815,0.05828678,-0.00208370,0.94195491,0.13371966,0.30638181,0.03114780
1759199106111,0.09385035,-0.13956611,-0.31916374,-0.11354516,0.02562248,-0.01608757,0.94200084,0.13308949,0.30652401,0.03105851
1759199106122,0.22561985,-0.29491452,-0.14780230,-0.16912517,0.03634316,-0.00138507,0.94206699,0.13215930,0.30672390,0.03105090
1759199106133,0.18541499,-0.32470347,-0.04249702,-0.18130822,0.04820599,-0.00604352,0.94212303,0.13112584,0.30699868,0.03101645
1759199106144,-0.06957300,0.05271762,-0.17125588,-0.19220858,0.05201234,-0.01432184,0.94217940,0.13005908,0.30728734,0.03093696
1759199106155,0.08421451,-0.43406425,-0.56780162,-0.19927565,0.04961000,0.02831508,0.94223540,0.12897303,0.30755772,0.03109128
1759199106167,-0.10022049,0.56967220,0.33450388,-0.20103869,0.07536650,0.00019610,0.94225093,0.12784721,0.30797977,0.03109238
1759199106178,0.27321963,-0.39462418,-0.21524955,-0.18827661,0.05926851,0.01828045,0.94228147,0.12679286,0.30831167,0.03119475
1759199106189,0.31978576,-0.09550808,0.09467654,-0.25112321,0.03348229,0.01942897,0.94240467,0.12538657,0.30849917,0.03130355
1759199106201,0.15240974,-0.41805895,-0.43573778,-0.18700747,0.00362161,0.02553613,0.94253654,0.12430193,0.30852018,0.03145166
1759199106212,0.12534514,0.05000698,-0.09953469,-0.23633030,-0.02391747,0.02709606,0.94274888,0.12297848,0.30838624,0.03160340
1759199106223,0.04487941,-0.52757500,0.09409767,-0.29437216,-0.02197184,0.03732137,0.94299127,0.12135943,0.30826540,0.03180866
1759199106234,0.15997783,-0.32718047,-0.12097249,-0.29398770,0.02523714,-0.00982921,0.94314705,0.11981600,0.30839789,0.03175706
1759199106244,-0.07029884,0.29081129,0.12524802,-0.26835190,0.04683916,-0.03816628,0.94325910,0.11829981,0.30866253,0.03154142
1759199106256,-0.13221307,-0.07510194,0.07917243,-0.31900906,0.05413781,0.00865640,0.94337844,0.11654526,0.30896029,0.03158903
1759199106267,0.33585694,0.20568047,0.22243946,-0.27241007,0.08651950,0.02827577,0.94340270,0.11493804,0.30947076,0.03175586
1759199106278,0.15103286,0.06022634,0.02795789,-0.28180670,0.08533222,0.06282417,0.94342338,0.11347265,0.30991448,0.03208254
1759199106289,-0.46651352,0.55069762,0.01676074,-0.23496377,0.02751277,0.06264815,0.94351894,0.11214510,0.31006993,0.03243651
1759199106300,0.14451720,0.00332856,-0.48675288,-0.21539465,0.01407570,0.06974844,0.94362120,0.11094966,0.31014805,0.03282361
1759199106311,0.28154996,-0.00086094,0.20435371,-0.24691096,0.00450347,0.09467518,0.94375349,0.10959165,0.31017282,0.03334432
1759199106323,-0.40773786,-0.43522281,0.10676059,-0.21666285,-0.01198657,0.04941141,0.94390854,0.10835667,0.31010450,0.03362597
1759199106334,0.36953255,0.04849104,0.04159421,-0.20749620,0.02322004,-0.00027911,0.94399774,0.10720507,0.31023337,0.03362442
1759199106345,-0.45403703,0.51831132,0.35575633,-0.20965420,0.04626665,-0.08832075,0.94406321,0.10602052,0.31049477,0.03312541
1759199106356,0.22069941,1.02998310,0.04500916,-0.19282832,0.07068562,-0.04689194,0.94406280,0.10496961,0.31088001,0.03286985
1759199106367,-0.50143761,0.24601652,0.01209190,-0.10511869,0.02470706,-0.03470084,0.94408901,0.10438620,0.31101714,0.03267726
1759199106378,-0.14743892,-0.17626857,0.05323529,-0.04390242,0.04327552,0.03412250,0.94402913,0.10413815,0.31126164,0.03287005
1759199106389,0.49090808,-0.60977071,-0.15265293,0.00608450,0.05071680,0.05947897,0.94392002,0.10417222,0.31154566,0.03320313
1759199106401,-0.43144944,1.25419691,0.29032556,0.05568147,0.02927951,0.04619936,0.94382228,0.10448404,0.31170962,0.03346185
1759199106412,0.00175047,0.26148468,0.10989508,0.05775492,0.00222371,-0.00196772,0.94378235,0.10481036,0.31172219,0.03345073
1759199106423,0.07283075,0.18686773,0.10811161,0.04681911,0.02070691,-0.00752076,0.94371755,0.10506786,0.31183607,0.03340937
1759199106434,-0.03875911,0.12592959,0.07642792,0.05972846,-0.00190193,-0.03989895,0.94369119,0.10540831,0.31182523,0.03318194
1759199106447,0.03320701,-0.02403573,0.26757420,0.05524813,0.02638927,-0.02981024,0.94360180,0.10576466,0.31199544,0.03298967
1759199106456,-0.08987732,0.57636067,0.10544644,0.03576293,0.03358627,-0.01809515,0.94353516,0.10592917,0.31214994,0.03290643
1759199106467,0.06151252,-0.06696147,0.19842229,0.01652479,0.00622466,0.00992543,0.94351257,0.10601675,0.31218293,0.03295903
1759199106480,0.16794632,-0.31387132,-0.03022462,0.00720177,0.00937232,0.00947219,0.94348563,0.10606249,0.31224245,0.03301918
1759199106490,0.14225410,-0.23300711,-0.18248409,0.00467476,0.01224291,-0.03037022,0.94346822,0.10608563,0.31230305,0.03286885
1759199106501,0.05091052,-0.30795335,0.13647917,0.00053617,0.00620034,-0.02100844,0.94346027,0.10608871,0.31233870,0.03274805
1759199106512,0.09584276,-0.14184696,0.13592496,-0.04995644,0.01145822,-0.03411508,0.94347706,0.10580895,0.31240287,0.03255701
1759199106523,-0.04158572,-0.07200009,0.00299552,-0.01958848,0.02096321,-0.03975217,0.94345864,0.10570220,0.31251712,0.03234036
1759199106535,-0.16435782,0.07264394,0.00781234,0.01706680,0.02569627,-0.02850497,0.94340523,0.10579862,0.31266230,0.03217930
1759199106545,-0.03854818,0.12459627,-0.19202218,0.08002824,0.02262902,-0.00683488,0.94331823,0.10622677,0.31278336,0.03214274
1759199106557,0.05377267,0.13805477,0.21520193,0.07648725,0.03493864,-0.03673611,0.94321104,0.10665893,0.31298077,0.03193518
1759199106568,0.06437849,0.14614885,0.36167593,0.08362093,0.01808927,-0.04016259,0.94313193,0.10712720,0.31308207,0.03171027
1759199106579,0.08232037,0.33008777,0.30407654,0.09895676,0.00985018,-0.06037824,0.94306370,0.10766652,0.31313575,0.03138121
1759199106591,-0.04790471,0.00294284,-0.06195484,0.10704031,-0.00167113,-0.03382475,0.94299916,0.10831946,0.31312556,0.03117487
1759199106602,-0.09146094,0.09723460,0.05920339,0.10618543,-0.00040333,-0.03424171,0.94294048,0.10888756,0.31312340,0.03099168
1759199106612,-0.10096581,-0.01618051,-0.10440560,0.08179874,-0.00893601,-0.01716677,0.94290844,0.10932927,0.31307514,0.03089898
1759199106624,0.06134720,-0.15997585,-0.00678031,0.05373178,0.00772265,-0.00169856,0.94285638,0.10964897,0.31312109,0.03088887
1759199106634,0.11117518,-0.04151288,0.27605215,0.08475296,-0.03674369,-0.01387646,0.94287027,0.11007274,0.31293738,0.03081949
1759199106646,0.04413936,-0.14250812,-0.03591597,0.03824222,-0.05597425,-0.00551376,0.94295166,0.11029072,0.31261832,0.03078806
1759199106657,-0.05874535,0.10359005,-0.36399691,0.01206984,-0.02573283,-0.02269879,0.94299566,0.11035831,0.31247422,0.03066095
1759199106668,-0.12304159,-0.08799339,-0.05372235,-0.01615874,-0.00046530,-0.02007374,0.94301035,0.11027024,0.31247168,0.03055155
1759199106679,-0.09689153,-0.13613316,0.15033631,-0.04647360,0.00062168,-0.00973405,0.94304219,0.11000302,0.31247526,0.03049558
1759199106691,-0.02368101,-0.20330305,0.30694597,-0.00913241,-0.00231514,0.00358549,0.94305214,0.10995005,0.31246183,0.03051637
1759199106701,-0.21325265,-0.14026602,0.10187945,0.01033295,0.03408835,0.00338064,0.94298529,0.11000482,0.31264250,0.03053429
1759199106713,-0.07709321,0.19620263,0.12636912,0.05189579,0.07212655,-0.00299524,0.94281787,0.11029543,0.31304641,0.03051752
1759199106724,-0.11374259,0.31284922,0.08021847,0.08664618,0.05374422,-0.01852821,0.94266847,0.11076766,0.31333931,0.03041654
1759199106735,-0.14082841,0.20535446,0.03909293,0.09403847,0.06026775,-0.01760989,0.94248971,0.11131778,0.31369188,0.03031352
1759199106746,-0.03272279,0.40478989,-0.10021299,0.13105221,0.08033013,-0.00496792,0.94226432,0.11201891,0.31412165,0.03028694
1759199106757,0.07572436,0.29883189,-0.34295448,0.10739494,0.06597753,-0.00627105,0.94207050,0.11262032,0.31449112,0.03025182
1759199106768,-0.06258463,0.04515347,-0.01160248,0.10776332,0.03659768,0.00633932,0.94193238,0.11320763,0.31469058,0.03028637
1759199106779,0.13265810,-0.21856699,0.21466214,0.09650373,0.03580618,0.00593177,0.94179918,0.11374805,0.31489109,0.03031959
1759199106790,0.00902813,-0.36635189,0.36005596,0.07907212,0.01527877,-0.02102912,0.94172077,0.11419086,0.31497665,0.03020183
1759199106802,0.12917629,-0.19449797,0.04677504,0.05301007,0.01056866,-0.02234286,0.94166847,0.11449036,0.31503637,0.03007559
1759199106813,-0.05181389,-0.14540565,-0.07597037,0.05548812,0.01987618,-0.01867911,0.94159608,0.11480387,0.31514867,0.02997005
1759199106824,-0.07324229,0.08233879,-0.04000944,0.07236781,0.03801584,-0.01229403,0.94148173,0.11519466,0.31535395,0.02990367
1759199106835,-0.02742573,0.11356515,-0.15531615,0.05099118,0.02450111,0.02979805,0.94139315,0.11548786,0.31549483,0.03007501
1759199106846,-0.03382607,-0.03369931,0.05591691,0.06114500,0.02951290,0.02462593,0.94129581,0.11581498,0.31565273,0.03020675
1759199106857,0.54261636,-0.30252988,-0.08274458,0.03525599,0.01896971,0.04467807,0.94122659,0.11601594,0.31576085,0.03046142
1759199106868,0.11506972,-0.19577408,-0.05812036,0.03438089,0.00387151,0.03468067,0.94118992,0.11620504,0.31578215,0.03065216
1759199106880,-0.02988346,-0.12258817,0.04190941,-0.00268479,0.01401484,0.02452463,0.94116122,0.11619014,0.31585993,0.03078828
1759199106891,-0.35552584,0.02964000,-0.09819212,0.01827496,0.00545194,0.00229128,0.94113791,0.11629248,0.31589046,0.03080111
1759199106902,-0.11003918,0.17399978,-0.11474725,0.02369240,0.00705786,0.00278308,0.94110800,0.11642397,0.31592963,0.03081655
1759199106913,-0.05020231,0.08633558,-0.10021249,0.01962902,0.02061304,0.00559485,0.94105366,0.11653585,0.31604713,0.03084844
1759199106924,-0.06174639,0.02952689,0.07174985,0.03145806,0.02219881,0.05032348,0.94098078,0.11671202,0.31617144,0.03113025
1759199106936,0.13127732,0.14349669,0.07527292,0.00738565,0.02525303,0.02653940,0.94092371,0.11675301,0.31631159,0.03127755
1759199106947,0.00138461,-0.07325101,-0.05615644,0.03627771,-0.00902409,0.03852863,0.94090854,0.11695254,0.31626196,0.03148946
1759199106958,0.12274797,-0.02180573,-0.14821679,0.02038156,0.00631463,0.03089041,0.94087666,0.11706667,0.31629732,0.03166244
1759199106969,0.10407851,-0.06359778,-0.09376396,0.03030730,-0.01771154,0.00555068,0.94088772,0.11723488,0.31619902,0.03169325
1759199106980,0.05964459,-0.02347174,-0.02404755,0.00769868,-0.03059597,-0.01581648,0.94094190,0.11727722,0.31603075,0.03160626
1759199106991,-0.01684454,-0.20394398,-0.13779999,0.00562603,-0.00745586,0.00499987,0.94095122,0.11730929,0.31598825,0.03163476
1759199107003,-0.06366184,-0.06778836,-0.07539445,-0.00160084,-0.03186287,-0.01881736,0.94101808,0.11730001,0.31580344,0.03152562
1759199107014,-0.02710135,-0.04364762,-0.15274906,0.00652678,-0.01448589,-0.00652189,0.94104111,0.11733525,0.31572522,0.03149040
1759199107025,0.01353339,0.07572715,-0.08444730,-0.00205948,-0.01512985,0.00764019,0.94106954,0.11732372,0.31564049,0.03153318
1759199107036,0.01802567,0.00871484,-0.01028401,-0.00321678,-0.01521106,0.00120291,0.94110040,0.11730554,0.31555455,0.03153998
1759199107047,0.14292891,-0.03144898,0.06563359,0.00739698,-0.00184163,-0.00521941,0.94109968,0.11734660,0.31554433,0.03151101
1759199107058,-0.00596122,-0.05198831,0.29921242,-0.00344782,-0.00725718,-0.00007245,0.94111501,0.11732815,0.31550550,0.03151062
1759199107069,-0.03725379,0.00433199,-0.08263090,0.00114853,0.01098214,-0.00933007,0.94109534,0.11733458,0.31556700,0.03145838
1759199107080,0.01092358,0.14370618,-0.24363490,-0.00517936,0.02096321,0.00811371,0.94105839,0.11730584,0.31568335,0.03150341
1759199107092,-0.11711393,-0.01132961,-0.24239968,0.02941671,-0.00021723,-0.00881876,0.94103957,0.11747351,0.31568211,0.03145314
1759199107103,0.01382145,0.04016808,-0.02665298,0.00779298,0.01510442,0.00219736,0.94100533,0.11751715,0.31576670,0.03146545
1759199107114,-0.01449625,0.01465595,0.15896120,-0.01818917,0.01877699,-0.01686757,0.94098556,0.11741347,0.31587372,0.03136930
1759199107125,0.12894689,0.04834823,0.14574684,-0.05108571,0.01713540,-0.02032124,0.94099247,0.11714017,0.31596540,0.03126058
1759199107136,0.13059631,0.01262172,0.01393687,-0.01321911,0.00257926,-0.00741931,0.94099806,0.11706812,0.31597946,0.03122015
1759199107147,0.06047294,-0.17852815,-0.07215455,-0.00511709,0.00030911,-0.00655318,0.94100233,0.11703895,0.31598122,0.03118279
1759199107159,0.08530674,-0.23390558,-0.01857485,-0.00365843,0.00327868,-0.00650157,0.94099988,0.11701810,0.31599991,0.03114573
1759199107170,-0.00325935,-0.02881825,-0.01767769,-0.00211152,-0.00028262,-0.01089544,0.94100393,0.11700617,0.31599831,0.03108417
1759199107181,-0.05321427,0.23152873,-0.05799888,0.00194891,-0.00873043,-0.02968685,0.94102465,0.11701718,0.31594898,0.03091644
1759199107193,-0.07982140,0.15124054,0.01120300,0.02387655,0.00560026,-0.04326774,0.94100524,0.11715208,0.31598062,0.03067198
1759199107202,0.02680159,0.14998667,0.10502673,0.02846692,0.00405723,-0.00514322,0.94098177,0.11729300,0.31600071,0.03064652
1759199107214,0.00502523,-0.02187677,0.19673253,0.02316696,0.02050428,0.00200094,0.94092666,0.11742273,0.31611553,0.03065773
1759199107225,-0.04400472,-0.04040932,-0.05764921,0.04715686,0.01018489,0.00776819,0.94087213,0.11769153,0.31617358,0.03070201
1759199107237,-0.04217629,0.01407378,-0.02396448,0.03281437,0.00254131,0.00063903,0.94084273,0.11788513,0.31618858,0.03070578
1759199107248,0.09063834,-0.13894846,-0.03577449,0.01711306,0.00831177,-0.00489483,0.94081668,0.11797840,0.31623388,0.03067910
1759199107258,0.11181156,-0.24081174,0.09540414,-0.00376104,-0.00026171,-0.03035159,0.94082480,0.11795865,0.31623250,0.03051975
1759199107270,-0.02632261,-0.06754922,0.08991299,0.00805013,0.00098826,-0.01020778,0.94081909,0.11800413,0.31623809,0.03046208
1759199107281,-0.01262760,-0.03445153,0.06105970,-0.00161293,0.01816256,0.00228033,0.94078561,0.11799510,0.31633980,0.03047485
1759199107292,-0.06988502,0.22005634,-0.07764707,0.00103626,0.01227063,0.01343844,0.94075887,0.11800101,0.31640974,0.03055145
1759199107303,-0.02779101,0.12029827,-0.16956270,0.00193226,0.00645844,0.03029135,0.94073999,0.11801173,0.31644558,0.03071957
1759199107314,0.02993360,-0.17503899,-0.01052851,0.00989973,0.00509210,0.03603989,0.94071745,0.11806569,0.31647334,0.03091598
1759199107326,0.07018051,0.02587992,0.00884027,-0.01519276,-0.02173486,0.01458072,0.94076769,0.11797833,0.31634836,0.03099982
1759199107336,0.07379658,0.01716677,-0.07248307,-0.06573838,-0.05841332,0.01847034,0.94091213,0.11762991,0.31603877,0.03109772
1759199107348,0.04541590,-0.25736371,-0.17982280,-0.03948592,-0.02456212,0.01832898,0.94098505,0.11740090,0.31589631,0.03120402
1759199107359,0.10666223,-0.33473655,-0.18858314,-0.05218663,-0.03893054,-0.00635788,0.94109086,0.11712170,0.31568803,0.03117001
1759199107370,-0.06781975,-0.01825387,0.03169170,-0.05083196,-0.03759722,-0.01787909,0.94120015,0.11683704,0.31547749,0.03106989
1759199107381,-0.07378645,0.19976813,0.12199312,-0.05034873,0.00968454,-0.01727017,0.94122029,0.11655257,0.31553221,0.03097231
1759199107392,-0.13053038,0.29949231,0.13504988,-0.01857418,0.00597550,-0.02615301,0.94122664,0.11645041,0.31556507,0.03082847
1759199107403,-0.00448142,0.19018988,0.03557539,0.01390089,-0.00594175,-0.00380358,0.94122884,0.11652756,0.31553209,0.03080736
1759199107414,-0.00056078,0.21838735,-0.02773720,-0.00834731,-0.01481892,-0.00244566,0.94126289,0.11648081,0.31544911,0.03079366
1759199107426,-0.04989228,-0.08980611,-0.05939557,0.01560707,-0.01114226,-0.00944412,0.94127471,0.11656821,0.31538671,0.03074078
1759199107437,0.13589707,-0.05797008,0.06307810,0.00056173,-0.00922748,-0.01005490,0.94129347,0.11657136,0.31533504,0.03068447
1759199107448,0.07100974,-0.18541577,0.00226009,-0.01720392,-0.04216459,-0.00839039,0.94138517,0.11647588,0.31510102,0.03063790
1759199107459,0.02999341,-0.20414869,0.03434729,0.00323172,-0.03164074,-0.00535722,0.94144268,0.11649381,0.31492542,0.03060817
1759199107470,-0.07390870,-0.05598558,0.11683462,-0.04079364,0.01437882,0.01877281,0.94144053,0.11626333,0.31500666,0.03071423
1759199107481,-0.05921231,0.12449058,-0.10630033,0.02498233,-0.04218659,-0.03055255,0.94150663,0.11640073,0.31477463,0.03054620
1759199107493,-0.28638526,0.15655560,-0.07623665,0.00072733,0.00543459,-0.03100086,0.94150152,0.11640484,0.31480534,0.03037104
1759199107504,0.03687655,0.04784616,-0.01493734,0.00811829,0.02544876,0.02128079,0.94144387,0.11645071,0.31494912,0.03049128
1759199107515,-0.05229019,0.13586437,0.20619729,0.01798687,0.02073879,0.00334432,0.94139333,0.11654874,0.31506215,0.03050950
1759199107526,-0.01864598,0.04445871,0.06052127,0.01807764,0.01145911,0.00494596,0.94135810,0.11665088,0.31512689,0.03053745
1759199107537,0.10412412,-0.09460190,-0.02183549,0.02928358,0.04402017,-0.00226813,0.94125562,0.11681487,0.31537341,0.03052475
1759199107548,-0.03140151,0.28524190,-0.04250542,0.00601765,0.00142719,-0.02043014,0.94125249,0.11684826,0.31538133,0.03041136
1759199107559,-0.11755481,0.13013270,-0.09747858,0.02231544,-0.01374434,-0.00752940,0.94126401,0.11697211,0.31530505,0.03036957
1759199107571,-0.01429813,-0.03581681,-0.12512754,0.02119387,0.01136214,0.00059723,0.94122751,0.11709186,0.31536924,0.03037295
1759199107582,-0.07825807,-0.20809532,0.07436849,0.01909933,-0.00438096,-0.00069180,0.94122263,0.11719691,0.31534515,0.03036914
1759199107593,0.01132009,-0.05749323,0.09250570,-0.00165830,0.00052541,-0.00583435,0.94122384,0.11718770,0.31534806,0.03033676
1759199107604,0.18492892,-0.01177210,0.05701868,-0.02238868,-0.00010332,-0.01983405,0.94124321,0.11706233,0.31534748,0.03022569
1759199107615,-0.04049801,-0.08414914,0.04720269,-0.00311736,-0.01326332,-0.02140213,0.94127383,0.11704502,0.31527387,0.03010691
1759199107626,0.13707000,0.14445645,0.04373762,-0.00987960,-0.00912656,-0.00251636,0.94129827,0.11698970,0.31522276,0.03009282
1759199107638,-0.09788390,-0.06866128,-0.11736565,0.01833765,-0.02109310,-0.00351017,0.94132568,0.11709239,0.31510464,0.03007316
1759199107649,0.05050913,-0.05156470,-0.08084144,0.02914259,0.01116228,0.01470677,0.94128259,0.11725267,0.31516604,0.03015405
1759199107660,-0.14871987,-0.04172058,0.06722651,0.00288820,-0.00393195,0.01830976,0.94128468,0.11726899,0.31514382,0.03025750
1759199107671,0.02642650,-0.03332840,-0.00291317,-0.01719974,0.01105440,0.00568349,0.94127474,0.11717095,0.31520683,0.03028989
1759199107682,-0.01834654,-0.14089517,-0.06096407,-0.02536501,-0.01003733,0.00539609,0.94130931,0.11703271,0.31515213,0.03031930
1759199107693,0.15834616,-0.14233891,-0.01080331,-0.02748074,-0.01074079,0.00641298,0.94134673,0.11688157,0.31509305,0.03035457
1759199107704,0.20392000,-0.05796820,0.08890055,-0.05953441,-0.03004790,0.00480458,0.94144264,0.11655115,0.31492629,0.03038124
1759199107715,0.03337976,-0.03724988,0.08018399,-0.04282255,-0.04773705,-0.01017840,0.94156244,0.11631349,0.31466135,0.03032475
1759199107727,-0.02557262,-0.02759118,-0.03198049,-0.03757857,-0.01984350,-0.01077432,0.94162806,0.11610117,0.31454923,0.03026387
1759199107738,-0.04067072,0.07699138,-0.07850938,-0.02315802,-0.01567820,-0.01257818,0.94167562,0.11597149,0.31446143,0.03019344
1759199107749,0.06658675,0.02296802,-0.17679223,-0.01101421,-0.02585723,0.00111877,0.94173086,0.11591036,0.31431792,0.03019964
1759199107760,-0.00362500,0.11421891,-0.06967498,0.00943749,-0.02309124,0.02123117,0.94176398,0.11596368,0.31418746,0.03031960
1759199107772,-0.03002917,-0.01606355,0.02518418,0.00145781,-0.02712718,0.04236845,0.94180709,0.11597206,0.31403148,0.03056322
1759199107782,0.00059045,0.06410726,0.22136667,-0.00060180,-0.01779480,0.01374600,0.94183656,0.11596887,0.31393716,0.03063607
1759199107793,0.03826023,-0.10996976,0.04473711,-0.03217688,-0.02417282,0.00985227,0.94190029,0.11579351,0.31380542,0.03068977
1759199107805,-0.06204730,-0.05716613,0.02555016,-0.05559277,-0.00474715,0.00354782,0.94194796,0.11547385,0.31377813,0.03071017
1759199107816,-0.00308411,-0.02786405,-0.11115634,-0.03168983,-0.00267784,0.00799302,0.94197278,0.11529956,0.31376340,0.03075413
1759199107827,-0.08275686,0.14630231,-0.13374100,-0.00823120,-0.02505339,-0.01337832,0.94202661,0.11525428,0.31362561,0.03068055
1759199107857,-0.01819637,0.03871289,0.05876392,-0.00009223,-0.00642502,0.01161791,0.94205308,0.11525290,0.31352955,0.03085424
1759199107867,0.10247015,-0.00564550,-0.79410232,-0.09390312,-0.01923546,0.01752664,0.94213953,0.11478339,0.31343337,0.03094187
1759199107881,-0.04616319,0.05008615,0.47219955,-0.01067806,-0.01428218,-0.00998521,0.94218418,0.11470864,0.31333340,0.03087197
1759199107887,0.09509342,0.25425152,-0.07269196,-0.04259738,-0.00768676,-0.03507137,0.94221439,0.11456381,0.31330726,0.03075273
1759199107899,-0.10097876,-0.04139745,0.11836227,-0.00422636,-0.01112454,-0.00604003,0.94223887,0.11454036,0.31324552,0.03071921
1759199107910,0.00767290,0.07022745,0.03085583,0.01593517,0.00141243,-0.01432219,0.94222780,0.11463119,0.31325357,0.03063757
1759199107922,-0.06311009,-0.00041576,-0.01435733,0.02129904,-0.00814564,-0.00139262,0.94222873,0.11475472,0.31320633,0.03062949
1759199107933,0.01497511,0.04305438,0.09991036,0.00602220,0.00718759,-0.01533686,0.94221324,0.11479025,0.31324874,0.03053901
1759199107945,0.07689613,-0.13927960,0.11875692,0.02127009,0.00581681,-0.00699223,0.94218916,0.11490936,0.31328131,0.03049985
1759199107956,0.05577372,-0.02933553,0.17113700,0.02409137,0.00524914,0.00110192,0.94216202,0.11504789,0.31331149,0.03050619
1759199107967,-0.05964348,-0.00955494,0.00139657,0.01495600,0.00755472,-0.00121493,0.94213794,0.11513164,0.31335380,0.03049938
1759199107979,-0.05275214,-0.12529876,-0.09932782,0.00044979,0.02116068,0.00047287,0.94209599,0.11513430,0.31347865,0.03050217
1759199107990,-0.00286709,0.03175146,-0.03730646,-0.00000995,0.02962769,-0.00798185,0.94204222,0.11513424,0.31364456,0.03045747
1759199108002,-0.10087559,0.09140090,-0.01780956,0.00363251,0.01575516,-0.01386029,0.94201207,0.11515513,0.31373515,0.03037778
1759199108013,0.11308091,0.09669186,0.01234705,0.01973100,0.03523889,-0.02275110,0.94193691,0.11526562,0.31393249,0.03025037
1759199108024,-0.02594583,-0.00953722,0.08697135,0.04074709,0.02567761,-0.00446638,0.94186048,0.11549788,0.31407885,0.03022491
1759199108036,-0.05531916,-0.02783047,-0.01629940,0.01251454,0.01539659,0.03587859,0.94181666,0.11556796,0.31416507,0.03042583
1759199108047,0.05801776,-0.20449949,-0.09302784,0.01804846,0.05902375,-0.00521546,0.94169270,0.11567084,0.31450151,0.03039611
1759199108058,0.03502880,-0.05223893,0.04741017,0.00227067,0.01921092,-0.00743138,0.94165654,0.11568355,0.31460909,0.03035449
1759199108069,0.00279242,0.13954782,-0.00164732,0.00801092,0.01577655,-0.01314733,0.94162358,0.11572881,0.31469823,0.03028021
1759199108081,0.02198217,0.14965614,-0.07406908,0.02176663,0.01297291,-0.01014903,0.94158547,0.11585288,0.31477217,0.03022236
1759199108092,-0.05940391,0.07774359,-0.02653211,0.01476840,0.00105382,-0.01199858,0.94157547,0.11593559,0.31477808,0.03015517
1759199108103,0.03288107,-0.00811031,0.02064743,0.03106672,0.02309573,-0.01961943,0.94151539,0.11610645,0.31490510,0.03004726
1759199108114,-0.17268750,0.03379360,0.02735824,-0.00370898,-0.00468343,0.00554003,0.94152582,0.11608550,0.31487864,0.03007856
1759199108126,0.15714071,-0.05535247,-0.08565683,-0.00945899,0.04605651,0.00842659,0.94144455,0.11603253,0.31513656,0.03012575
1759199108137,-0.11899793,-0.13172511,0.09413287,0.01125594,0.00046055,-0.00188980,0.94143596,0.11609781,0.31513923,0.03011479
1759199108148,0.20413300,-0.22977304,0.11354124,0.01952534,0.02019206,-0.04026197,0.94139377,0.11620227,0.31524726,0.02989939
1759199108159,-0.03388161,-0.11084088,0.07003850,-0.00874384,0.01251055,-0.01358096,0.94137889,0.11615375,0.31531669,0.02982401
1759199108170,0.00011354,-0.04267991,0.07791007,0.00695140,0.02883308,-0.02285075,0.94132355,0.11619302,0.31547960,0.02969491
1759199108181,-0.01607982,0.35475148,-0.02404375,0.01666785,0.01386727,-0.02514899,0.94129072,0.11628553,0.31555656,0.02955533
1759199108193,0.01112731,0.16196414,-0.03356380,0.01006177,-0.00766142,0.00822706,0.94129674,0.11634238,0.31551327,0.02960181
1759199108204,0.03220863,-0.06745141,-0.05438124,0.02538327,-0.00088883,0.01065654,0.94127879,0.11648579,0.31550825,0.02966202
1759199108215,0.01069335,-0.02614923,-0.03264567,0.04254185,-0.01267326,-0.00137015,0.94127341,0.11671977,0.31543855,0.02965449
1759199108226,0.09256206,0.04293328,0.04663092,0.00506160,-0.01679218,0.00131101,0.94130117,0.11674812,0.31534451,0.02966183
1759199108237,0.01968028,-0.14406570,0.06269806,-0.00076530,-0.02720527,-0.00284358,0.94135369,0.11674379,0.31519080,0.02964576
1759199108248,-0.28051480,-0.05413486,-0.01104363,-0.01343368,-0.01765339,-0.00731607,0.94139623,0.11667058,0.31509459,0.02960589
1759199108260,-0.11653302,-0.02148921,0.01793310,0.00627785,-0.00318667,0.00652021,0.94139670,0.11670574,0.31507675,0.02964240
1759199108271,-0.08457930,0.12900718,0.04597217,0.01711067,-0.00982689,0.01182053,0.94140114,0.11680155,0.31502172,0.02970860
1759199108282,0.04320191,0.22564166,0.01940890,0.02390911,0.01626487,0.01031754,0.94135265,0.11693425,0.31511199,0.02976586
1759199108293,0.13822152,0.14224972,-0.06972184,0.02987345,0.03807670,-0.00843939,0.94126194,0.11710154,0.31532521,0.02971860
1759199108304,-0.12126890,-0.09613388,0.01119364,0.07757088,-0.02811903,0.04151866,0.94125301,0.11754370,0.31516494,0.02995525
1759199108315,0.19681545,0.24450695,0.04620289,0.00602292,0.02367125,-0.01263710,0.94120748,0.11757682,0.31529513,0.02988575
1759199108326,-0.10541648,-0.26994500,-0.08263371,0.04081677,-0.04176956,0.04816823,0.94124789,0.11780131,0.31506540,0.03015068
1759199108338,0.05552514,-0.12710221,-0.12837867,0.01609474,-0.00108288,0.00253429,0.94123818,0.11789144,0.31505933,0.03016487
1759199108349,-0.00005418,-0.15409131,-0.13037557,-0.00433124,-0.00262016,0.00038189,0.94124613,0.11786697,0.31504453,0.03016703
1759199108360,0.03218904,-0.06918202,-0.00136010,-0.02254723,-0.00930759,0.00547379,0.94127782,0.11774296,0.31499334,0.03019713
1759199108371,-0.00827650,-0.07736543,0.02287485,-0.01067656,-0.01216733,0.02170548,0.94130418,0.11768317,0.31492520,0.03031868
1759199108382,0.14159904,0.16298145,0.02043208,-0.02988369,-0.01976046,0.01042013,0.94136022,0.11751583,0.31481454,0.03037703
1759199108393,0.01413284,-0.03675748,-0.13213146,0.00525031,-0.03257314,0.01560527,0.94141423,0.11754497,0.31463376,0.03046364
1759199108405,0.05441705,-0.19236246,-0.14012967,0.02895674,-0.00979092,0.02233324,0.94140823,0.11770712,0.31457893,0.03058871
1759199108416,-0.00507953,0.15224981,0.10051399,-0.08391795,-0.05863034,0.01853136,0.94157167,0.11724138,0.31425353,0.03069156
1759199108427,-0.14416187,-0.37782021,-0.25554869,-0.00226051,0.01246318,-0.07112940,0.94156293,0.11722883,0.31432270,0.03029679
1759199108438,-0.02362553,0.00949473,0.15828331,-0.03463876,0.02251915,0.01633629,0.94154200,0.11703486,0.31444881,0.03038827
1759199108452,-0.02988116,0.23105414,0.17756560,-0.03223061,0.03155966,-0.00567016,0.94149908,0.11681730,0.31466184,0.03035000
1759199108460,-0.21727166,0.18137014,0.03065121,-0.02002476,0.04604108,0.00459770,0.94144294,0.11673119,0.31485981,0.03036977
1759199108471,-0.06406342,0.14294390,-0.16015562,0.02249962,0.03526865,0.00316580,0.94136286,0.11685382,0.31505203,0.03038702
1759199108482,0.00575865,-0.02184885,-0.14810422,0.00767530,0.02956740,0.00159997,0.94130180,0.11689680,0.31521761,0.03039598
1759199108493,0.08630448,-0.23136045,0.07685271,0.00922022,0.01736946,0.01401212,0.94126064,0.11694797,0.31531401,0.03047375
1759199108505,0.02257099,0.03711682,0.09646543,-0.01146295,0.00812517,-0.00561285,0.94125417,0.11688148,0.31536113,0.03044120
1759199108516,-0.04773573,0.01881059,0.01450222,-0.01469628,0.02661637,-0.01553805,0.94121856,0.11680212,0.31550486,0.03035729
1759199108527,-0.02938870,0.00870105,0.03565077,0.00923348,0.03258122,-0.01304212,0.94115390,0.11685337,0.31568569,0.03028491
1759199108538,0.00473452,0.02961859,0.04117344,0.02777320,0.04404562,-0.00472943,0.94105266,0.11700890,0.31593234,0.03025842
1759199108549,-0.12069180,0.06628546,0.11487104,0.04291189,0.02493450,0.01008687,0.94097404,0.11724921,0.31607197,0.03031491
1759199108561,-0.03472548,-0.10041314,-0.09382022,0.06019352,0.04342111,0.03674561,0.94084127,0.11759231,0.31631948,0.03052436
1759199108572,0.01513507,0.03921358,-0.11328368,0.05849073,0.00894537,0.01930087,0.94077882,0.11792571,0.31637046,0.03063437
1759199108583,0.11420096,0.00894345,-0.06386540,0.05020275,0.00982999,-0.00433567,0.94072487,0.11821186,0.31642649,0.03060966
1759199108594,0.14765005,0.18606791,0.14033269,-0.02504744,0.02884763,-0.02487428,0.94069438,0.11807911,0.31657939,0.03047783
1759199108606,0.04650033,0.04541318,0.10002905,-0.03085085,-0.00508465,-0.01043093,0.94073078,0.11788938,0.31654812,0.03041368
1759199108616,0.16008053,0.06256462,-0.12118741,0.04718390,0.01515379,-0.01382409,0.94068109,0.11811114,0.31661934,0.03034870
1759199108627,-0.06307742,-0.01882369,-0.08631428,0.02497333,-0.02180381,0.00037701,0.94070496,0.11825349,0.31649506,0.03035085
1759199108639,-0.05144548,-0.03950500,0.01397848,0.01141426,-0.01319878,0.01815837,0.94071898,0.11831969,0.31641850,0.03045617
1759199108650,0.02769063,-0.01862973,0.10583062,-0.01606465,0.01169108,0.03281955,0.94070230,0.11822973,0.31648397,0.03063996
1759199108661,-0.17469256,-0.09625243,0.02110330,-0.03373628,0.00715004,-0.00433828,0.94071285,0.11804924,0.31652223,0.03061675
1759199108673,0.07894564,-0.04648662,-0.03023450,-0.06308720,0.02505359,-0.02927832,0.94071537,0.11767387,0.31667130,0.03044254
1759199108683,0.15631796,-0.05304873,0.03469723,-0.04608907,0.02978093,-0.00840917,0.94069519,0.11744112,0.31682169,0.03040008
1759199108694,0.07057531,-0.07442818,0.05645323,-0.03808194,0.00983372,-0.00941416,0.94070529,0.11722025,0.31687873,0.03034548
1759199108708,-0.03071559,0.03917425,0.08645639,-0.02421992,0.00649182,0.00463273,0.94070998,0.11705313,0.31692352,0.03037744
1759199108716,-0.10720174,-0.27205731,0.03522044,0.01241499,0.03532281,0.00102169,0.94065875,0.11710031,0.31705775,0.03038132
1759199108727,-0.03446644,0.10719466,-0.13386583,-0.01184921,0.00428970,0.00415661,0.94065814,0.11703217,0.31708241,0.03040522
1759199108738,-0.02362340,0.02691097,-0.04017906,-0.01561020,-0.00385088,0.00156140,0.94067568,0.11694632,0.31706123,0.03041381
1759199108749,0.18353448,0.06322281,-0.06302626,-0.00298909,-0.02392068,0.00022028,0.94072286,0.11692958,0.31692728,0.03041505
1759199108760,0.17116631,0.05825045,-0.07933201,0.00063618,-0.03419217,0.01459936,0.94078371,0.11693311,0.31673751,0.03049607
1759199108772,-0.04039327,-0.15870283,0.01019999,0.01429987,-0.03669927,0.00441848,0.94084212,0.11701319,0.31653199,0.03052082
1759199108783,-0.01487576,-0.01595776,0.19784787,-0.02512531,-0.01284470,0.00166932,0.94088313,0.11687374,0.31646071,0.03053008
1759199108794,-0.19322657,0.05254562,0.01058692,-0.00558693,-0.01823406,-0.01584395,0.94092460,0.11684218,0.31635768,0.03044056
1759199108806,0.00512100,0.05449301,-0.04808886,0.00349904,-0.01492843,0.01135273,0.94094926,0.11686265,0.31627035,0.03050698
1759199108816,0.06127715,-0.05325875,-0.04544439,0.00583562,-0.01186974,0.02682074,0.94096194,0.11689358,0.31620744,0.03064913
1759199108828,-0.04133932,-0.05654907,0.07928076,-0.01557244,-0.03041833,0.03886156,0.94102288,0.11680637,0.31603710,0.03086675
1759199108839,0.12041440,-0.08766087,-0.02896666,-0.01706974,-0.02219412,0.01230299,0.94107330,0.11671249,0.31591503,0.03093442
1759199108850,-0.12562148,0.02872167,0.08774246,-0.03544100,-0.03770027,0.00298616,0.94117072,0.11650870,0.31569826,0.03095159
1759199108861,0.00874983,0.01128854,0.01416274,-0.03321705,-0.03576179,0.01289833,0.94125772,0.11632435,0.31549978,0.03102317
1759199108872,-0.08044918,-0.01949766,0.00690639,-0.03699210,-0.01332332,0.00185003,0.94130707,0.11612089,0.31542650,0.03103335
1759199108884,0.03380226,0.09924547,-0.13576727,-0.02892586,-0.01607654,-0.00437370,0.94135937,0.11595457,0.31533406,0.03100820
1759199108895,-0.00525003,0.09679823,-0.09081924,0.00232285,-0.00610363,0.00418395,0.94136877,0.11596804,0.31529866,0.03103247
1759199108907,-0.04743583,0.08872315,0.02039888,-0.00629727,-0.00391815,0.00895821,0.94137907,0.11593183,0.31527613,0.03108398
1759199108917,-0.08075134,0.07542579,0.03937794,0.00609152,0.01053198,0.00436081,0.94135696,0.11596229,0.31532879,0.03110578
1759199108928,0.11425196,0.06821929,-0.00377868,0.01039158,0.00651741,-0.00488067,0.94133830,0.11602100,0.31536561,0.03107820
1759199108939,0.03198851,0.02679005,0.02314241,0.01442882,0.00097087,-0.01833647,0.94133006,0.11610036,0.31537095,0.03097735
1759199108950,-0.23250465,-0.03691622,0.05025217,0.01632063,0.00801511,-0.02594503,0.94130812,0.11619339,0.31541664,0.03082947
1759199108962,-0.08985694,-0.03189452,-0.02183402,0.02378380,0.00561520,-0.03009833,0.94128568,0.11633252,0.31544949,0.03065339
1759199108973,-0.03010903,0.03783729,-0.09748352,0.00861271,0.02302407,-0.01665031,0.94124242,0.11637774,0.31557036,0.03056598
1759199108984,0.17036234,-0.19443735,-0.06374333,0.04428560,0.02323782,-0.02694957,0.94117297,0.11662574,0.31570049,0.03041506
1759199108995,0.07290161,0.08020991,0.10959105,0.00007253,0.05285490,0.00249360,0.94107402,0.11662614,0.31599384,0.03042890
1759199109006,0.02468287,0.00389763,0.14690719,0.01732979,0.01262699,-0.00758246,0.94103962,0.11672319,0.31606455,0.03038644
1759199109017,-0.04466547,0.03112328,-0.10394225,0.07114677,0.04465349,-0.03445580,0.94091230,0.11712161,0.31631461,0.03019349
1759199109029,-0.05024436,0.10133234,-0.05015203,0.03147079,0.02945090,0.00894898,0.94082974,0.11730571,0.31648690,0.03024584
1759199109040,-0.06142226,0.04051306,0.02623647,0.03325142,0.02357721,-0.01712766,0.94076400,0.11749525,0.31662129,0.03014821
1759199109051,0.14383432,-0.16351789,0.24440667,0.04470582,0.03311070,-0.01172745,0.94067729,0.11773219,0.31679677,0.03008605
1759199109062,0.05748553,-0.02154894,0.10849523,0.02671670,0.03146891,0.00170190,0.94060028,0.11787913,0.31696985,0.03009541
1759199109074,0.06272027,0.07232524,0.04429706,0.03348253,0.01414376,-0.01860019,0.94055130,0.11807500,0.31705259,0.02998660
1759199109085,-0.22090775,0.29405791,-0.20071186,0.03731028,0.00016470,-0.02056939,0.94052943,0.11827461,0.31705348,0.02987656
1759199109096,0.06934012,-0.01801763,-0.14487508,0.05652452,0.00852406,-0.00092137,0.94047264,0.11859680,0.31710206,0.02987131
1759199109107,-0.19382905,0.02174168,-0.03411977,0.06795653,-0.00111763,-0.02942452,0.94043300,0.11896716,0.31709597,0.02971094
1759199109118,0.04155292,0.00166526,-0.07347069,0.07303930,0.02656591,-0.02355388,0.94033514,0.11937618,0.31724474,0.02957904
1759199109129,-0.06217974,0.06640463,0.15448076,0.08323745,0.02213631,-0.02150513,0.94024302,0.11981734,0.31736206,0.02946506
1759199109140,0.10646052,-0.02184375,0.15918396,0.04906783,0.02096281,-0.00586764,0.94016541,0.12010684,0.31748574,0.02943044
1759199109152,-0.00831768,-0.08334392,-0.08711020,0.03899798,0.02567964,-0.00787759,0.94008895,0.12032913,0.31763212,0.02938554
1759199109162,-0.13702394,-0.07066466,0.00156967,0.05620672,0.03381771,-0.02119684,0.93999819,0.12061297,0.31780290,0.02927850
1759199109173,0.01171916,-0.02432278,-0.08387949,0.03743500,0.03428577,-0.00173737,0.93990663,0.12082261,0.31799490,0.02926877
1759199109184,0.09337386,0.10049095,0.20599620,0.01930626,0.03353324,0.00388045,0.93982710,0.12093266,0.31818604,0.02929089
1759199109195,0.01678429,-0.07545669,0.03114489,0.02659423,0.02066280,0.00712026,0.93976910,0.12107760,0.31829865,0.02932969
1759199109207,0.13263533,-0.24379526,-0.01251233,0.01477376,0.01960321,0.00563951,0.93971808,0.12116402,0.31841333,0.02936268
1759199109219,-0.00820114,-0.15553275,-0.06078532,0.00002437,0.02944934,-0.05518358,0.93967053,0.12116416,0.31858266,0.02904538
1759199109229,0.10818383,0.06038405,0.19067034,-0.00856761,0.06255003,-0.04519551,0.93956942,0.12111790,0.31892043,0.02880132
1759199109241,-0.12198908,0.07466281,0.04584486,0.00244381,0.01393906,-0.00965387,0.93954067,0.12113268,0.31900476,0.02874292
1759199109251,0.47739665,0.21094464,0.13142921,0.05118393,0.06167442,-0.05014352,0.93941182,0.12138604,0.31931005,0.02849471
1759199109263,-0.17375446,-0.06672494,-0.11158116,0.08381296,-0.00790971,0.03085921,0.93935994,0.12186378,0.31926497,0.02867060
1759199109275,0.00662274,-0.07750129,-0.03206255,0.03348256,0.02174241,0.02297669,0.93928529,0.12206467,0.31939542,0.02880846
1759199109286,-0.11464137,0.00871135,-0.01297199,0.00046863,0.00987548,0.00875206,0.93926464,0.12206730,0.31945072,0.02885747
1759199109295,0.09729096,-0.01903480,0.22343486,-0.01239333,-0.02730908,-0.03033909,0.93932081,0.12200843,0.31932101,0.02871336
1759199109307,0.04434536,-0.10145764,-0.12002782,0.01927947,-0.00243007,-0.02905155,0.93931636,0.12211639,0.31930740,0.02855068
1759199109318,-0.01853142,0.06557271,-0.04525943,0.01976050,-0.02499535,-0.04024921,0.93935637,0.12222705,0.31916742,0.02832528
1759199109329,-0.09948707,0.21208977,0.03363028,0.04785964,0.00096641,0.00091442,0.93931979,0.12249267,0.31917279,0.02833035
1759199109340,-0.07421569,0.07201210,-0.03082613,0.08171046,-0.00879135,0.00426125,0.93927562,0.12295434,0.31912312,0.02835443
1759199109352,0.11574929,-0.36121549,-0.19351542,0.07478528,-0.01414012,0.00032840,0.93924680,0.12338435,0.31904181,0.02835632
1759199109363,0.07169515,0.00057828,-0.08607446,0.08380109,0.01891737,-0.01080198,0.93914914,0.12386202,0.31914964,0.02829475
1759199109375,0.04916809,0.03556694,0.16108822,0.03749583,0.00103856,0.02369725,0.93911394,0.12408137,0.31915571,0.02843338
1759199109385,-0.13196958,0.40527970,0.39796038,0.02639413,-0.00889694,0.00872627,0.93911010,0.12421994,0.31910901,0.02847919
1759199109396,0.07558651,-0.26084274,-0.08611821,0.02979560,-0.02305420,0.01175758,0.93912935,0.12438232,0.31898336,0.02854327
1759199109408,-0.05300850,-0.22184213,-0.25976710,0.02157297,0.01051754,-0.01619278,0.93909549,0.12450529,0.31904331,0.02845097
1759199109419,-0.05793968,-0.07977598,-0.07334765,-0.02167058,0.03756260,-0.00988324,0.93904320,0.12438718,0.31924803,0.02839711
1759199109431,-0.09825260,0.05474745,0.02699807,-0.00221613,0.01422845,-0.00950120,0.93901723,0.12437367,0.31933482,0.02833915
1759199109441,-0.02680409,0.04196327,0.05379565,-0.03211897,0.03382880,-0.00991307,0.93898105,0.12420665,0.31951073,0.02828760
1759199109453,0.20372214,0.24410734,-0.18895868,-0.01893411,0.02610248,0.01804537,0.93894054,0.12409588,0.31966343,0.02839317
1759199109463,0.10680936,-0.06174113,-0.00128903,-0.01764054,0.03047370,0.01194085,0.93889765,0.12400592,0.31981884,0.02845406
1759199109474,-0.05363072,-0.08564714,-0.08682671,-0.00360681,0.01931065,-0.02697068,0.93886778,0.12398554,0.31992795,0.02830168
1759199109486,-0.14472497,-0.09538200,0.08913079,-0.01007530,0.01108182,-0.00403126,0.93885395,0.12392559,0.31999389,0.02827769
1759199109497,-0.05024814,-0.01506306,-0.05424999,-0.01427217,0.03745255,-0.01369516,0.93879686,0.12384781,0.32019800,0.02820306
1759199109508,-0.04414787,-0.09080415,-0.00652184,-0.01437169,0.05460747,-0.02123067,0.93870910,0.12376948,0.32049561,0.02808735
1759199109519,-0.02409613,0.04946990,0.15279905,-0.02300688,0.04222044,-0.02984096,0.93865294,0.12364639,0.32072149,0.02792770
1759199109530,0.04769409,0.06521745,0.02674466,0.00378532,0.03783864,-0.00388292,0.93857836,0.12366759,0.32093339,0.02790595
1759199109541,-0.08009792,-0.00493036,0.01147005,0.01266153,0.03875259,-0.00364586,0.93849391,0.12373976,0.32115428,0.02788517
1759199109552,0.27414192,-0.21150668,-0.14808372,0.02756486,0.03470832,-0.00240052,0.93840972,0.12388999,0.32134344,0.02787209
1759199109565,-0.01162216,-0.05984160,-0.03958757,0.01174886,0.03400569,-0.01631318,0.93832897,0.12396460,0.32155938,0.02776850
1759199109574,-0.02723402,-0.21239103,0.12563427,-0.00376570,0.07237663,-0.01300918,0.93821528,0.12394671,0.32190316,0.02770671
1759199109586,-0.26809428,0.22567467,0.09596795,-0.00418116,0.04985334,-0.00174878,0.93811787,0.12392204,0.32219730,0.02769639
1759199109597,-0.05764841,0.03834665,0.03136710,0.03914910,0.05291483,-0.00665934,0.93799743,0.12412562,0.32247246,0.02766176
1759199109608,-0.00972260,0.09759149,-0.10175832,0.04222469,0.04125717,0.01154151,0.93788473,0.12436207,0.32270350,0.02772639
1759199109620,-0.04184397,-0.02946812,-0.05851964,0.02339243,0.04311503,0.00054977,0.93777876,0.12450009,0.32295788,0.02772964
1759199109631,0.01990141,-0.05530601,0.05688120,-0.00559366,0.06991617,0.01897877,0.93764843,0.12446960,0.32333892,0.02783307
1759199109642,0.11546442,0.03688373,0.06111634,-0.03839376,0.05135432,0.01713414,0.93757553,0.12425652,0.32362393,0.02792817
1759199109652,-0.17375712,0.32864096,0.43126446,-0.01427328,0.01175341,-0.01370980,0.93756613,0.12418016,0.32368682,0.02785482
1759199109664,0.00548438,0.13704945,-0.02473853,-0.00980887,0.00621721,-0.01833365,0.93756443,0.12412523,0.32372163,0.02775215
1759199109675,0.01631041,-0.05234042,-0.09423570,-0.03162405,0.01721815,-0.00266233,0.93755466,0.12394181,0.32382150,0.02773671
1759199109686,0.07220920,-0.55609313,-0.26848193,-0.02820854,0.05076146,0.01639872,0.93747887,0.12379230,0.32409053,0.02782362
1759199109697,-0.07417750,-0.00378939,-0.06576177,-0.05170107,0.06846297,-0.03120463,0.93738562,0.12348985,0.32449104,0.02764108
1759199109709,-0.11337459,0.16440556,0.03693047,-0.04803033,0.05389346,-0.03379257,0.93732262,0.12322328,0.32479015,0.02745353
1759199109719,-0.05562385,-0.02262661,-0.08703563,0.01138957,0.09815387,-0.06137639,0.93714373,0.12328365,0.32531037,0.02712823
1759199109730,-0.12200454,0.07385398,0.26392215,-0.03866312,0.10271984,0.00669782,0.93697277,0.12306907,0.32588046,0.02716540
1759199109742,0.15836660,0.18665343,-0.00158664,-0.04156972,0.06654165,0.04123666,0.93686502,0.12283212,0.32625975,0.02740045
1759199109753,0.01988369,-0.05745634,-0.48307219,0.07317262,0.04820592,0.07689395,0.93670301,0.12324554,0.32653211,0.02783490
1759199109764,0.20557430,-0.14046300,-0.02772978,0.05686020,0.06512912,0.04804543,0.93652738,0.12356112,0.32689358,0.02810156
1759199109776,0.15885622,0.04393158,0.15189508,-0.06422834,-0.02333387,0.01616725,0.93662409,0.12317575,0.32675358,0.02819856
1759199109786,0.02807216,-0.27118280,0.27935380,-0.05948675,-0.01830615,-0.01660416,0.93669904,0.12287237,0.32666021,0.02811388
1759199109798,0.07547484,-0.18887176,-0.29476485,0.00053030,0.03461598,-0.01933111,0.93663080,0.12287550,0.32686445,0.02799983
1759199109809,-0.23765477,0.19162018,-0.00643486,-0.08601627,-0.05341921,-0.02135378,0.93680177,0.12239380,0.32656530,0.02788024
1759199109820,0.14424654,-0.01533261,-0.17045039,0.01010886,0.00924290,0.00740900,0.93677580,0.12244890,0.32661567,0.02792062
1759199109832,-0.02372717,0.04097450,0.02611188,0.00834171,-0.01863253,-0.00690448,0.93680778,0.12249645,0.32650947,0.02788127
1759199109843,0.08856713,0.26096558,0.20989976,-0.00235789,-0.01081559,0.00994990,0.93682877,0.12248336,0.32644944,0.02793649
1759199109854,0.14428736,0.04957122,-0.20307186,0.00987704,-0.00706556,0.01940051,0.93683208,0.12253867,0.32640988,0.02804513
1759199109866,0.04907922,0.04828094,-0.11628967,0.01176499,-0.00966712,0.01186162,0.93684091,0.12260926,0.32635187,0.02811630
1759199109874,-0.03270626,-0.16102629,-0.19660359,-0.00079056,-0.02126131,0.00377257,0.93687271,0.12260586,0.32626045,0.02813252
1759199109887,-0.11893653,-0.12505341,0.16211849,-0.00129802,-0.00051440,-0.00878800,0.93687664,0.12259755,0.32625716,0.02807628
1759199109898,-0.08058048,-0.10148414,0.00801653,-0.01168667,-0.00224718,-0.01079557,0.93689086,0.12253445,0.32624502,0.02801799
1759199109909,-0.04952271,0.00573717,0.09716236,-0.01589172,0.01142235,-0.00374736,0.93688085,0.12244545,0.32630899,0.02799700
1759199109921,-0.08057993,0.03765176,-0.09211219,0.01536692,0.02502364,-0.01060000,0.93682203,0.12253227,0.32645037,0.02793711
1759199109930,-0.03315521,0.25903928,0.01507476,0.01111746,0.03199681,-0.00124357,0.93676295,0.12258453,0.32660076,0.02793127
1759199109943,0.07029791,0.06984016,0.07456396,0.00965865,0.02804254,0.00891268,0.93668943,0.12264731,0.32678303,0.02798920
1759199109954,-0.12990422,-0.00223061,-0.20053599,0.02953347,0.02204798,-0.00931254,0.93662906,0.12280531,0.32690099,0.02793938
1759199109965,-0.04978531,0.04260457,-0.03423394,0.02702759,0.01917076,-0.02179310,0.93657488,0.12295802,0.32700930,0.02781624
1759199109978,-0.00838558,-0.01798647,0.02989220,0.02633116,0.02447174,-0.00311967,0.93650042,0.12312259,0.32716225,0.02779675
1759199109988,-0.07494023,-0.11204107,0.13706205,0.03061158,0.04869413,-0.00871090,0.93639544,0.12327718,0.32740816,0.02775276
1759199109997,-0.15949944,-0.07933443,0.11930765,0.04529042,0.07128540,-0.01520346,0.93625839,0.12348098,0.32772894,0.02768434
1759199110010,0.15340147,0.01902748,0.03288632,0.01943744,0.05959859,0.00446015,0.93609808,0.12361316,0.32813421,0.02771467
1759199110020,-0.31217622,0.00796971,0.08254017,0.02949191,0.06415653,-0.01353557,0.93596679,0.12376209,0.32845820,0.02764632
1759199110032,0.15378593,-0.01301029,0.05559801,-0.00279106,0.08910966,0.01480038,0.93578486,0.12374590,0.32897504,0.02773216
