UnixTime(ms),Ax,Ay,Az,Gx,Gy,Gz,QuatW,QuatX,QuatY,QuatZ
1761615243904,0.00000000,0.00000000,0.00000000,0.00000000,0.00000000,0.00000000,0.98029941,0.18529517,0.05308379,0.04313802
1761615243915,-0.04063623,0.02902588,-0.02322070,-0.00836464,0.01177827,-0.00437131,0.98030570,0.18524874,0.05314915,0.04311376
1761615243926,0.04297605,0.13129797,0.01555020,0.00557634,0.00491364,-0.00146964,0.98029880,0.18527941,0.05317618,0.04310567
1761615243937,-0.06726894,0.20847346,0.11970239,0.00708787,-0.00803650,-0.01020369,0.98029622,0.18531946,0.05313077,0.04304802
1761615243949,0.05262973,-0.04660608,0.00861183,0.00789755,-0.00422756,-0.01232274,0.98029217,0.18536368,0.05310710,0.04297901
1761615243960,0.07792699,-0.18080012,-0.15205267,-0.00705732,-0.01047888,-0.00307151,0.98030358,0.18532416,0.05304842,0.04296181
1761615243971,0.00190066,-0.24257152,-0.20527110,-0.00951731,-0.01375206,0.00129873,0.98031750,0.18527087,0.05297141,0.04296909
1761615243982,0.03801317,-0.03777558,0.06082107,-0.01772678,-0.00950140,0.01359738,0.98033579,0.18517160,0.05291820,0.04304523
1761615243993,-0.02280790,0.07317535,-0.02280790,-0.02666003,-0.00662710,0.01292603,0.98036280,0.18502230,0.05288109,0.04311762
1761615244005,-0.01330461,-0.04799162,-0.01520527,-0.02993368,-0.01171434,0.00660084,0.98039633,0.18485467,0.05281549,0.04315458
1761615244016,0.06842370,-0.10002214,-0.00000000,-0.03450967,-0.00138240,-0.00195981,0.98043364,0.18466142,0.05280774,0.04314361
1761615244027,0.15991878,-0.24939580,-0.08707764,-0.04233768,-0.01029577,-0.00247604,0.98048155,0.18442644,0.05275060,0.04312987
1761615244039,0.01162354,-0.06285288,0.00524825,-0.03635888,-0.00973456,-0.00996005,0.98052560,0.18422102,0.05269560,0.04307359
1761615244049,0.00558256,0.03181502,-0.00534282,-0.02315933,-0.01187310,-0.01230607,0.98055628,0.18409248,0.05262971,0.04300529
1761615244061,-0.12416492,0.24837857,0.08945721,-0.03117370,-0.00632471,-0.00005454,0.98059188,0.18391323,0.05259334,0.04300498
1761615244072,-0.02299738,0.07191662,0.05874292,-0.00587774,-0.00175009,-0.01095605,0.98060085,0.18388179,0.05258398,0.04294636
1761615244083,0.01942203,0.10486456,0.02289461,-0.02131845,-0.00055270,0.00368361,0.98062268,0.18376134,0.05258085,0.04296718
1761615244094,-0.03630421,-0.00547310,0.07525887,-0.01392128,-0.00830075,-0.00228687,0.98064003,0.18368477,0.05253520,0.04295460
1761615244105,0.00733287,0.04500509,0.01636317,-0.00282170,-0.00118278,-0.00354785,0.98064425,0.18366883,0.05252852,0.04293455
1761615244116,0.00667852,0.00512662,0.02253573,-0.00433156,-0.01028205,-0.00458399,0.98065292,0.18364479,0.05247145,0.04290911
1761615244127,-0.19157081,0.47602443,0.30186915,-0.00129428,-0.00457631,-0.01036238,0.98065814,0.18363760,0.05244605,0.04285160
1761615244138,-0.12771387,0.15577222,0.04644141,0.00113036,-0.01421597,-0.01069931,0.98066377,0.18364388,0.05236715,0.04279222
1761615244150,0.04450635,0.01427106,0.02322070,0.00518490,-0.01111401,-0.00196256,0.98066215,0.18367265,0.05230547,0.04278133
1761615244161,0.15520209,-0.35231087,-0.11290969,0.00490459,-0.01143212,-0.00344958,0.98066124,0.18370086,0.05223974,0.04276149
1761615244173,0.05276595,-0.08708541,-0.12180080,0.01924438,-0.00341238,0.00467823,0.98063947,0.18381632,0.05221926,0.04278956
1761615244183,-0.05749936,0.07245490,0.12036223,0.01473478,0.00395865,0.00811410,0.98062333,0.18388779,0.05223846,0.04282892
1761615244194,-0.09172218,-0.08022563,0.04512000,0.00953150,0.00156384,0.00196287,0.98061227,0.18394164,0.05224730,0.04284001
1761615244205,-0.01616545,0.00486975,-0.04178357,0.00838244,0.00906090,0.00951062,0.98059856,0.18398816,0.05229759,0.04289279
1761615244216,-0.09835479,0.03522211,-0.00191778,0.00900821,0.01027145,0.00930283,0.98058374,0.18403861,0.05235511,0.04294489
1761615244228,0.08982093,-0.20058867,-0.01567512,0.03615945,0.03042363,0.01125211,0.98053161,0.18425014,0.05253308,0.04301071
1761615244239,-0.03901461,-0.08330651,-0.03075604,0.04083833,0.02017112,0.00586875,0.98048336,0.18446863,0.05264100,0.04304211
1761615244250,0.03676749,-0.01009056,-0.00132621,0.00315013,0.02061721,0.01317791,0.98047048,0.18448642,0.05275749,0.04311656
1761615244261,-0.07452651,0.22942099,-0.05844943,0.02944565,0.01570151,-0.00503634,0.98043656,0.18464837,0.05284385,0.04308886
1761615244273,-0.00351797,0.23686740,0.05466859,0.04515553,0.02484944,-0.01144550,0.98038140,0.18491479,0.05299046,0.04302133
1761615244283,-0.01693111,0.06153239,-0.05462139,0.03873796,0.03398065,-0.02118840,0.98033906,0.18511429,0.05316546,0.04291221
1761615244295,-0.01351215,-0.16823459,-0.02618417,0.01290042,0.01467891,-0.01183997,0.98032345,0.18518847,0.05324986,0.04284413
1761615244300,-0.05957398,0.30659130,0.16131743,0.00141232,0.01378861,0.00069839,0.98032073,0.18519214,0.05328571,0.04284595
1761615244306,0.14323630,-0.28643731,-0.05757676,0.02655913,0.02301006,0.00466734,0.98030228,0.18526784,0.05335129,0.04285925
1761615244315,0.01245601,0.01669694,-0.06428349,0.01824467,0.01858717,0.00817698,0.98027866,0.18535723,0.05344237,0.04289932
1761615244326,-0.04521719,-0.00639014,0.05268099,0.01844791,0.01902866,0.01151149,0.98025074,0.18545962,0.05354798,0.04296321
1761615244337,0.03523514,0.02206716,0.16299640,0.00992142,0.01586948,0.02032005,0.98023092,0.18551369,0.05363447,0.04307395
1761615244348,0.04310484,-0.05794174,-0.08376846,-0.00460282,0.00329174,0.01747841,0.98023048,0.18548792,0.05365290,0.04317183
1761615244360,0.03413996,-0.17001521,-0.12197781,0.00580095,0.00335444,0.00220603,0.98022283,0.18552011,0.05367152,0.04318408
1761615244371,-0.01102724,-0.14059735,-0.06917711,-0.00106270,0.00299272,-0.00037277,0.98022313,0.18551416,0.05368828,0.04318199
1761615244382,-0.06600845,-0.04408773,0.01604470,-0.01348016,0.00037820,-0.00598791,0.98023849,0.18544002,0.05369036,0.04314905
1761615244393,0.02681656,-0.02797423,-0.00815555,-0.02383903,0.00442450,0.01036034,0.98025983,0.18530652,0.05371513,0.04320707
1761615244404,0.00497587,-0.08300883,-0.07719502,-0.00847108,0.01293172,0.01944998,0.98026001,0.18525951,0.05378690,0.04331502
1761615244415,-0.05998682,-0.01015906,-0.02322070,-0.00312481,0.01724117,0.00608609,0.98025654,0.18524216,0.05388259,0.04334880
1761615244426,0.15286964,-0.14367811,0.10836329,-0.02877064,0.01750087,0.01703716,0.98027717,0.18508249,0.05397972,0.04344335
1761615244438,0.04936575,-0.18246320,-0.06109503,-0.00037604,0.02007772,0.00988843,0.98026892,0.18508038,0.05409216,0.04349873
1761615244449,0.02387035,0.05971474,0.01517750,-0.03088936,0.02306594,0.01191792,0.98029247,0.18489968,0.05422709,0.04356845
1761615244460,-0.09836724,0.21810330,0.03282605,-0.05074582,0.01955756,-0.01014971,0.98033936,0.18463326,0.05432977,0.04351516
1761615244471,0.05179341,0.08254575,-0.07956669,0.00543624,0.01302049,0.00125339,0.98032945,0.18466316,0.05440138,0.04352206
1761615244482,-0.05646853,0.09428134,-0.03813825,-0.00574458,0.00294835,-0.00795439,0.98033651,0.18463128,0.05441775,0.04347791
1761615244493,0.12727015,-0.01737853,0.10631078,-0.02833200,-0.00114635,-0.03126706,0.98037482,0.18447120,0.05441127,0.04330125
1761615244504,0.06238595,0.06855040,0.00831102,-0.03358656,-0.01582331,-0.01023331,0.98041649,0.18428816,0.05432503,0.04324548
1761615244515,0.06001895,0.17136004,0.10601837,-0.02649755,-0.01340226,-0.01788673,0.98045294,0.18413977,0.05424998,0.04314531
1761615244526,-0.18946298,0.42789417,-0.00663449,0.01298106,-0.03655780,-0.00752721,0.98045245,0.18421182,0.05404708,0.04310354
1761615244537,0.01671209,0.11642602,-0.01623265,0.00217615,0.00133380,0.01159618,0.98044689,0.18422400,0.05405455,0.04316848
1761615244549,-0.03801317,0.03777558,0.09123160,0.00829378,-0.01625766,0.02329962,0.98043742,0.18427045,0.05396351,0.04329895
1761615244560,-0.01928179,-0.23583243,0.00351857,0.00876230,-0.02060750,0.01613129,0.98043067,0.18431864,0.05385017,0.04338768
1761615244571,0.06382175,-0.19472627,-0.03272008,0.03335835,-0.00106702,0.00276037,0.98039550,0.18450378,0.05384425,0.04340300
1761615244582,-0.06966211,0.00072565,-0.03870117,0.03102611,-0.00367294,-0.00580620,0.98036562,0.18467597,0.05382386,0.04337077
1761615244593,-0.01741553,0.01499670,0.14706446,0.01400902,0.00635543,-0.00394499,0.98035000,0.18475372,0.05385913,0.04334888
1761615244604,-0.04837647,-0.07546729,-0.13158399,0.03052916,0.00562209,-0.00380132,0.98031728,0.18492316,0.05389034,0.04332778
1761615244615,0.03291050,0.12720926,0.09760137,0.03997462,0.03820406,-0.01659893,0.98026734,0.18514702,0.05410428,0.04323483
1761615244627,-0.15965530,-0.38155716,-0.12164213,0.02841986,0.00289929,-0.00396048,0.98023735,0.18530617,0.05412052,0.04321265
1761615244638,-0.00161854,-0.10097868,-0.02941528,0.03440082,0.01807875,-0.00691867,0.98019774,0.18549537,0.05421995,0.04317459
1761615244649,0.00371179,-0.03635052,-0.03947520,0.02271211,0.01031622,0.01116327,0.98016798,0.18562143,0.05427720,0.04323655
1761615244660,0.06823535,0.31528882,0.12123118,0.00620503,0.01227092,0.00291831,0.98015687,0.18565617,0.05434592,0.04325289
1761615244671,0.00953534,0.01245135,-0.09936453,0.01165596,-0.00406191,0.00191357,0.98014550,0.18572028,0.05432358,0.04326342
1761615244682,0.02727762,-0.07648596,0.02804146,0.00794001,0.00204164,0.00119247,0.98013606,0.18576514,0.05433512,0.04327015
1761615244693,0.08035053,0.00566708,-0.04456944,-0.00568500,-0.00212082,0.01037506,0.98014011,0.18573388,0.05432345,0.04332722
1761615244704,-0.10819929,-0.13092944,-0.06939131,0.00306043,-0.01916200,0.00021096,0.98014276,0.18575101,0.05421614,0.04332840
1761615244715,0.03764726,-0.04024317,0.06952389,-0.01332100,-0.01164864,0.00310880,0.98015957,0.18567708,0.05415149,0.04334565
1761615244726,-0.07773786,0.25366270,0.05720060,-0.01355152,-0.01809755,0.00642024,0.98017746,0.18560323,0.05405286,0.04338064
1761615244738,-0.03768186,0.21092294,0.03508371,-0.01420708,-0.01127445,0.00308590,0.98019523,0.18552367,0.05398973,0.04339792
1761615244749,-0.01916054,-0.03958880,0.02453378,-0.00804069,-0.00475895,0.01402803,0.98020168,0.18547904,0.05396331,0.04347578
1761615244760,0.00948617,-0.24990232,-0.04712263,-0.02217246,-0.00049994,0.01683125,0.98022114,0.18535488,0.05396051,0.04357003
1761615244771,0.00784390,-0.16557710,-0.10725754,-0.01745350,0.01236290,0.00709710,0.98023392,0.18525801,0.05402913,0.04360942
1761615244782,0.01594073,-0.07849653,0.00014201,-0.01490039,0.01497575,0.02176468,0.98023953,0.18517606,0.05411149,0.04372913
1761615244793,-0.01392664,0.12952986,-0.00027646,-0.00459294,0.02436733,0.01379417,0.98023340,0.18515034,0.05424795,0.04380638
1761615244805,-0.11410676,0.19474526,0.01403598,-0.00820580,0.00914783,-0.00637472,0.98024103,0.18510315,0.05430055,0.04376972
1761615244816,0.06711610,0.07575224,0.05104805,0.00251873,0.02332977,-0.01402382,0.98023486,0.18511675,0.05442653,0.04369399
1761615244827,0.10535319,-0.42440271,0.16039486,0.00289405,0.01680467,-0.00554370,0.98022801,0.18513282,0.05451980,0.04366323
1761615244838,0.03417138,-0.41951800,0.12830686,0.00097607,0.00435543,-0.01021592,0.98022817,0.18513818,0.05454375,0.04360704
1761615244849,0.05321843,-0.01650549,0.06952954,-0.00744579,0.00202746,-0.00761104,0.98023730,0.18509649,0.05455511,0.04356442
1761615244860,0.04341164,0.43630654,-0.14570573,0.00404234,-0.00035150,-0.00508372,0.98023438,0.18511933,0.05455312,0.04353569
1761615244871,-0.13424886,0.42178362,-0.07086470,0.00207533,-0.01168403,-0.00676920,0.98023745,0.18513074,0.05448886,0.04349846
1761615244882,0.05933594,0.05666643,-0.04067142,0.01434130,-0.01136342,0.00659376,0.98022429,0.18521034,0.05442579,0.04353506
1761615244893,0.06228954,0.04478669,-0.02201169,0.03504106,-0.00992382,0.00340465,0.98019006,0.18540306,0.05437121,0.04355378
1761615244905,-0.03962636,0.03211303,0.00933955,0.02731586,-0.02035260,-0.00086017,0.98016724,0.18555876,0.05425520,0.04354888
1761615244915,-0.00622232,-0.07416660,0.01396565,0.04675425,-0.02840641,0.00060007,0.98012701,0.18581591,0.05409897,0.04355218
1761615244927,-0.09192275,-0.05154672,-0.00317928,0.02713409,-0.01280880,0.00125879,0.98010183,0.18596786,0.05402724,0.04355923
1761615244938,-0.03821741,0.02298962,0.23379655,-0.00064553,-0.00827117,0.00511711,0.98010378,0.18596428,0.05398133,0.04358763
1761615244949,-0.05224658,-0.15069269,-0.20124610,0.02057037,-0.01780109,-0.00085344,0.98008776,0.18607844,0.05388254,0.04358289
1761615244960,0.04644141,-0.00338635,0.06192188,-0.01052268,-0.00804546,-0.00052370,0.98010143,0.18602004,0.05383788,0.04357999
1761615244974,0.03329694,-0.03529659,-0.10768461,0.00247593,0.00414056,0.00756418,0.98009404,0.18603775,0.05386749,0.04363407
1761615244983,-0.28487952,0.37165814,0.18315931,0.00588257,0.01732069,0.01431078,0.98008280,0.18606216,0.05393937,0.04369346
1761615244994,0.03079774,-0.11802401,-0.18399377,0.03173155,0.02546451,0.00179454,0.98004112,0.18623827,0.05408070,0.04370342
1761615245011,0.08098018,-0.11400435,-0.02920942,0.01173399,0.01233808,0.01101276,0.98001236,0.18633742,0.05418495,0.04379648
1761615245018,-0.27213288,0.05285315,-0.04502918,-0.00113489,0.02582510,0.00681773,0.98000705,0.18633345,0.05427534,0.04382034
1761615245027,0.22634578,-0.17666881,0.09343702,0.01709336,0.02001476,-0.01451400,0.97998960,0.18641379,0.05436941,0.04375212
1761615245038,0.17335341,-0.46995123,-0.10011316,0.03173388,0.00953737,-0.01852422,0.97995802,0.18658832,0.05442187,0.04365024
1761615245049,0.01952494,0.03882959,0.06856193,-0.00767312,-0.00533567,-0.02654246,0.97997447,0.18654535,0.05439199,0.04350160
1761615245061,0.04461236,0.21395740,-0.02328702,-0.00150972,-0.00999633,-0.01379040,0.97998290,0.18653660,0.05433401,0.04342162
1761615245071,-0.05787711,0.52217447,-0.03877986,-0.00057030,-0.00870017,-0.00666113,0.97998759,0.18653358,0.05428790,0.04338632
1761615245083,-0.20810415,-0.16888515,-0.09123160,0.00393551,-0.03002251,0.00063397,0.97999254,0.18655561,0.05411977,0.04338987
1761615245094,0.17117863,-0.16438338,0.04560072,-0.02202564,-0.01515095,0.01856709,0.98001566,0.18643447,0.05403644,0.04349198
1761615245105,0.04855318,-0.16166395,0.06925308,-0.03159538,-0.01637238,0.01412096,0.98005084,0.18625754,0.05394476,0.04357106
1761615245117,-0.07060312,-0.02198217,-0.06764654,-0.02293862,-0.02403767,0.00116334,0.98008461,0.18611991,0.05380053,0.04357804
1761615245129,-0.05047804,0.01044114,-0.00931440,-0.01136923,-0.02896147,-0.02026501,0.98011132,0.18605453,0.05363400,0.04346152
1761615245139,-0.05189556,0.01856654,0.02875719,-0.01170033,-0.00683498,0.00881265,0.98012333,0.18599077,0.05359675,0.04350955
1761615245150,-0.07238868,0.10638595,-0.01727088,-0.01638913,-0.00767638,0.01163597,0.98013944,0.18590309,0.05355568,0.04357180
1761615245161,0.03806646,-0.08026507,0.00973421,-0.00006345,0.01579868,0.00507315,0.98013341,0.18590273,0.05364415,0.04360021
1761615245173,-0.13438602,0.01210116,-0.00713525,-0.01045383,0.00589988,0.00881493,0.98014057,0.18584367,0.05367749,0.04365001
1761615245183,0.11233032,-0.06506466,0.07756058,-0.01211411,0.02395758,0.01355715,0.98014265,0.18577704,0.05380926,0.04372458
1761615245195,-0.09067643,0.08037518,-0.02322077,-0.01082164,0.01551947,0.00243087,0.98014881,0.18571590,0.05389694,0.04373831
1761615245206,0.02221497,-0.13404397,-0.07860681,-0.00440850,0.02006291,0.00847187,0.98014525,0.18569165,0.05400729,0.04378491
1761615245217,0.02758562,0.16083402,0.08669767,-0.03076822,0.02179403,0.00592829,0.98016922,0.18552242,0.05412715,0.04381751
1761615245228,-0.03152642,0.09088477,-0.23644818,-0.02614526,0.01423994,-0.00762478,0.98019398,0.18537863,0.05420547,0.04377558
1761615245239,0.14504241,-0.02411228,-0.19273432,0.00560176,0.01522492,0.01261454,0.98017980,0.18541084,0.05429302,0.04384811
1761615245250,-0.06242366,0.03492446,0.00483463,-0.00008860,0.02191273,-0.01587121,0.98017716,0.18541036,0.05441135,0.04376241
1761615245261,-0.04108652,0.02811015,0.16522181,-0.01132383,0.00399655,-0.03046312,0.98019518,0.18534808,0.05443333,0.04359486
1761615245271,0.07477674,0.02733686,0.31557950,-0.01018171,-0.00552854,-0.01418397,0.98020949,0.18529717,0.05440568,0.04352394
1761615245282,0.06859783,-0.04252050,-0.01888617,0.00190568,-0.00754423,0.00303712,0.98020907,0.18530774,0.05436381,0.04354080
1761615245304,-0.04595764,0.02642565,0.03483106,-0.00242859,-0.00908060,0.01274685,0.98021345,0.18528079,0.05426302,0.04368229
1761615245316,0.04309255,-0.01427469,-0.02577498,0.01350492,0.00018301,0.02928748,0.98019023,0.18536182,0.05426412,0.04385801
1761615245328,-0.18846455,0.19153573,-0.04772152,0.02509458,-0.01067441,0.01592665,0.98016198,0.18550736,0.05420221,0.04395038
1761615245339,-0.10376297,0.18335796,0.05062484,0.03413511,0.00025435,-0.00088532,0.98012753,0.18568999,0.05420357,0.04394565
1761615245350,0.00920748,0.02457708,0.06938760,0.01523700,-0.00684899,0.00723992,0.98011195,0.18577379,0.05416590,0.04398547
1761615245361,0.04169440,-0.08521084,-0.11434272,0.02037360,-0.00621967,-0.00211144,0.98009243,0.18588992,0.05413044,0.04397343
1761615245372,0.13749101,-0.14243050,0.05438533,0.01739578,0.00153840,0.00154590,0.98007326,0.18598647,0.05413898,0.04398201
1761615245383,-0.01935059,0.00870776,0.02322070,0.01755180,0.00647952,0.00114997,0.98005249,0.18608388,0.05417494,0.04398839
1761615245395,-0.06373600,-0.08911308,-0.04629229,0.02300774,0.01328753,-0.00901473,0.98002593,0.18621387,0.05425002,0.04393746
1761615245406,-0.01832312,-0.02272410,-0.02253573,0.00995312,0.00510085,0.00484497,0.98001266,0.18626911,0.05427833,0.04396435
1761615245416,-0.01496235,-0.10026526,0.02688547,0.02041214,0.01612257,0.00692521,0.97998596,0.18637628,0.05436297,0.04400071
1761615245427,0.04497206,-0.09573455,0.16893417,0.01013366,0.00939013,0.00303256,0.97997136,0.18643353,0.05441603,0.04401784
1761615245439,-0.00373433,-0.06745141,0.05974935,0.01329735,0.01099233,0.00741093,0.97995173,0.18650866,0.05447813,0.04405971
1761615245450,-0.02589211,-0.06000608,-0.10343145,0.02013792,0.00814903,0.01443766,0.97992433,0.18662043,0.05452336,0.04413984
1761615245461,-0.09288282,0.33379762,-0.11610352,0.00295041,0.00339697,0.00974878,0.97991772,0.18663680,0.05454221,0.04419395
1761615245473,0.00664351,-0.01710172,-0.11114979,0.00695522,0.00036705,0.01043658,0.97990692,0.18667819,0.05454440,0.04425605
1761615245484,0.07995532,-0.06342195,0.01853754,-0.00219827,0.00732661,0.02193710,0.97990147,0.18666599,0.05458506,0.04437780
1761615245494,-0.07358436,-0.07847927,-0.08065640,0.00054354,-0.00326930,0.01669960,0.97989791,0.18666884,0.05456790,0.04446547
1761615245506,0.04567968,0.06482187,0.02531198,-0.00123919,-0.00765460,0.01479751,0.97989785,0.18666165,0.05452350,0.04455130
1761615245517,-0.01721283,0.01921306,-0.04643138,-0.00053083,0.00008275,0.01084769,0.97989569,0.18665876,0.05452395,0.04461042
1761615245528,-0.19404835,0.52740621,0.28874285,-0.00499567,-0.00450808,0.01405048,0.97989886,0.18663053,0.05449848,0.04468980
1761615245540,-0.01680450,-0.01820488,-0.08215536,0.00753514,-0.00142495,0.01641239,0.97988697,0.18667311,0.05449043,0.04478253
1761615245551,0.03339220,0.02441859,-0.04540642,0.00560536,0.00180653,0.01790779,0.97987604,0.18670394,0.05450036,0.04488102
1761615245562,0.14583233,-0.38763062,-0.24369895,0.00471738,0.00400921,0.00844033,0.97986759,0.18673035,0.05452282,0.04492829
1761615245575,0.07168706,-0.07954143,0.00230258,-0.00536981,-0.00418931,0.00552709,0.97987405,0.18669572,0.05449579,0.04496394
1761615245583,-0.20201759,-0.25676086,-0.20443214,-0.00398400,0.00748519,-0.00139634,0.97987574,0.18667918,0.05452686,0.04495814
1761615245594,0.14903594,0.03976729,0.11212002,-0.00904678,0.00541500,0.00239985,0.97988315,0.18662807,0.05455745,0.04497170
1761615245605,-0.03380817,0.06310858,-0.07071122,-0.01346254,0.00124252,0.00772777,0.97989513,0.18655268,0.05456441,0.04501498
1761615245617,0.01140395,0.02043208,0.00000000,0.00025940,0.00884464,0.00736577,0.97989020,0.18655413,0.05461394,0.04505623
1761615245628,0.01568780,0.19562666,-0.01845217,0.00366721,0.00275795,0.01667578,0.97988121,0.18657449,0.05462925,0.04514878
1761615245639,0.01799882,-0.00866088,0.11808571,-0.00219292,0.00749173,0.00600563,0.97987965,0.18656210,0.05467158,0.04518271
1761615245650,0.02901447,-0.03451461,-0.05523683,-0.01207189,0.00480502,0.00682741,0.97988925,0.18649449,0.05469848,0.04522094
1761615245661,-0.09597545,-0.23500596,-0.09543986,-0.01456466,-0.00631460,0.00706352,0.97990478,0.18641366,0.05466344,0.04526015
1761615245673,0.05710536,-0.00087328,-0.01184915,-0.01478286,0.00889169,0.00592150,0.97991621,0.18633088,0.05471323,0.04529331
1761615245684,-0.01366087,-0.02230948,-0.02266984,-0.00889758,0.00109707,0.01371268,0.97992189,0.18628016,0.05471948,0.04537147
1761615245695,-0.05259723,-0.01656865,-0.05147065,-0.01064268,0.00222536,0.01212636,0.97992917,0.18622216,0.05473161,0.04543756
1761615245706,0.00617278,0.00604636,0.01994819,-0.02103007,0.00305382,0.00731133,0.97994869,0.18610439,0.05474871,0.04547850
1761615245717,0.01900658,-0.07578875,-0.03801317,-0.01999721,0.00680186,0.01071676,0.97996504,0.18599240,0.05478680,0.04553851
1761615245729,-0.03264332,0.08164653,0.17802522,-0.03763181,0.00773677,0.02550870,0.97999677,0.18577602,0.05483129,0.04568519
1761615245740,-0.08414981,0.11800282,0.10533450,-0.02065531,0.00823712,0.00928089,0.98001353,0.18566138,0.05487701,0.04573670
1761615245751,-0.01354541,0.01233600,-0.10062305,0.01140117,0.01406248,0.00071448,0.97999698,0.18572466,0.05495505,0.04574066
1761615245762,0.09675293,-0.05031153,-0.27864845,0.01158059,0.01581020,0.01709087,0.97997544,0.18578893,0.05504280,0.04583552
1761615245773,0.04715018,-0.03276584,-0.00497911,-0.01638693,0.00857381,0.01987170,0.97998501,0.18569635,0.05509124,0.04594779
1761615245784,0.01081499,0.11358177,0.00248620,-0.00725122,0.01677194,0.00401300,0.97998633,0.18565683,0.05518265,0.04596966
1761615245795,-0.04313938,0.23747741,-0.05155422,0.01070223,0.00317362,0.00473219,0.97997285,0.18571622,0.05520026,0.04599593
1761615245807,0.06889570,0.03384692,-0.05827387,0.02536607,0.01463307,-0.01310060,0.97994399,0.18586208,0.05528440,0.04592060
1761615245817,0.05584911,-0.05562809,-0.02991626,-0.00304804,0.00919890,-0.00856225,0.97994631,0.18584669,0.05533086,0.04587736
1761615245828,-0.04701194,-0.19195773,0.11188214,-0.01679032,-0.00492933,-0.00491293,0.97996717,0.18575182,0.05530301,0.04584960
1761615245839,0.03856823,-0.11936302,0.04790332,-0.01479807,0.00509478,-0.00089691,0.97998150,0.18566895,0.05533154,0.04584458
1761615245851,-0.08552962,0.00261341,-0.10643687,-0.01949375,0.00062537,0.00219863,0.98000140,0.18555979,0.05533504,0.04585689
1761615245862,0.03801317,0.07365051,-0.01520527,-0.01052005,0.00932342,0.01154935,0.98000658,0.18550088,0.05538725,0.04592157
1761615245873,0.00295560,0.00614431,-0.06755662,-0.00633764,0.00408274,0.01387892,0.98000832,0.18546602,0.05540971,0.04599790
1761615245884,0.03960092,-0.07972804,-0.03293004,0.00191119,0.00345089,0.00431850,0.98000403,0.18547682,0.05542920,0.04602230
1761615245895,-0.00915452,-0.04789776,-0.00557990,-0.01492454,0.00899520,0.00004294,0.98001675,0.18539473,0.05547868,0.04602254
1761615245906,-0.02594738,-0.01727260,0.03025728,-0.02704627,0.00769583,0.00271474,0.98004201,0.18524462,0.05552139,0.04603760
1761615245918,-0.02913784,-0.02864946,-0.04707243,-0.01655423,0.01113323,0.01173118,0.98005339,0.18514778,0.05558652,0.04610623
1761615245929,0.16129122,0.19012946,0.31389671,-0.02858576,0.01916103,0.03015450,0.98006885,0.18499485,0.05568903,0.04626756
1761615245940,0.04875988,0.04292246,0.04483422,-0.00876506,0.01989953,0.01634200,0.98006745,0.18494576,0.05580047,0.04635907
1761615245951,-0.03113938,0.01383239,-0.03983026,-0.02612479,0.00992942,0.00541487,0.98009003,0.18480208,0.05585508,0.04638886
1761615245963,-0.06640375,-0.15439599,-0.17381472,-0.00454876,0.01089182,0.00805878,0.98008915,0.18477433,0.05592152,0.04643801
1761615245973,-0.08219578,-0.12667453,-0.45291713,-0.02319397,0.01128109,0.02004083,0.98010303,0.18465836,0.05597792,0.04653822
1761615245984,0.10360911,0.07602638,0.27268110,-0.04082821,0.02418371,0.01069745,0.98013578,0.18442768,0.05611456,0.04659866
1761615245995,0.02617321,0.06199572,-0.13273182,-0.00843575,0.00889342,0.03241701,0.98013322,0.18438128,0.05616348,0.04677695
1761615246007,-0.01285536,0.16502898,0.01672579,-0.00699994,0.00325927,0.00305566,0.98013873,0.18434208,0.05618173,0.04679406
1761615246018,0.07125162,-0.07440473,-0.03932316,-0.02509354,0.01193351,-0.01074845,0.98016396,0.18420282,0.05624796,0.04673441
1761615246029,0.21901634,-0.11683948,0.07782198,-0.03956167,-0.00177135,-0.00187428,0.98020588,0.18398523,0.05623822,0.04672410
1761615246040,0.17491634,-0.08719550,-0.02094727,-0.01787563,0.00060014,0.00587565,0.98022320,0.18388334,0.05624164,0.04675759
1761615246051,-0.01605377,0.05991780,-0.03457194,-0.01850897,-0.00317189,0.00062989,0.98024295,0.18378246,0.05622435,0.04676103
1761615246062,-0.11490364,0.15322519,0.01104098,-0.01854771,0.00429856,0.01927944,0.98025611,0.18367674,0.05624885,0.04687092
1761615246073,-0.05641704,-0.00523464,-0.00352056,-0.02400297,0.00169935,0.01263734,0.98027678,0.18354592,0.05625811,0.04693979
1761615246085,0.06204167,0.00558209,0.01729773,-0.01350794,-0.00156298,0.00785673,0.98028934,0.18347028,0.05624936,0.04698379
1761615246095,0.00161854,0.03007061,-0.07206040,0.00080742,-0.00281088,-0.00656733,0.98029113,0.18347472,0.05623390,0.04694767
1761615246107,0.00791365,0.07096367,0.00234990,-0.01041605,-0.00689132,-0.00108791,0.98030455,0.18341639,0.05619531,0.04694158
1761615246118,0.00088114,-0.00584837,-0.03987603,-0.00524794,-0.00858615,-0.00285383,0.98031348,0.18338726,0.05614766,0.04692574
1761615246129,-0.01091709,0.05852181,0.10089876,-0.00354732,-0.00743392,0.00453175,0.98031828,0.18336775,0.05610677,0.04695066
1761615246140,-0.03029903,-0.03391030,-0.06538480,0.00924338,-0.00616882,-0.01041904,0.98031332,0.18341998,0.05607192,0.04689180
1761615246151,0.05477019,-0.02476952,0.03564160,0.00041561,-0.00779925,-0.00542854,0.98031678,0.18342226,0.05602902,0.04686194
1761615246162,0.15768553,-0.07629415,-0.15785831,0.00332565,-0.01288216,-0.00759234,0.98031944,0.18344089,0.05595688,0.04681942
1761615246173,-0.02271966,-0.12633601,-0.07975206,-0.00061012,-0.02434146,-0.01677540,0.98033222,0.18343750,0.05582179,0.04672632
1761615246185,0.05862932,0.02566103,0.07903999,-0.02636721,-0.02997799,-0.01846750,0.98037431,0.18328985,0.05565391,0.04662290
1761615246196,0.00469943,0.00264991,-0.07201183,-0.01809575,-0.02147987,-0.00292581,0.98040061,0.18318941,0.05553470,0.04660666
1761615246207,-0.05407459,0.09715831,0.00294516,-0.01879723,-0.03052207,0.00231494,0.98042932,0.18308415,0.05536377,0.04661963
1761615246218,0.05262668,0.04975649,-0.10359475,-0.00329104,-0.00747607,0.00346295,0.98043416,0.18306588,0.05532228,0.04663884
1761615246229,0.07936559,0.07136239,0.05331478,0.00089341,-0.02792686,0.00799641,0.98044011,0.18307107,0.05516030,0.04668522
1761615246240,0.16752872,0.00573344,-0.05794928,-0.01561318,-0.01948539,0.00642728,0.98045993,0.18298754,0.05505606,0.04671961
1761615246251,-0.03298121,-0.08463519,0.01981450,-0.01515432,-0.01753904,-0.00454112,0.98048208,0.18290419,0.05495959,0.04669463
1761615246262,-0.25061044,-0.07955119,-0.09150806,-0.03216943,-0.03657819,-0.00583783,0.98052869,0.18272404,0.05475475,0.04666194
1761615246274,-0.05511909,-0.03991382,-0.04561580,-0.02811255,-0.01252959,-0.00498322,0.98056325,0.18256661,0.05468459,0.04663404
1761615246285,0.01572803,-0.04855632,-0.10471276,-0.01338444,-0.00653955,0.01361824,0.98057540,0.18249299,0.05464862,0.04670894
1761615246296,-0.09494102,0.05148795,-0.00182951,-0.00878812,0.00615094,-0.00991007,0.98058519,0.18244422,0.05468276,0.04665394
1761615246307,-0.00688347,-0.06534797,-0.01698606,-0.00774374,0.00173278,0.00380300,0.98059170,0.18240085,0.05469246,0.04667523
1761615246318,-0.01240511,0.02820305,-0.09896443,-0.00447948,0.01616138,0.00292221,0.98059055,0.18237599,0.05478216,0.04669145
1761615246329,-0.05224658,0.19205457,0.15480469,-0.00549185,0.01659579,0.00305111,0.98059026,0.18234551,0.05487426,0.04670838
1761615246340,0.01741553,0.11271717,0.09288282,-0.02066099,0.02466455,-0.00642247,0.98060560,0.18223085,0.05501115,0.04667274
1761615246351,-0.00260270,0.01211670,-0.12458730,-0.02094698,0.02750522,-0.01895912,0.98062379,0.18211354,0.05516518,0.04656657
1761615246363,0.05100262,-0.17114255,-0.31548367,-0.01205685,0.01407387,-0.01352085,0.98063538,0.18204663,0.05524329,0.04649153
1761615246374,0.09770411,0.10713035,-0.00664374,-0.01452510,0.02787343,-0.01594267,0.98064590,0.18196529,0.05539938,0.04640225
1761615246385,0.12201236,-0.09430819,-0.34934720,-0.01030534,0.00771817,-0.01704055,0.98065856,0.18190809,0.05544222,0.04630767
1761615246396,0.01782509,-0.18379237,0.21698326,-0.01924806,0.00850930,-0.02127378,0.98068147,0.18180030,0.05548987,0.04618854
1761615246407,-0.01024544,0.11046464,-0.02543220,-0.03375759,-0.00751515,-0.01329772,0.98072201,0.18161295,0.05544816,0.04611474
1761615246418,0.07223030,0.12113087,0.06056766,-0.04490128,0.00026077,-0.02924150,0.98077518,0.18136599,0.05544960,0.04595391
1761615246429,0.28640628,-0.44779017,-0.11420364,-0.02350480,-0.01667762,-0.00950151,0.98080699,0.18123554,0.05535704,0.04590118
1761615246440,0.07540990,-0.26623343,0.03328721,-0.03364391,-0.02311670,-0.01135733,0.98085206,0.18104713,0.05522758,0.04583758
1761615246452,0.06652304,-0.04799162,-0.03041053,-0.04348706,-0.02040763,-0.01864225,0.98090828,0.18080361,0.05511330,0.04573318
1761615246463,-0.23996455,0.33664838,0.12094117,-0.06706003,-0.04331790,-0.02880809,0.98099773,0.18043142,0.05487289,0.04557329
1761615246474,-0.01354541,0.21624281,-0.13932422,-0.05559359,-0.02298629,-0.02195516,0.98106721,0.18012288,0.05474531,0.04545144
1761615246485,-0.20898634,-0.01354541,0.03096094,-0.05267489,-0.04230452,-0.00739821,0.98113581,0.17983053,0.05451052,0.04541038
1761615246496,-0.00193506,-0.30477174,-0.09288282,-0.01027850,-0.01651953,-0.02255795,0.98115714,0.17977349,0.05441884,0.04528519
1761615246507,0.18548876,0.03359850,-0.14984437,-0.02439458,-0.01208427,-0.00729143,0.98118807,0.17963566,0.05435056,0.04524399
1761615246518,-0.21011655,0.18881164,0.27638803,-0.04952619,-0.01304409,0.00080865,0.98124215,0.17936079,0.05427817,0.04524848
1761615246529,-0.18969108,0.47827280,0.44669534,-0.03998567,-0.00019342,-0.01610926,0.98128647,0.17914087,0.05427710,0.04515988
1761615246541,-0.02035432,-0.25135342,-0.36782922,0.01058291,0.01225368,-0.02223654,0.98127757,0.17920013,0.05434572,0.04503535
1761615246552,-0.08754413,0.01742417,0.16067898,-0.01835145,0.01028509,-0.02419028,0.98129916,0.17909828,0.05440281,0.04490110
1761615246563,0.06772705,-0.03579859,0.07740235,-0.05893923,0.00553611,-0.01907226,0.98136193,0.17877117,0.05443353,0.04479524
1761615246574,0.06966211,0.12723011,-0.11610352,-0.05348886,0.01180669,0.00405945,0.98141130,0.17847430,0.05449906,0.04481777
1761615246585,-0.17222022,0.04305506,-0.20898634,-0.03398840,0.00288615,-0.00232923,0.98144529,0.17828567,0.05451508,0.04480485
1761615246596,-0.03870117,0.23849598,0.29412892,-0.02502337,0.02336812,-0.00033493,0.98146338,0.17814679,0.05464477,0.04480299
1761615246607,-0.18675036,-0.04228040,0.04481201,-0.01152953,0.01749187,0.01431458,0.98146600,0.17808165,0.05474360,0.04488387
1761615246619,0.06820654,-0.33381046,-0.29330695,0.02274785,0.03263669,0.01937123,0.98142804,0.17820790,0.05492473,0.04499138
1761615246630,-0.29666081,-0.14469137,0.47850579,0.00669724,0.04580815,0.01926242,0.98140235,0.17824473,0.05517668,0.04509732
1761615246641,0.54331182,0.01344716,-0.03441919,0.01292691,0.07369162,0.01290019,0.98136259,0.17831712,0.05558935,0.04516956
1761615246652,-0.65952844,0.11498983,0.21287373,0.01273510,0.10063670,0.03212196,0.98130925,0.17838844,0.05615292,0.04534944
1761615246663,-0.37624113,0.30148462,-0.11864632,0.02996478,0.10970706,0.02263281,0.98123880,0.17855325,0.05675630,0.04547392
1761615246674,-0.09043678,0.08117971,0.20015660,0.04369730,0.12790507,0.03270263,0.98114404,0.17879795,0.05747257,0.04565706
1761615246685,-0.24288717,0.14344787,-0.03040048,0.08296680,0.15156779,0.03825056,0.98100177,0.17925427,0.05830620,0.04586744
1761615246696,-0.33137000,0.07752329,0.08099100,0.09212124,0.20114549,0.02642267,0.98083435,0.17976554,0.05942255,0.04601408
1761615246708,-1.48888921,0.45844211,0.44616885,0.10311744,0.25255051,0.01455664,0.98063603,0.18034815,0.06084946,0.04609633
1761615246719,0.70528167,-0.51863190,-0.49277474,0.13554444,0.31287454,0.02696793,0.98038334,0.18109365,0.06257027,0.04624465
1761615246730,-0.42156601,0.43946676,0.91093369,0.09677272,0.35045148,0.01519728,0.98015182,0.18163558,0.06453280,0.04632976
1761615246741,-0.24590795,0.01067738,-0.27353437,0.15776272,0.41079991,0.08587595,0.97981371,0.18251116,0.06681274,0.04680637
1761615246752,-0.37733644,-0.55729690,0.08514258,0.20137155,0.44272794,0.16053964,0.97939120,0.18362877,0.06926988,0.04769736
1761615246763,-0.82820511,0.13158399,-0.15480469,0.16348382,0.49082706,-0.01653944,0.97902860,0.18453611,0.07199397,0.04760557
1761615246774,-0.22466563,0.29749356,0.21268885,0.11853108,0.48890958,0.00840915,0.97869274,0.18520581,0.07475631,0.04765308
1761615246785,-0.08612224,-0.24657264,0.05942591,0.11966281,0.50255975,0.05604086,0.97833782,0.18586395,0.07752039,0.04796130
1761615246796,-0.15471359,-0.02535651,0.00635857,0.11607218,0.51684818,0.01216044,0.97797709,0.18651396,0.08041474,0.04802940
1761615246803,1.82682411,-0.53714454,0.00234572,0.08371804,0.37057638,-0.00274300,0.97782348,0.18679023,0.08163764,0.04802035
1761615246814,-0.76912216,0.04659516,-0.05574696,0.09934683,0.47004899,0.02799562,0.97749815,0.18732670,0.08417591,0.04817153
1761615246825,-0.02452866,-0.15407065,0.11446708,0.08529689,0.45422133,0.02493220,0.97718878,0.18778730,0.08662870,0.04830616
1761615246837,0.54585406,-0.19031818,0.13986585,0.07698674,0.39859810,-0.00156050,0.97688793,0.18824537,0.08900036,0.04829688
1761615246847,-0.43907631,0.33334601,0.04086919,0.05726271,0.41550908,-0.00664997,0.97662799,0.18854887,0.09120256,0.04826163
1761615246858,0.01909725,-0.11484875,-0.07638901,0.06913627,0.43275956,0.01372476,0.97633666,0.18891529,0.09349618,0.04833437
1761615246870,-0.01230096,0.19729137,-0.18375880,0.05698923,0.35314815,-0.00850572,0.97606319,0.18926292,0.09565039,0.04828249
1761615246880,-0.64549085,0.01131965,-0.13364231,0.05978185,0.39144181,-0.01050085,0.97581147,0.18956482,0.09762717,0.04822946
1761615246891,0.55475581,-0.17801895,-0.02161589,0.04872473,0.32082495,0.00126738,0.97558087,0.18983281,0.09939171,0.04823643
1761615246903,0.44102238,-0.04483074,0.07446884,0.01923936,0.26396492,-0.00424509,0.97540009,0.18994632,0.10094910,0.04821138
1761615246913,-0.57487392,-0.19079935,-0.22239127,0.02039641,0.25631825,-0.01081487,0.97524789,0.19004932,0.10224351,0.04815677
1761615246924,0.60176493,-0.08475701,-0.00367853,0.00940234,0.19171611,0.00150014,0.97512517,0.19010150,0.10330753,0.04816509
1761615246936,0.07923288,0.07077906,0.25882080,-0.00713422,0.14527459,0.01274181,0.97504142,0.19006084,0.10413560,0.04823772
1761615246946,-0.15147524,-0.02275356,0.03528684,-0.00115606,0.10181780,0.02755478,0.97497639,0.19005460,0.10468541,0.04838652
1761615246958,0.31838658,-0.06659563,-0.05947273,0.00373846,0.05851332,0.03534901,0.97492678,0.19007572,0.10501601,0.04858624
1761615246969,0.54514364,-0.13617423,-0.51952173,0.00304149,0.04289925,0.02760381,0.97488885,0.19009321,0.10526268,0.04874496
1761615246982,0.22987697,0.04675492,-0.03635572,0.00214940,0.00295573,0.02282766,0.97487709,0.19010664,0.10528116,0.04888764
1761615246991,-0.70467854,-0.02621093,-0.36385546,-0.03050549,-0.00346175,0.05465654,0.97489388,0.18996326,0.10526489,0.04914452
1761615247002,0.54451839,0.12250147,0.10789269,-0.01930553,-0.02035371,0.04598855,0.97491422,0.18985515,0.10515091,0.04940206
1761615247013,-0.01466844,0.10827258,-0.05715334,-0.03021351,-0.01780086,0.04283478,0.97494544,0.18968747,0.10505211,0.04963979
1761615247024,0.10386841,-0.20233878,0.18588781,-0.02719068,-0.01523437,0.02040431,0.97497842,0.18953520,0.10496680,0.04975405
1761615247036,0.18701680,-0.10550745,-0.05054688,-0.02348997,-0.02533417,0.02048009,0.97501370,0.18940248,0.10482366,0.04986977
1761615247048,0.13914516,-0.03479188,0.14649055,-0.03375237,-0.03203535,0.02137235,0.97506665,0.18920166,0.10463305,0.04999693
1761615247058,-0.33991645,0.06980936,-0.54191799,-0.03086351,-0.02807110,0.01466837,0.97510828,0.18904579,0.10449129,0.05007101
1761615247069,0.31785003,0.10104122,-0.05957758,-0.02472399,-0.03718690,0.02972683,0.97514956,0.18890487,0.10427933,0.05024045
1761615247081,-0.06675952,0.09498337,-0.13362089,-0.01074664,-0.03381567,0.02597395,0.97517373,0.18884522,0.10409165,0.05038461
1761615247091,-0.03289600,0.09191529,0.01548047,-0.00636466,-0.03966344,0.02982472,0.97519547,0.18880990,0.10387152,0.05055013
1761615247104,0.33025846,-0.10721474,-0.01448128,0.00101478,-0.03473328,0.01826167,0.97521117,0.18881614,0.10365791,0.05066244
1761615247114,-0.42629734,0.01834829,-0.36833039,-0.00107339,-0.04777607,0.02331406,0.97523130,0.18881083,0.10342141,0.05077785
1761615247125,0.31986184,-0.07178282,0.25396286,0.00050862,-0.04575512,0.02612423,0.97524992,0.18881363,0.10316976,0.05092153
1761615247137,0.15487848,-0.10722989,0.38386721,0.00904693,-0.05327437,0.01341187,0.97526881,0.18886745,0.10285278,0.05100133
1761615247148,0.06694491,0.11303906,-0.15356056,0.01259251,-0.04947218,0.02567188,0.97527716,0.18894112,0.10256337,0.05115151
1761615247158,-0.16535097,0.04728936,-0.52111124,0.01973505,-0.06562064,0.03018509,0.97528441,0.18903782,0.10224183,0.05129942
1761615247169,0.26511869,0.17538987,-0.33106018,0.02023670,-0.07783146,0.02881862,0.97529966,0.18915216,0.10180208,0.05146224
1761615247181,0.07246050,0.15484478,0.01036111,0.00218026,-0.08121079,0.01419963,0.97534046,0.18916437,0.10134730,0.05154176
1761615247193,0.34571193,-0.08369950,0.25611371,-0.00591265,-0.08404083,0.03105638,0.97539301,0.18912653,0.10080944,0.05174052
1761615247205,-0.04611370,0.24530305,-0.31415554,-0.01730212,-0.10651739,0.02788065,0.97546817,0.18902531,0.10018631,0.05190362
1761615247214,-0.38066211,-0.06575693,-1.20778116,0.01252338,-0.14711615,0.02206586,0.97551744,0.18907916,0.09955371,0.05199851
1761615247225,0.71205659,-0.28003505,0.51778570,0.00034944,-0.13341229,0.02120863,0.97558607,0.18908110,0.09881327,0.05211621
1761615247237,0.33161310,0.02222955,0.28355238,-0.02437601,-0.13340586,0.01904218,0.97568989,0.18893363,0.09800617,0.05223142
1761615247247,0.01755635,0.11184595,-0.45900279,-0.01148999,-0.16501352,0.01683582,0.97578080,0.18887503,0.09716460,0.05231728
1761615247258,-0.02931045,0.05754665,-0.08081716,0.01082808,-0.15963446,0.01562605,0.97585233,0.18893512,0.09627863,0.05240401
1761615247269,0.03675460,0.19994880,0.00565197,-0.00207579,-0.16533705,-0.00025851,0.97594639,0.18892339,0.09534447,0.05240255
1761615247281,0.08767415,0.11802792,-0.23735491,-0.00003859,-0.19224701,-0.00713447,0.97605126,0.18892318,0.09428711,0.05236331
1761615247292,0.15365089,0.02631008,0.02193073,-0.01231620,-0.20421299,0.01542742,0.97617081,0.18885360,0.09313331,0.05245047
1761615247303,0.09496564,-0.12851099,-0.14155699,0.00192296,-0.21837429,0.00664220,0.97628263,0.18886436,0.09191041,0.05248767
1761615247314,0.12806766,-0.00612873,0.03574291,-0.00605985,-0.21639347,0.00896667,0.97640086,0.18883013,0.09068779,0.05253833
1761615247325,0.07840421,-0.42690336,0.07245508,-0.02236409,-0.24909072,0.01613096,0.97654482,0.18870824,0.08933025,0.05262624
1761615247336,0.31146384,-0.25712071,-0.02294740,-0.02543053,-0.24402388,0.01657633,0.97669136,0.18856583,0.08796371,0.05271907
1761615247348,-0.16774497,0.09318331,0.11716474,-0.04309342,-0.26017231,-0.00749847,0.97687189,0.18832235,0.08649374,0.05267670
1761615247359,0.11627476,0.35884850,-0.32584333,-0.04467129,-0.27312219,0.00140486,0.97705225,0.18807443,0.08497791,0.05268450
1761615247370,0.15093967,0.22958797,-0.19061377,-0.04794010,-0.27227393,0.00640522,0.97723337,0.18780596,0.08345318,0.05272037
1761615247381,-0.00136491,-0.01662293,0.06848726,-0.03771413,-0.28232975,-0.00767124,0.97740840,0.18759665,0.08188625,0.05267780
1761615247392,0.17028516,-0.16835010,-0.17802540,-0.03397810,-0.28358837,0.00752836,0.97757291,0.18740807,0.08031233,0.05271958
1761615247403,0.04848673,-0.16335346,-0.06067169,-0.04240240,-0.29219176,0.00367096,0.97774562,0.18717698,0.07871989,0.05273958
1761615247414,0.15412770,0.01990024,0.16000404,-0.07093759,-0.28827365,0.01308439,0.97794625,0.18677973,0.07710555,0.05281286
1761615247425,0.06584383,-0.29070369,-0.08638655,-0.06463147,-0.29394135,-0.00035111,0.97814204,0.18642102,0.07547418,0.05281091
1761615247437,0.41941193,-0.34576143,-0.08924533,-0.06885973,-0.28847182,0.00424123,0.97833747,0.18603541,0.07385874,0.05283466
1761615247449,-0.19109829,0.14646801,0.46329133,-0.07302101,-0.26227014,-0.00728992,0.97855064,0.18557538,0.07220644,0.05278873
1761615247459,0.29348578,-0.07916393,-1.10333000,-0.07684578,-0.32246807,-0.00201343,0.97873781,0.18519883,0.07062634,0.05277887
1761615247470,-0.37633035,0.20099462,0.61907157,-0.06336874,-0.27751478,-0.00966428,0.97891871,0.18484397,0.06907226,0.05272475
1761615247482,-0.17880345,0.09723953,0.12710835,-0.07010705,-0.28411354,-0.02706276,0.97911528,0.18444436,0.06745281,0.05257049
1761615247493,0.23141349,0.05426463,-0.09136498,-0.06737132,-0.28327752,-0.01325987,0.97929825,0.18406708,0.06586646,0.05249623
1761615247506,-0.19355992,-0.04091161,0.40681819,-0.05481887,-0.25115881,-0.00245780,0.97947579,0.18370801,0.06422137,0.05248014
1761615247515,0.54411659,0.00463282,-1.63742619,-0.09453854,-0.37081739,-0.01548900,0.97966297,0.18329204,0.06258977,0.05241198
1761615247525,0.09569894,-0.46185191,0.99229581,-0.06890492,-0.30425855,-0.00267626,0.97983686,0.18291996,0.06094678,0.05239753
1761615247537,0.02294195,-0.16249325,0.24439144,-0.06627585,-0.29457109,-0.00823742,0.98001128,0.18254550,0.05928245,0.05235099
1761615247548,0.08148395,-0.14801551,0.07121345,-0.07250837,-0.30448401,-0.00413825,0.98018655,0.18214670,0.05760779,0.05232823
1761615247559,-0.23574292,0.39252225,-0.05748883,-0.08919211,-0.30533619,-0.00939845,0.98037931,0.18165169,0.05591317,0.05227607
1761615247570,0.03676611,-0.06192188,-0.26316798,-0.06499629,-0.28935584,-0.00536655,0.98053793,0.18129096,0.05430725,0.05224628
1761615247582,-0.19054921,0.17521536,0.39484357,-0.07288663,-0.27812152,-0.01387872,0.98070974,0.18086457,0.05268023,0.05216509
1761615247592,0.21417035,0.18820089,-0.20622922,-0.09010926,-0.29116105,-0.00227880,0.98088479,0.18037347,0.05109341,0.05215267
1761615247606,-0.19164345,0.02836244,0.46635352,-0.06052831,-0.24050411,-0.01455780,0.98104226,0.17998004,0.04953013,0.05205805
1761615247615,0.61812224,0.12370936,-1.54779621,-0.07334203,-0.34596233,-0.02539029,0.98118616,0.17965000,0.04797330,0.05194379
1761615247626,-0.17619834,-0.42947957,0.81416788,-0.05966088,-0.26338750,-0.02802302,0.98132781,0.17931292,0.04648516,0.05178546
1761615247637,0.09578982,-0.07531779,0.08699296,-0.06811872,-0.26454798,-0.01219888,0.98147009,0.17893145,0.04500369,0.05171715
1761615247648,0.07323852,-0.26458256,-0.00352457,-0.06955083,-0.24576342,-0.00052381,0.98160213,0.17854545,0.04363970,0.05171424
1761615247659,-0.29758608,0.39756784,0.04420644,-0.07268978,-0.24496614,-0.00981995,0.98174021,0.17813475,0.04225565,0.05165876
1761615247670,-0.04729763,0.07588898,0.17172361,-0.07642811,-0.23209833,-0.01670589,0.98187655,0.17771057,0.04096750,0.05156604
1761615247682,0.02128565,0.07208094,-0.10062305,-0.05967881,-0.22442867,-0.00728732,0.98198974,0.17737936,0.03972192,0.05152560
1761615247693,-0.11575710,0.34785658,-0.06139483,-0.06280549,-0.23479010,-0.01031930,0.98210538,0.17703707,0.03844232,0.05146936
1761615247704,0.13495703,0.03889202,0.06028862,-0.02725197,-0.21527425,-0.01455944,0.98218290,0.17688582,0.03724754,0.05138855
1761615247715,0.11942705,0.14752115,0.03492780,0.00439801,-0.22659919,-0.01105784,0.98222779,0.17690979,0.03601258,0.05132829
1761615247726,0.07236054,-0.04811017,0.13598669,0.02225894,-0.23607567,-0.00946808,0.98225544,0.17703332,0.03470236,0.05127574
1761615247737,0.10712179,-0.15244650,0.54074585,-0.00439600,-0.24737129,-0.00020028,0.98230790,0.17700871,0.03331708,0.05127462
1761615247748,-0.03200858,0.01308684,0.02607366,-0.03117573,-0.24038858,-0.01280227,0.98238852,0.17683256,0.03195888,0.05120228
1761615247759,-0.03157874,-0.02825695,-0.20792095,-0.04540866,-0.24632515,-0.00979030,0.98247938,0.17658282,0.03060409,0.05114844
1761615247772,-0.22418272,0.01187925,0.17493434,-0.02794431,-0.19025222,-0.00550119,0.98255161,0.17640118,0.02936746,0.05111268
1761615247782,0.40896432,0.22603534,-1.00549340,-0.01818588,-0.26511325,-0.00194348,0.98260443,0.17631479,0.02810817,0.05110345
1761615247793,-0.14736529,0.04517664,0.59070562,-0.00951986,-0.20938085,0.00173212,0.98264559,0.17626243,0.02695657,0.05111297
1761615247804,-0.10877235,-0.08555691,-0.13115390,-0.00442151,-0.19516253,-0.01353090,0.98268401,0.17623723,0.02584415,0.05103585
1761615247815,0.09893490,-0.09753487,0.15956795,-0.00815127,-0.19719741,-0.02047727,0.98272582,0.17619240,0.02475956,0.05092322
1761615247826,0.08549507,-0.23302071,-0.01893747,-0.01151582,-0.19721944,-0.00868372,0.98276710,0.17612791,0.02365513,0.05087459
1761615247837,0.02885311,-0.02536309,-0.03697344,-0.01778067,-0.19573630,-0.01701710,0.98281521,0.17602923,0.02256880,0.05078015
1761615247848,-0.11813533,0.02615664,0.06447296,-0.01151867,-0.17741511,-0.03503375,0.98285841,0.17596588,0.02159301,0.05058746
1761615247860,-0.17458013,0.25125281,-0.10279604,0.00189192,-0.16832268,-0.02313740,0.98288365,0.17597657,0.02064199,0.05045674
1761615247871,0.15497488,-0.08915723,0.05974935,-0.00276659,-0.15546989,-0.01565874,0.98290904,0.17596093,0.01976358,0.05036827
1761615247882,-0.14747763,0.04687730,-0.12009469,0.00693154,-0.15062316,-0.02771422,0.98292663,0.17599975,0.01892009,0.05021307
1761615247893,-0.03151381,0.01283704,0.08562635,-0.00007784,-0.13494646,-0.02012260,0.98294654,0.17599932,0.01817114,0.05010139
1761615247904,-0.04879867,0.13207895,-0.03976561,-0.00905677,-0.12759384,-0.00811125,0.98297110,0.17594815,0.01745024,0.05005556
1761615247916,-0.03005709,-0.12689706,0.06324113,-0.00855256,-0.10625700,-0.00385116,0.98299168,0.17589897,0.01683926,0.05003341
1761615247927,0.11267305,-0.13169982,0.20988562,-0.00751639,-0.09284690,-0.00965300,0.98301023,0.17585801,0.01633324,0.04998080
1761615247938,0.10542792,-0.49354540,0.11626693,0.00949226,-0.07818609,-0.01426774,0.98301198,0.17591211,0.01588758,0.04989948
1761615247949,-0.05876468,0.01980889,0.12160316,-0.02073232,-0.07330251,-0.01865801,0.98304431,0.17579705,0.01548075,0.04979593
1761615247960,-0.04938430,0.43415400,-0.12837787,-0.04695737,-0.05421887,-0.02132416,0.98310104,0.17553878,0.01518255,0.04967864
1761615247972,-0.28582368,0.28334485,-0.15733414,-0.01790409,-0.03245451,-0.03355463,0.98313201,0.17543583,0.01499594,0.04948570
1761615247983,-0.13222370,0.09597505,-0.23206246,0.00012789,-0.02096951,-0.05005796,0.98314718,0.17543652,0.01488270,0.04921539
1761615247994,-0.01803199,-0.06504614,0.25725415,-0.00749419,0.00240665,-0.04406368,0.98316696,0.17539418,0.01489630,0.04896643
1761615248006,-0.04455927,0.06015539,0.01627623,-0.01115618,0.01049630,-0.03422919,0.98318762,0.17532892,0.01495770,0.04876619
1761615248017,0.08553584,-0.29324328,-0.12327224,-0.00351524,0.03686988,-0.01897543,0.98319303,0.17530994,0.01515680,0.04866372
1761615248028,-0.14411233,-0.11172608,0.08591741,-0.03098889,0.04014428,-0.02898958,0.98322754,0.17514105,0.01537559,0.04850573
1761615248039,0.11231170,-0.21982664,0.13228982,-0.02876345,0.04769795,-0.02572981,0.98325967,0.17497710,0.01564746,0.04835907
1761615248050,0.04465912,-0.01191589,-0.14971243,-0.01325813,0.04526629,-0.01684036,0.98327332,0.17490351,0.01589869,0.04826561
1761615248061,-0.01201767,0.16365871,0.11332471,-0.01335338,0.04404621,-0.01251201,0.98328581,0.17483007,0.01614095,0.04819679
1761615248072,-0.12299924,-0.04789677,-0.01835565,-0.01610541,0.03089764,-0.00984684,0.98330211,0.17473746,0.01631861,0.04814017
1761615248083,0.11676771,-0.03933307,0.00342679,-0.05152643,0.05075225,-0.00414483,0.98334888,0.17445407,0.01659774,0.04811737
1761615248095,-0.05184198,0.01639742,0.05812213,-0.04449315,0.04423674,0.00657289,0.98338669,0.17420713,0.01684326,0.04815385
1761615248106,0.02746537,0.03995663,-0.04225968,-0.02741831,0.04993916,0.00803926,0.98340684,0.17405359,0.01712292,0.04819887
1761615248117,0.16424704,-0.29195368,-0.07079371,-0.02654111,0.04711570,0.01602461,0.98342380,0.17390761,0.01738205,0.04828701
1761615248128,0.00784454,-0.05799168,0.58650860,-0.05506629,0.04295879,0.00401432,0.98347290,0.17359924,0.01762262,0.04830949
1761615248139,0.01288244,-0.10357236,0.13925214,-0.04984455,0.04492618,0.00930900,0.98351390,0.17332759,0.01786747,0.04836022
1761615248150,0.05199024,-0.11119456,-0.00276025,-0.05200573,0.05002045,-0.00325820,0.98356179,0.17303116,0.01815259,0.04834165
1761615248161,0.15787410,0.28159457,-0.35398090,-0.06420403,0.04902866,-0.01045083,0.98362165,0.17267803,0.01842225,0.04828417
1761615248172,-0.04137843,0.01600951,-0.24432978,-0.06386587,0.04710873,-0.00534259,0.98367981,0.17232677,0.01868134,0.04825479
1761615248184,0.07290439,-0.21540744,-0.02797356,-0.05440354,0.06754056,0.00092104,0.98372603,0.17201939,0.01906295,0.04825999
1761615248195,-0.08273519,0.05250124,0.22777938,-0.08389372,0.06498639,-0.01327712,0.98380879,0.17152442,0.01944637,0.04818166
1761615248207,0.01311904,0.05794107,-0.00144309,-0.10033938,0.07141926,-0.02413920,0.98390436,0.17096753,0.01984274,0.04804768
1761615248218,0.25649158,-0.06926181,-0.12441053,-0.09971343,0.06983045,-0.00763099,0.98399616,0.17040415,0.02023729,0.04800457
1761615248228,-0.11391744,0.20043940,0.15114744,-0.10378666,0.07399557,-0.03769265,0.98409011,0.16986965,0.02061836,0.04781045
1761615248240,0.06225741,0.13832890,0.23698773,-0.09657811,0.07489027,-0.02429615,0.98418347,0.16931433,0.02104898,0.04767075
1761615248252,-0.14428569,-0.02173858,-0.05069752,-0.06171362,0.06686221,-0.01217533,0.98424392,0.16893170,0.02146353,0.04759526
1761615248262,0.23592443,-0.28516621,-0.33531355,-0.08563080,0.09884889,-0.00669070,0.98430930,0.16849499,0.02196766,0.04756114
1761615248274,-0.32950351,0.03119087,0.10689466,-0.06599393,0.09093680,-0.00744628,0.98436444,0.16811552,0.02249054,0.04751832
1761615248284,0.11207914,-0.00327041,-0.05768017,-0.10241977,0.11463249,-0.00032391,0.98443710,0.16761366,0.02305224,0.04751674
1761615248295,-0.09501533,-0.05777039,0.08451073,-0.06557657,0.10680968,-0.00820056,0.98448714,0.16724971,0.02364504,0.04747122
1761615248306,-0.01335598,0.08403350,0.22143526,-0.07469430,0.09944004,-0.02499790,0.98455132,0.16683143,0.02420190,0.04733123
1761615248317,0.13684740,-0.10572412,0.03041053,-0.06981295,0.09424038,-0.00499286,0.98460571,0.16644047,0.02472965,0.04730327
1761615248328,-0.07792699,0.01092879,0.26609216,-0.06104859,0.08779027,-0.01243287,0.98465432,0.16609860,0.02522127,0.04723365
1761615248341,-0.19856862,0.19176347,0.24250575,-0.06004645,0.08245487,-0.01499496,0.98470871,0.16572331,0.02573662,0.04713993
1761615248351,0.32371702,-0.07035632,-0.38131085,-0.07495078,0.10066175,-0.00739462,0.98475916,0.16535605,0.02622986,0.04710370
1761615248361,-0.02977319,0.17136224,-0.10025417,-0.05939128,0.10552382,0.00118870,0.98479767,0.16503237,0.02680496,0.04711018
1761615248373,-0.20273325,0.03697933,0.05844747,-0.05962250,0.08609849,-0.00852644,0.98484300,0.16469550,0.02729142,0.04706200
1761615248384,0.07521042,-0.11064083,-0.06404530,-0.05833156,0.08152420,-0.00999103,0.98488709,0.16437176,0.02774388,0.04700655
1761615248396,-0.11905488,0.19553998,0.25062783,-0.03966449,0.07349618,-0.01001066,0.98491887,0.16411989,0.02821058,0.04694298
1761615248406,0.41097258,-0.11469747,-0.46145966,-0.04947738,0.08700291,-0.01577413,0.98494900,0.16388982,0.02861514,0.04686964
1761615248417,-0.23407522,-0.14401675,0.28433105,-0.04884278,0.06934163,-0.00672162,0.98498427,0.16362119,0.02899652,0.04683267
1761615248429,-0.02366263,-0.19224546,0.28621678,-0.05655009,0.06937884,0.00460847,0.98502656,0.16328472,0.02940933,0.04686009
1761615248439,0.16587774,-0.27873637,0.18563467,-0.04643451,0.08180137,0.02207364,0.98504892,0.16303629,0.02984696,0.04697818
1761615248451,-0.15869609,0.18611575,-0.04810264,-0.04266955,0.08337086,0.00947185,0.98507165,0.16279734,0.03031384,0.04703122
1761615248462,-0.14853982,0.19910546,-0.04487870,-0.05327172,0.08841788,0.01510032,0.98510177,0.16249636,0.03081340,0.04711654
1761615248474,-0.10345271,0.12978214,0.00819977,-0.04369821,0.08840147,-0.00610642,0.98512930,0.16224072,0.03133055,0.04708082
1761615248484,0.16500171,-0.02991767,-0.02016728,-0.05544178,0.08574531,0.00211483,0.98516256,0.16194688,0.03178500,0.04709203
1761615248497,-0.08216550,0.03076500,0.12528427,-0.03949635,0.06708113,-0.01153799,0.98519342,0.16169608,0.03221097,0.04701876
1761615248507,0.31243713,-0.04296316,-0.10950985,-0.05152400,0.06955192,-0.01553916,0.98522656,0.16144876,0.03254481,0.04694417
1761615248517,-0.02401765,0.10855849,0.17170062,-0.05277745,0.06970024,-0.01316813,0.98526410,0.16116377,0.03292120,0.04687306
1761615248529,-0.12607460,-0.15414072,0.13820303,-0.04617289,0.05000316,-0.01582797,0.98530184,0.16090058,0.03320621,0.04678284
1761615248540,0.04874151,0.02410285,0.12956254,-0.05672236,0.04470407,-0.02306577,0.98535043,0.16058861,0.03345209,0.04665598
1761615248552,-0.04630788,0.09686064,0.03133791,-0.03187043,0.02931641,-0.01988238,0.98538175,0.16039420,0.03363092,0.04653470
1761615248563,0.23112616,0.08748874,-0.00833420,-0.03163691,0.02594815,-0.01625905,0.98541065,0.16021228,0.03378012,0.04644121
1761615248573,0.20337774,0.15330306,0.12665635,-0.05609860,0.00590379,-0.02928946,0.98546260,0.15992899,0.03380993,0.04629330
1761615248585,-0.06092561,-0.01134692,0.07173128,0.00963429,-0.00157710,-0.02443375,0.98546058,0.15998246,0.03380118,0.04615769
1761615248596,-0.08056996,0.07570884,0.13494658,-0.04610542,-0.00931398,-0.02410572,0.98551324,0.15971044,0.03374623,0.04601547
1761615248609,-0.03181970,-0.07225610,-0.01726734,-0.01117458,-0.01379665,-0.00046693,0.98552730,0.15964227,0.03366207,0.04601262
1761615248618,0.49362924,0.24072266,0.26905930,-0.02425234,-0.01165682,-0.00266810,0.98554732,0.15953313,0.03360961,0.04600061
1761615248629,-0.31897440,-0.02611441,0.01809078,0.00715572,-0.00904410,-0.01747969,0.98554712,0.15957356,0.03355851,0.04590185
1761615248640,0.05826443,-0.01739397,0.03935877,-0.01437069,-0.00482529,-0.00917471,0.98556346,0.15949309,0.03353149,0.04585047
1761615248652,-0.11607053,-0.00341144,0.17335937,-0.01591686,-0.01710181,-0.00477900,0.98558322,0.15939998,0.03343145,0.04582252
1761615248662,0.07628019,0.09071195,0.04918494,0.00813495,-0.00134929,-0.02621796,0.98558294,0.15944309,0.03342429,0.04568356
1761615248675,-0.17647494,0.01108824,0.00737453,0.00449390,-0.01044627,-0.00776230,0.98558286,0.15947050,0.03336057,0.04563621
1761615248685,0.13707114,0.19281125,0.22888184,0.01004997,-0.00976310,-0.04940089,0.98558778,0.15952075,0.03331176,0.04538921
1761615248696,-0.16848556,-0.05167816,-0.08622621,0.02510782,-0.00224092,-0.03215791,0.98557384,0.15966010,0.03329932,0.04521073
1761615248708,-0.13274998,0.00679780,0.04146080,0.00649840,-0.00299955,-0.01390508,0.98557189,0.15970039,0.03328072,0.04512452
1761615248718,0.12989169,0.04401085,0.16688191,0.01320152,0.00176401,-0.01435177,0.98556395,0.15976838,0.03328981,0.04505061
1761615248729,-0.06318061,-0.07576553,-0.04636626,-0.00226657,-0.00069550,-0.01385823,0.98556963,0.15975580,0.03328595,0.04497369
1761615248740,0.00759809,-0.11197572,0.07729418,-0.00092883,-0.00130797,-0.00472490,0.98557183,0.15975083,0.03327895,0.04494842
1761615248751,-0.01897106,-0.09145364,-0.04966580,-0.00046171,0.00566804,0.00650234,0.98556951,0.15974825,0.03331069,0.04498483
1761615248763,-0.15863099,0.00610002,0.04048331,-0.00309245,0.00067537,0.00876232,0.98556997,0.15973000,0.03331467,0.04503653
1761615248776,0.06177204,-0.04780144,0.10615228,-0.00020369,0.00645512,0.00295844,0.98556824,0.15972890,0.03334953,0.04505250
1761615248785,-0.06919804,-0.03659647,-0.03097369,-0.00375388,0.00262257,-0.00266949,0.98557183,0.15970788,0.03336422,0.04503755
1761615248796,-0.01817749,-0.12966062,0.11388307,-0.01363743,0.00403502,-0.00272639,0.98558370,0.15963424,0.03338601,0.04502283
1761615248809,-0.06456408,-0.11327336,-0.13646059,-0.02017066,0.00968498,0.00080072,0.98560270,0.15950212,0.03344944,0.04502808
1761615248818,0.26125789,-0.26653143,0.28194350,-0.03246725,0.01260802,0.00456770,0.98562393,0.15935277,0.03350744,0.04504909
1761615248830,-0.23808208,-0.14713554,0.02680098,-0.03923498,0.01894922,0.01036657,0.98565472,0.15912128,0.03361924,0.04511025
1761615248841,0.04996137,-0.08122479,0.01442735,-0.01733756,0.01029044,0.00575366,0.98566673,0.15902593,0.03367584,0.04514190
1761615248852,-0.02883237,0.04374332,-0.01738035,-0.03289229,0.01098860,-0.01177906,0.98569707,0.15884337,0.03373683,0.04507652
1761615248864,0.02170289,0.17011040,-0.28495674,-0.04606467,0.01511849,0.00554801,0.98573694,0.15856699,0.03382754,0.04510981
1761615248874,0.21011534,-0.03913436,0.14790174,-0.04039073,0.01520873,0.01058101,0.98576410,0.15836705,0.03390282,0.04516219
1761615248885,-0.15721708,0.11657371,-0.15404932,-0.04454260,-0.00148452,0.00124768,0.98580410,0.15811761,0.03389451,0.04516917
1761615248898,0.04371514,-0.02399581,-0.02280790,-0.06033801,0.00118301,-0.01205965,0.98586110,0.15777972,0.03390113,0.04510164
1761615248908,-0.00656730,-0.05868917,-0.03921062,-0.07563269,-0.00347900,-0.00660238,0.98593303,0.15734483,0.03388113,0.04506367
1761615248919,0.07211071,-0.06110836,0.09285342,-0.07541681,-0.00802870,-0.00871054,0.98600157,0.15693758,0.03383777,0.04501664
1761615248930,0.07877957,-0.30631533,0.06509623,-0.05537954,-0.01733518,-0.01254232,0.98605642,0.15663299,0.03374243,0.04494766
1761615248942,-0.00312236,0.12537864,-0.05057007,-0.02677022,-0.02307192,0.00250919,0.98608572,0.15647371,0.03360515,0.04496258
1761615248952,0.15418015,-0.01472493,0.07118121,-0.00270359,-0.02056414,0.00428223,0.98609076,0.15645911,0.03349410,0.04498571
1761615248963,-0.13081952,0.59277596,0.04088110,-0.02940004,-0.03168795,0.00605287,0.98612024,0.15630035,0.03332299,0.04501839
1761615248975,-0.05193491,0.06723963,0.00712290,-0.02695430,-0.03471649,-0.00753244,0.98615291,0.15614806,0.03312684,0.04497584
1761615248986,-0.01229198,0.05531016,-0.08826383,-0.01357823,-0.03166977,-0.00260703,0.98617272,0.15606727,0.03293841,0.04496032
1761615248998,0.04060017,0.07673820,0.13107972,-0.01269407,-0.03224101,0.00320348,0.98618990,0.15599301,0.03274980,0.04497906
1761615249009,0.11383814,0.07991469,-0.08490690,0.01316179,-0.03346296,-0.00867606,0.98618677,0.15606408,0.03256910,0.04493221
1761615249019,0.03717492,0.06527891,0.18180066,0.00261509,-0.04007398,-0.01970296,0.98619596,0.15607742,0.03236472,0.04483173
1761615249030,-0.04792116,-0.11971753,-0.19737598,0.00786808,-0.02884209,-0.02293007,0.98620007,0.15612109,0.03220465,0.04470447
1761615249042,-0.06136900,-0.03480636,-0.03700948,-0.00171427,-0.03103225,-0.02477638,0.98621437,0.15611089,0.03202000,0.04455705
1761615249053,0.07274236,0.15636967,0.12662764,0.01655163,-0.04999199,-0.04213880,0.98621902,0.15619696,0.03176005,0.04433793
1761615249064,-0.06037603,0.09095190,-0.05997734,0.02535545,-0.02862121,-0.02836399,0.98620853,0.15634275,0.03159547,0.04417483
1761615249076,-0.09640320,-0.09611069,0.00195007,0.01158108,-0.04882885,-0.02421264,0.98621343,0.15641339,0.03129762,0.04402714
1761615249086,0.18071989,-0.13472989,0.23287340,-0.01368451,-0.05196742,-0.03524970,0.98623953,0.15634702,0.03104558,0.04385617
1761615249098,-0.20888936,-0.16860032,-0.15566849,-0.01305314,-0.03623813,-0.01551688,0.98626290,0.15626871,0.03082815,0.04376307
1761615249109,-0.08413581,-0.06910477,0.03801317,-0.00507944,-0.03735019,-0.01168082,0.98627682,0.15624026,0.03061899,0.04369766
1761615249120,-0.15476417,0.01435401,-0.05577350,0.00022412,-0.02075285,-0.01660151,0.98628407,0.15624147,0.03050692,0.04360801
1761615249131,0.04189960,-0.14017321,-0.02393201,0.01611774,-0.02098093,0.01596813,0.98626983,0.15632931,0.03039257,0.04369504
1761615249143,0.02258960,-0.08651163,-0.07251292,-0.00285310,-0.01165387,0.01642488,0.98627032,0.15631248,0.03032382,0.04379195
1761615249153,-0.13513960,-0.17343053,0.10585385,-0.04209034,-0.02656023,-0.00560866,0.98631090,0.15609150,0.03018437,0.04376250
1761615249165,-0.27418713,0.03660590,-0.05744773,-0.05632517,-0.01375477,0.00113286,0.98636376,0.15577045,0.03010597,0.04376896
1761615249175,-0.23160030,-0.03417367,-0.01154745,-0.04408207,0.00717082,0.00702154,0.98639878,0.15553020,0.03014505,0.04380722
1761615249187,-0.13813010,0.00882563,-0.05500294,-0.05417829,0.01048849,0.01901966,0.98644078,0.15522139,0.03020484,0.04391564
1761615249199,-0.08563547,-0.07805934,-0.14873003,-0.05627416,0.02382687,0.03090159,0.98648152,0.15488093,0.03034899,0.04410259
1761615249210,-0.18152034,-0.08883773,0.06509550,-0.07085221,0.02706136,0.03504346,0.98652767,0.15450541,0.03049242,0.04428832
1761615249221,-0.01119048,-0.04512475,-0.11289059,-0.05244114,0.03944449,0.03800138,0.98655692,0.15421436,0.03071133,0.04449923
1761615249231,-0.11135284,0.10640171,0.29645664,-0.05994107,0.03529768,0.02611036,0.98659444,0.15389668,0.03089841,0.04463761
1761615249243,0.04550822,0.05999177,-0.12537173,-0.06369046,0.03395841,0.03619945,0.98663484,0.15354001,0.03108858,0.04484033
1761615249254,-0.02472383,0.03209044,-0.00953707,-0.07050220,0.03851701,0.02863370,0.98668166,0.15314872,0.03130235,0.04499925
1761615249264,-0.09540765,-0.04967192,-0.41477744,-0.04430932,0.04334080,0.01548827,0.98670750,0.15290945,0.03153639,0.04508289
1761615249276,-0.03419011,0.13198497,-0.01240623,-0.04689912,0.04192283,0.00788373,0.98673806,0.15265151,0.03176696,0.04512625
1761615249287,-0.01147306,0.10908051,-0.01935216,-0.03775373,0.03816481,0.00189573,0.98676336,0.15244009,0.03198069,0.04513686
1761615249298,0.00473460,0.12882620,-0.06908519,-0.03221349,0.03839929,0.00863210,0.98678217,0.15225808,0.03219764,0.04518563
1761615249309,-0.00524580,0.14425964,-0.01765485,-0.02925793,0.04766052,0.03032738,0.98679059,0.15210009,0.03245501,0.04534940
1761615249320,0.05885187,0.08658138,-0.04439258,0.00470984,0.05008099,0.02169321,0.98677065,0.15212788,0.03275049,0.04547739
1761615249331,-0.13449817,0.17043185,0.10563394,0.02719474,0.04740866,0.01382126,0.98673699,0.15227065,0.03299938,0.04554995
1761615249343,0.20620449,-0.02947771,-0.03674252,0.02254677,0.04232334,0.01830467,0.98670394,0.15240029,0.03324274,0.04565520
1761615249353,0.06262450,0.10891823,-0.06442356,0.01000271,0.02805617,0.00725008,0.98668839,0.15245531,0.03339705,0.04569508
1761615249365,0.28082505,-0.04784556,-0.22682338,0.02906216,0.02808827,0.00141463,0.98665670,0.15262241,0.03355856,0.04570321
1761615249376,0.03772636,0.16422616,-0.14525174,0.04017991,0.00520554,-0.02145329,0.98662724,0.15284139,0.03358693,0.04558629
1761615249388,0.17752521,0.00479128,0.08108193,0.01180279,-0.00668496,-0.02401334,0.98662438,0.15290985,0.03354816,0.04544702
1761615249398,0.17515437,-0.00830838,-0.04088110,-0.01140425,-0.02537253,-0.04384233,0.98664945,0.15284827,0.03341114,0.04521027
1761615249410,0.08579931,-0.11956192,-0.02831043,-0.02439556,-0.05602227,-0.03801793,0.98669202,0.15270799,0.03308902,0.04499166
1761615249421,0.12653404,-0.06786106,0.00274143,-0.02827547,-0.05991723,-0.03785932,0.98673654,0.15255248,0.03275947,0.04478344
1761615249433,-0.17989665,-0.34691208,0.08355159,-0.00719579,-0.07115592,-0.02323251,0.98676429,0.15250822,0.03232186,0.04464056
1761615249443,0.13569130,-0.10041868,-0.08045361,-0.00322230,-0.08008207,-0.01360843,0.98678270,0.15249227,0.03192546,0.04457320
1761615249455,-0.02872968,-0.06373820,0.03588127,-0.01931773,-0.07857346,0.00434962,0.98681589,0.15237154,0.03143437,0.04460038
1761615249466,0.25049570,0.19113713,-0.21243502,-0.04119812,-0.10072804,0.00968636,0.98686276,0.15215937,0.03091562,0.04465027
1761615249491,-0.12045210,0.04982750,0.11261703,-0.01774978,-0.04017772,0.00126763,0.98691281,0.15193306,0.03040336,0.04466643
1761615249498,1.77576468,-0.65834946,-1.16459364,-0.07040273,-0.28415930,0.01575689,0.98697649,0.15169369,0.02943721,0.04472000
1761615249505,-0.44735683,0.20385790,0.72069386,-0.03584318,-0.21228131,0.02127156,0.98701427,0.15156824,0.02869423,0.04479445
1761615249516,-0.33565626,-0.08087301,0.20831215,-0.04279356,-0.13386160,-0.00137905,0.98707290,0.15132859,0.02794460,0.04478673
1761615249528,0.05435747,-0.17555438,0.33285251,-0.06125429,-0.12200090,0.00850371,0.98714484,0.15097332,0.02723700,0.04483605
1761615249540,-0.10049342,-0.07291235,0.18953225,-0.03444893,-0.10639893,0.00906336,0.98719059,0.15077007,0.02660925,0.04488953
1761615249551,0.03503307,0.13165371,0.01723266,-0.01855577,-0.10397552,-0.01063800,0.98722408,0.15066801,0.02603738,0.04483102
1761615249562,-0.10464359,0.31391028,-0.28189033,-0.00796880,-0.10246005,0.00230452,0.98724583,0.15062219,0.02544824,0.04484427
1761615249574,0.06490033,0.03042203,-0.02163344,-0.02393844,-0.10141224,0.02209756,0.98727590,0.15048455,0.02486511,0.04497133
1761615249585,-0.07571705,-0.00946463,0.03605574,-0.02667201,-0.10272378,-0.02497507,0.98732050,0.15033118,0.02427445,0.04482772
1761615249596,-0.01511594,0.04444873,0.12839616,-0.02384711,-0.10815374,-0.01536797,0.98735977,0.15019645,0.02366338,0.04474089
1761615249608,0.05271158,0.02821043,-0.01078481,-0.01958661,-0.10582967,-0.01056687,0.98739405,0.15008382,0.02305486,0.04468013
1761615249619,-0.08951274,0.06164951,0.05097070,-0.02169814,-0.12243581,-0.01232170,0.98743140,0.14996231,0.02236922,0.04461113
1761615249631,0.00965779,0.02085881,0.27486063,0.01790298,-0.09944698,-0.00326633,0.98742940,0.15006526,0.02179740,0.04459235
1761615249642,-0.08678268,0.11838652,0.08403876,0.01005223,-0.09971134,0.00512149,0.98743173,0.15012205,0.02123403,0.04462129
1761615249653,-0.09927022,0.12970030,0.04993479,0.04216772,-0.09626638,0.01593111,0.98740347,0.15035608,0.02069976,0.04470970
1761615249664,-0.05900321,0.13190192,-0.40618007,0.06804787,-0.09230659,0.00645497,0.98735355,0.15074395,0.02017361,0.04474650
1761615249675,0.02786370,-0.00999166,0.05551223,0.03841778,-0.10494241,0.01387545,0.98732987,0.15095141,0.01960692,0.04482142
1761615249687,-0.01149691,-0.03666693,0.03132692,0.02024192,-0.10580219,0.00783039,0.98732206,0.15106578,0.01900914,0.04486567
1761615249698,-0.01506045,0.05307852,-0.00574339,0.02356279,-0.10561641,0.01040645,0.98731011,0.15120126,0.01840184,0.04492550
1761615249709,-0.02458718,0.12102977,0.03118375,0.04860297,-0.10526137,0.00887186,0.98727753,0.15146858,0.01782291,0.04497430
1761615249720,-0.04748190,0.07852311,-0.08252313,0.06126233,-0.09934785,0.00461601,0.98723355,0.15181165,0.01726656,0.04500015
1761615249732,-0.01199012,-0.03701048,0.16393046,0.06286115,-0.08762938,0.01154291,0.98718399,0.15216996,0.01676707,0.04506594
1761615249743,-0.01895824,0.01791087,0.02112338,0.06291011,-0.07231918,0.01943094,0.98713285,0.15251282,0.01637293,0.04517184
1761615249754,-0.11189472,0.00907390,-0.02015744,0.06293426,-0.06747157,0.00740626,0.98708264,0.15286525,0.01599509,0.04521332
1761615249765,-0.13061366,0.06454107,-0.28658347,0.05744644,-0.05906174,0.00357075,0.98703634,0.15319269,0.01565844,0.04523367
1761615249776,-0.08153626,0.00946372,-0.02471436,0.05999010,-0.06163648,0.00146549,0.98699044,0.15351964,0.01532252,0.04524166
1761615249787,0.02842716,-0.10971977,-0.00572246,0.05754984,-0.03590037,0.00820021,0.98694037,0.15384767,0.01511789,0.04528840
1761615249799,-0.14405527,-0.09028090,-0.09368405,0.02878033,-0.04129538,0.00013865,0.98691775,0.15401604,0.01487631,0.04528921
1761615249810,-0.06409951,-0.07914709,-0.00510135,0.02908276,-0.02204897,0.00891487,0.98689350,0.15416872,0.01476055,0.04533601
1761615249821,-0.10293002,-0.03517401,-0.01688916,0.01868104,-0.01700719,0.00554591,0.98687744,0.15427147,0.01466701,0.04536651
1761615249832,-0.09791158,0.11084711,0.17073039,0.02438632,-0.00295515,-0.00443328,0.98685639,0.15441535,0.01464958,0.04534036
1761615249843,-0.11418126,0.12993853,-0.12974661,0.03352265,0.00139116,-0.00762908,0.98683008,0.15459469,0.01465702,0.04529954
1761615249854,0.06105199,0.03454713,-0.02565001,0.03169625,0.00361230,0.00526909,0.98680060,0.15477219,0.01467725,0.04532905
1761615249865,0.02140659,-0.07967215,-0.29378337,0.02485257,-0.00163482,-0.00492843,0.98678035,0.15491013,0.01466817,0.04530170
1761615249877,-0.00193506,-0.09868799,-0.03096094,0.00772417,0.00832197,-0.00436169,0.98677404,0.15495299,0.01471436,0.04527749
1761615249888,0.02322070,-0.19592469,-0.02322070,0.01734163,0.00923250,0.00992871,0.98675563,0.15504924,0.01476560,0.04533259
1761615249900,-0.00141919,-0.07913534,0.05837195,-0.00448385,0.01496185,0.00876869,0.98675608,0.15502279,0.01485388,0.04538433
1761615249910,-0.12720712,-0.13275018,-0.13119920,-0.01844824,0.01668080,0.01048738,0.98676754,0.15492501,0.01494229,0.04543991
1761615249921,0.05719376,-0.01042604,0.03227532,-0.02661136,0.01588219,0.01153254,0.98678643,0.15477732,0.01503043,0.04550392
1761615249932,0.14966176,-0.17156472,0.15450788,-0.00090054,0.01920793,0.00775657,0.98678363,0.15477236,0.01513608,0.04554658
1761615249943,-0.00625489,0.01206918,0.06413858,-0.00412296,0.00307335,0.00214250,0.98678643,0.15474928,0.01515329,0.04555858
1761615249955,0.15775464,-0.09170676,0.02280790,-0.00723673,0.00631969,0.00238899,0.98679162,0.15470875,0.01518868,0.04557196
1761615249966,-0.03427585,0.13161028,-0.26053651,-0.00987793,-0.00282093,0.00325290,0.98679977,0.15465294,0.01517274,0.04559033
1761615249977,0.02325699,0.05403518,0.02874873,-0.02657127,-0.00923581,0.00944434,0.98682046,0.15451078,0.01512333,0.04564086
1761615249988,0.06599548,-0.04040475,-0.00620024,-0.02392443,-0.00722794,0.00903913,0.98684022,0.15437322,0.01508177,0.04569284
1761615249999,-0.02741428,-0.11394061,0.07881606,-0.02930596,-0.00381261,0.00737760,0.98686386,0.15421204,0.01506080,0.04573341
1761615250010,0.04019502,-0.08981499,0.00692549,-0.04138098,0.00217413,0.02748521,0.98689297,0.15397823,0.01507308,0.04588870
1761615250021,-0.00703813,-0.05013386,-0.03561878,-0.03310394,0.00114116,0.00866709,0.98691928,0.15379451,0.01507941,0.04593681
1761615250033,-0.06571555,0.73520605,0.24163158,-0.05018607,-0.00579916,-0.00073728,0.98696293,0.15351848,0.01504752,0.04593275
1761615250044,0.19445462,0.01965453,0.03137814,-0.01607111,0.01204997,0.00235235,0.98697528,0.15342848,0.01511500,0.04594593
1761615250056,-0.01734325,0.05009174,0.03874643,-0.01768756,-0.01213916,-0.02109267,0.98699975,0.15331794,0.01503913,0.04581410
1761615250066,0.10306416,-0.58431648,-0.13988391,-0.05082236,-0.00849392,-0.02091245,0.98704423,0.15306637,0.01499708,0.04571058
1761615250079,0.10747284,0.09734196,0.14082836,-0.04228540,-0.02022648,0.00837163,0.98708725,0.15278517,0.01486258,0.04576625
1761615250088,0.01116511,0.05554954,0.12683568,-0.04548712,-0.00658583,-0.01487279,0.98712051,0.15259185,0.01483459,0.04570304
1761615250100,-0.01646767,-0.01180878,0.01534204,-0.01677115,-0.01453528,-0.00536126,0.98713824,0.15249458,0.01475028,0.04567195
1761615250110,-0.00768283,-0.01525993,0.14435258,-0.03009993,-0.01621653,0.00553150,0.98716326,0.15233204,0.01466271,0.04570182
1761615250122,0.02949540,-0.05723973,0.08757107,-0.02160472,-0.01169822,-0.00282728,0.98718362,0.15221105,0.01459720,0.04568598
1761615250133,0.10361952,-0.11412315,0.23521597,-0.00565716,-0.01430602,0.00402774,0.98718874,0.15217880,0.01451566,0.04570894
1761615250144,0.02367939,0.09971701,0.05530952,0.00031416,-0.00358594,0.00498711,0.98718749,0.15218053,0.01449594,0.04573637
1761615250155,-0.06939824,0.17351539,0.05558896,0.01811267,-0.00327151,0.00408854,0.98717120,0.15228106,0.01447778,0.04575906
1761615250167,-0.09692435,0.20873574,-0.13050947,0.01677425,-0.00305215,0.00212604,0.98715588,0.15237835,0.01446008,0.04577139
1761615250177,0.06793064,-0.02288216,0.08760611,0.03489523,0.00554055,0.00284769,0.98712590,0.15256504,0.01448972,0.04578663
1761615250189,0.01171028,-0.04514802,-0.00555510,0.05161577,0.00858567,0.00190520,0.98707916,0.15285925,0.01453866,0.04579749
1761615250200,-0.00055310,-0.02912824,0.17546944,0.04551087,0.00467389,-0.01501495,0.98704381,0.15310956,0.01456436,0.04571491
1761615250211,0.01441114,-0.04780585,-0.12737475,0.03937474,0.00123476,0.00360045,0.98700823,0.15333202,0.01457134,0.04573525
1761615250223,0.03312275,-0.03988139,0.07336634,0.02580899,0.01543701,-0.00515676,0.98698483,0.15348301,0.01466165,0.04570508
1761615250233,-0.08915225,0.45987496,0.71811645,0.05233350,0.01969335,-0.00969667,0.98694328,0.15375514,0.01476405,0.04565466
1761615250245,0.01172064,0.04899722,-0.20948219,0.05681939,0.00478759,0.00626714,0.98688840,0.15409322,0.01479254,0.04569195
1761615250256,0.09179519,0.05306352,0.14621612,0.05807753,0.01927833,-0.01683353,0.98684288,0.15440103,0.01489471,0.04560273
1761615250267,0.03139510,-0.42698801,-0.64673205,0.02507061,-0.00503731,-0.02583520,0.98682773,0.15454393,0.01486600,0.04545547
1761615250278,0.08185808,-0.02656153,0.14560230,0.01260323,-0.00727892,-0.01916235,0.98682233,0.15461325,0.01482597,0.04535008
1761615250289,0.03625596,-0.01688559,-0.08542404,0.01461071,-0.01252750,-0.01644095,0.98681485,0.15469434,0.01475644,0.04525883
1761615250300,0.04837647,-0.01499670,0.10062305,0.00727828,-0.00724080,-0.00357322,0.98681003,0.15473473,0.01471625,0.04523900
1761615250311,-0.01161035,0.01983435,-0.10836329,0.02469101,-0.01350428,0.00105740,0.98678937,0.15487177,0.01464130,0.04524487
1761615250322,0.03676611,-0.11295905,0.09288282,0.01751148,-0.00800042,0.00314688,0.98677397,0.15496895,0.01459690,0.04526233
1761615250334,-0.02811329,-0.19456804,0.18266203,0.02453639,-0.01343074,0.00403547,0.98675207,0.15510881,0.01452035,0.04528533
1761615250345,0.04614932,0.01839387,-0.02654253,0.02169587,-0.00319007,0.00301842,0.98673245,0.15523031,0.01450248,0.04530224
1761615250356,0.00516014,0.10314683,-0.09094748,0.03675679,-0.00971637,-0.00168583,0.98670212,0.15543063,0.01444953,0.04529305
1761615250368,0.03779594,0.15077338,-0.28131745,0.03029659,0.00275191,-0.00731001,0.98667568,0.15560938,0.01446576,0.04524992
1761615250379,0.01217710,-0.01381199,0.05798619,0.02327114,-0.01222647,-0.01748383,0.98666061,0.15573970,0.01439730,0.04515201
1761615250389,0.15543161,0.01659064,0.07676970,0.00719223,-0.00398642,-0.01090483,0.98665757,0.15577746,0.01437637,0.04509476
1761615250400,-0.04229485,0.02122345,-0.07386395,0.01369274,-0.00774711,-0.01316880,0.98664953,0.15585346,0.01433337,0.04502167
1761615250413,-0.00346225,-0.00793860,-0.06108817,0.01926848,-0.01017555,-0.00989314,0.98663473,0.15597003,0.01427181,0.04496182
1761615250423,0.21011692,0.21051048,0.17955938,0.03176914,-0.00406327,-0.00998417,0.98661195,0.15613046,0.01425129,0.04491140
1761615250434,-0.16979842,0.17511461,-0.04147575,0.03150740,-0.02262446,-0.01539546,0.98658976,0.15630691,0.01412459,0.04482519
1761615250445,0.04352834,-0.03440089,-0.01420381,0.01494334,-0.01839832,-0.02013701,0.98658302,0.15639134,0.01402064,0.04471141
1761615250456,0.11152399,-0.09598300,0.03644064,0.00361549,-0.02688353,-0.02224620,0.98658746,0.15641104,0.01387413,0.04459017
1761615250467,0.06967937,-0.26460910,-0.21745350,0.01296660,-0.02877255,-0.01944223,0.98658303,0.15648495,0.01371012,0.04447935
1761615250479,0.03321150,0.00021674,-0.02787632,0.00684481,-0.03804960,-0.01326043,0.98658324,0.15652328,0.01349705,0.04440509
1761615250490,0.03075361,0.01123889,-0.01831395,0.00628772,-0.03020760,-0.00975297,0.98658241,0.15655818,0.01332939,0.04435096
1761615250501,-0.00386981,-0.03964842,-0.01226010,0.00885067,-0.02401927,-0.00339786,0.98657721,0.15660774,0.01319488,0.04433193
1761615250512,-0.03975789,-0.04623666,-0.08505291,0.00609836,-0.02665279,-0.00550225,0.98657510,0.15664281,0.01304163,0.04430030
1761615250523,0.05610095,-0.12475482,0.03992503,0.00214708,-0.02347462,-0.01223458,0.98657792,0.15665451,0.01291369,0.04423362
1761615250534,-0.08628902,-0.06622181,0.17659149,-0.00565424,-0.02444713,-0.01655738,0.98658859,0.15662369,0.01278046,0.04414338
1761615250545,-0.02483062,-0.03061760,-0.09297532,-0.02097452,-0.02913996,-0.01501047,0.98661308,0.15650624,0.01261727,0.04405932
1761615250557,0.01808346,0.00161752,-0.00196559,-0.00833778,-0.01630198,-0.02399769,0.98662791,0.15645871,0.01252435,0.04392253
1761615250568,0.06961119,0.08698216,-0.10917805,-0.00199912,-0.01920730,-0.01911544,0.98663573,0.15644762,0.01241775,0.04381644
1761615250579,-0.08429030,0.04326695,-0.08448863,-0.00723614,-0.02214423,-0.01407570,0.98664741,0.15640637,0.01229153,0.04373621
1761615250590,0.06499766,0.00648208,0.12076313,-0.00083245,-0.01132701,-0.01292191,0.98665189,0.15640196,0.01223150,0.04366773
1761615250601,-0.10996937,-0.04271827,-0.03890638,-0.00930784,-0.01460388,-0.01831831,0.98666594,0.15634890,0.01214825,0.04356331
1761615250613,-0.04230608,-0.03383626,-0.00379985,-0.01173573,-0.01280939,-0.01104988,0.98668009,0.15628260,0.01207588,0.04350088
1761615250623,0.06685688,-0.05602836,0.03625032,-0.00749359,-0.01075681,0.00197416,0.98668674,0.15624213,0.01201779,0.04351154
1761615250635,-0.25808400,0.12590196,-0.06452100,0.00880037,-0.00914448,-0.00596986,0.98668098,0.15629185,0.01196613,0.04347781
1761615250646,0.02160877,0.04506427,0.01870271,0.01837430,0.00199510,-0.00944744,0.98666661,0.15639659,0.01197750,0.04342396
1761615250657,0.06280129,-0.05684504,-0.03573755,0.01882370,-0.01082743,-0.00465590,0.98665258,0.15649635,0.01192012,0.04339928
1761615250668,0.19648504,0.08644857,-0.05020607,-0.00120592,-0.00518447,-0.01253165,0.98665708,0.15648960,0.01189108,0.04332911
1761615250679,-0.05886578,0.12849903,-0.09989344,0.03037249,-0.01401847,-0.03016954,0.98663827,0.15666120,0.01181188,0.04315865
1761615250690,0.08225118,0.01599207,0.03759456,0.03757429,-0.01058173,-0.02236616,0.98661150,0.15686786,0.01175368,0.04303563
1761615250702,-0.04248116,-0.06385434,-0.02856355,-0.00171062,-0.00634218,-0.03016826,0.98662122,0.15685785,0.01171658,0.04285915
1761615250713,0.07327698,-0.21034426,0.08037863,-0.02400739,-0.02186755,-0.01286269,0.98664600,0.15672941,0.01159959,0.04279033
1761615250724,-0.11995555,-0.04628769,0.01222523,-0.03090872,-0.02762268,-0.01250218,0.98667803,0.15655787,0.01144628,0.04272095
1761615250735,-0.22289939,0.14885191,0.03182595,-0.03586002,-0.02149510,-0.00463056,0.98671269,0.15635526,0.01132483,0.04269478
1761615250746,-0.12128663,-0.02125682,-0.05694412,-0.03790455,-0.02370133,-0.00994595,0.98674889,0.15615058,0.01119685,0.04264108
1761615250757,0.10960463,-0.17556451,-0.04082896,-0.02348233,-0.02100577,0.00201982,0.98677053,0.15601908,0.01107921,0.04265239
1761615250769,0.17605956,-0.20366292,-0.04332790,-0.02715782,-0.03389312,-0.00699330,0.98680060,0.15585477,0.01087416,0.04261008
1761615250779,0.05922189,-0.07809922,0.01424204,-0.04258925,-0.02671407,-0.01124632,0.98683885,0.15563757,0.01073792,0.04255272
1761615250790,-0.12986636,-0.04167882,0.04186572,-0.05513694,-0.02339020,0.00063708,0.98688742,0.15533707,0.01061044,0.04255619
1761615250802,-0.04083144,-0.11755659,-0.01844652,-0.05894677,-0.01470498,0.00545510,0.98693981,0.15500107,0.01052662,0.04258729
1761615250813,-0.04388187,-0.17180534,0.10310238,-0.08668852,-0.00759700,0.00715160,0.98701465,0.15451562,0.01048408,0.04262734
1761615250824,-0.11132768,-0.16577322,-0.00154817,-0.10934373,-0.01733931,0.02234515,0.98710430,0.15391423,0.01038871,0.04275024
1761615250836,-0.12309773,-0.00253340,0.05342330,-0.10946360,-0.00537109,0.01560750,0.98720113,0.15326839,0.01035702,0.04284232
1761615250846,0.00789872,-0.24252601,0.04376368,-0.13027713,-0.01648164,0.02054562,0.98730329,0.15258444,0.01027050,0.04295018
1761615250857,0.06197716,-0.06585419,0.09995960,-0.16035251,-0.00909306,0.02305052,0.98743537,0.15169448,0.01022003,0.04307811
1761615250869,0.06180155,-0.15486133,-0.00941994,-0.17543238,-0.02446575,0.02281988,0.98758292,0.15070329,0.01008180,0.04320705
1761615250881,-0.02124077,0.04851924,0.05838850,-0.17077595,-0.02951377,0.04772749,0.98773398,0.14963594,0.00989734,0.04350534
1761615250891,0.05943315,-0.53884399,0.17608091,-0.23771014,-0.02729634,0.05011637,0.98790191,0.14845927,0.00976222,0.04375342
1761615250902,-0.24979258,0.00540200,-0.06404643,-0.26940178,-0.03114588,0.04528907,0.98811789,0.14695062,0.00958780,0.04400704
1761615250913,-0.74626747,-1.01498226,-0.02078390,-0.31617461,-0.00793500,0.05221494,0.98836033,0.14522747,0.00954456,0.04429161
1761615250925,-0.15006844,0.42231195,-0.21929817,-0.32655822,0.01646401,0.04346323,0.98862905,0.14330078,0.00964169,0.04454804
1761615250936,-0.20949832,-0.57943330,0.01704534,-0.41481596,0.07524272,0.07206777,0.98892949,0.14106077,0.01004800,0.04493721
1761615250947,-0.37115500,-0.48557207,-0.25220265,-0.45019461,0.08040975,0.09352370,0.98925432,0.13856219,0.01049428,0.04545627
1761615250958,-0.11728456,-0.67218335,0.09568387,-0.50263144,0.12092004,0.10430003,0.98959753,0.13584798,0.01114725,0.04601949
1761615250969,-0.17614409,-0.24868863,-0.20146111,-0.53267062,0.13422436,0.12497701,0.98995771,0.13289166,0.01189219,0.04671311
1761615250980,0.16174088,-0.00298322,-0.16475352,-0.52801035,0.16397362,0.15689913,0.99031175,0.12980280,0.01285144,0.04763097
1761615250992,-0.10275912,0.26146971,-0.34833601,-0.50559061,0.16614328,0.15736369,0.99063716,0.12684509,0.01382338,0.04855155
1761615251002,-0.25080819,-0.36641828,-0.58997391,-0.54991815,0.21469839,0.15853506,0.99093064,0.12409550,0.01489687,0.04934422
1761615251014,0.25464429,0.74621704,-0.14040205,-0.41097044,0.18089170,0.08650430,0.99119345,0.12162968,0.01598222,0.04986325
1761615251026,0.08930244,-0.10269781,-0.05600870,-0.40825273,0.17094642,0.08514461,0.99144598,0.11920058,0.01699935,0.05036986
1761615251035,-0.75446730,-1.38140979,-0.44435291,-0.49678186,0.22228219,0.05770412,0.99168648,0.11691538,0.01802185,0.05063530
1761615251047,0.70070323,1.02064345,0.31032230,-0.38818673,0.15786747,0.03523177,0.99193183,0.11456685,0.01897695,0.05084845
1761615251058,-0.03031387,-0.84367833,-0.48640643,-0.45656474,0.16819527,0.01988139,0.99218074,0.11219271,0.01985156,0.05095183
1761615251068,0.32500475,0.65101187,-0.14056809,-0.50172191,0.14773480,-0.01012713,0.99246988,0.10948342,0.02064933,0.05089714
1761615251080,0.39290022,0.17928939,-0.00244607,-0.49638079,0.13603331,-0.01106848,0.99276472,0.10665405,0.02142472,0.05083405
1761615251091,0.17609861,-0.15311373,-0.30959840,-0.49111662,0.11022855,-0.03011212,0.99304387,0.10397746,0.02202546,0.05066994
1761615251102,0.22579827,0.23601946,-0.02371778,-0.47956675,0.09136649,-0.04280277,0.99331966,0.10131586,0.02253255,0.05043239
1761615251113,-0.04981095,0.15278682,-0.11027243,-0.46931823,0.04688191,-0.06111312,0.99359554,0.09868768,0.02279509,0.05009015
1761615251124,0.39343627,-0.00926571,0.17486057,-0.47095505,0.05442156,-0.05756166,0.99386312,0.09605033,0.02309985,0.04976781
1761615251136,-0.39550602,0.64363504,-0.07902118,-0.48891629,0.00650971,-0.03385396,0.99413491,0.09328796,0.02313663,0.04957653
1761615251147,0.32681942,-0.17647350,-0.13952972,-0.43651506,0.02307173,-0.03660161,0.99436639,0.09086530,0.02326468,0.04937340
1761615251158,-0.00361659,0.14650954,0.04743614,-0.39820115,0.01562218,-0.04098407,0.99457882,0.08861546,0.02335294,0.04914184
1761615251169,0.47432138,0.01749929,0.07058972,-0.37575092,0.01200823,-0.03865207,0.99477657,0.08647368,0.02342139,0.04892152
1761615251181,-0.12375715,0.00801940,-0.05627707,-0.35316394,-0.01533631,-0.04299248,0.99496196,0.08447831,0.02333474,0.04867861
1761615251192,0.05601502,0.05158049,0.17924805,-0.34332099,-0.01621346,-0.03506823,0.99513657,0.08253854,0.02324313,0.04848048
1761615251203,-0.03114281,0.01548204,-0.05649647,-0.35046342,-0.02467505,-0.04675799,0.99531022,0.08061099,0.02310742,0.04822331
1761615251214,0.14975051,-0.07265855,0.15763212,-0.33700079,-0.01607434,-0.03215004,0.99546920,0.07875749,0.02301901,0.04804648
1761615251225,-0.19556046,0.09978024,0.17900746,-0.32911242,-0.01432310,-0.04270383,0.99562665,0.07691446,0.02293880,0.04780734
1761615251237,0.14666600,-0.39661164,0.66869477,-0.29640769,-0.01960394,-0.03822692,0.99576874,0.07522494,0.02282706,0.04758945
1761615251248,0.03712257,0.17034882,0.28027797,-0.28667853,-0.01098191,-0.05098078,0.99590253,0.07363387,0.02276611,0.04730650
1761615251259,-0.12964893,0.07159717,-0.02322070,-0.26327875,-0.01831087,-0.05048185,0.99602508,0.07217267,0.02266448,0.04702633
1761615251270,-0.26397738,0.67023183,-0.34568939,-0.25597475,-0.02120679,-0.05034518,0.99614597,0.07071362,0.02254361,0.04673936
1761615251281,-0.09627312,-0.03424869,0.04327970,-0.26844024,-0.02009418,-0.03404163,0.99626094,0.06923719,0.02243309,0.04655213
1761615251292,0.03152642,0.16502112,0.28373781,-0.27251395,-0.00759118,-0.02622683,0.99637164,0.06773837,0.02239134,0.04640789
1761615251304,-0.19330142,0.26401102,-0.00684914,-0.24569775,-0.01046155,-0.01402943,0.99647437,0.06628875,0.02232961,0.04632511
1761615251315,0.17614915,-0.05652042,0.09844766,-0.20803962,-0.00348529,-0.01445973,0.99655539,0.06512373,0.02231009,0.04624414
1761615251325,-0.12031208,-0.07976996,-0.07223541,-0.21131448,-0.01219620,-0.00410368,0.99662829,0.06403546,0.02224728,0.04622300
1761615251336,-0.23583848,0.63918706,0.69693632,-0.21353929,-0.00987858,0.02142062,0.99669816,0.06287167,0.02219345,0.04633975
1761615251347,-0.07163268,0.29097779,0.09558125,-0.20774244,-0.00599642,0.01089722,0.99676815,0.06171870,0.02216017,0.04640023
1761615251359,0.07084466,-0.19524305,-0.19288197,-0.18269479,-0.00944033,0.02270332,0.99682776,0.06066821,0.02210588,0.04653077
1761615251370,0.13465974,-0.24609822,-0.02226588,-0.18166419,-0.01024588,0.01675569,0.99688450,0.05967814,0.02205004,0.04662209
1761615251381,0.02870168,0.23296142,0.11376050,-0.11761997,-0.00421520,-0.00642406,0.99692591,0.05901946,0.02202644,0.04658611
1761615251392,-0.01012450,0.39343889,0.02950964,-0.05742312,-0.00826837,-0.00398286,0.99694677,0.05870077,0.02198055,0.04656401
1761615251403,0.06705386,0.46940909,0.14561440,0.01389696,-0.00021185,-0.00978677,0.99694477,0.05877859,0.02197936,0.04650920
1761615251415,-0.00196559,0.42040351,0.19786970,0.03423050,-0.00488018,-0.00216930,0.99693444,0.05897370,0.02195155,0.04649684
1761615251428,0.01949250,0.15756126,0.15578922,0.00164434,0.00087184,-0.00407759,0.99693491,0.05898431,0.02195717,0.04647054
1761615251436,-0.20525959,0.21852318,1.47129991,0.19264877,-0.00296178,-0.05373345,0.99689703,0.05980307,0.02194458,0.04624217
1761615251448,0.10484914,0.59042953,-0.32637035,0.26269424,-0.01757146,-0.08603550,0.99682913,0.06133983,0.02184179,0.04573886
1761615251459,0.15023827,1.56568133,0.36451603,0.47806912,-0.03392887,-0.12079866,0.99670186,0.06389750,0.02166027,0.04509259
1761615251470,0.67630808,4.15257738,0.55679495,0.59536575,-0.05073382,-0.11759814,0.99652162,0.06717201,0.02138123,0.04444580
1761615251481,-0.18281307,-2.30568946,-0.09050403,0.54347644,-0.06629289,-0.11593343,0.99634049,0.07035135,0.02099342,0.04376759
1761615251492,0.43192455,0.21828149,0.92265500,0.53698448,-0.06250610,-0.09738088,0.99616152,0.07325106,0.02065589,0.04324173
1761615251503,-0.04896773,-0.23998759,0.32444484,0.48022973,-0.09653732,-0.10108547,0.99599711,0.07591634,0.02012011,0.04268071
1761615251514,0.39382089,-0.40452976,0.22049394,0.46139279,-0.07886042,-0.06817540,0.99582032,0.07852321,0.01967454,0.04229552
1761615251525,-0.02482652,0.18464723,0.27291412,0.44783369,-0.11924165,-0.06305764,0.99565202,0.08096390,0.01902468,0.04195185
1761615251537,-0.02833298,0.40234455,0.21474136,0.39898390,-0.10209519,-0.06793974,0.99549310,0.08321816,0.01844784,0.04156799
1761615251548,0.01803201,-0.02042086,-0.14603699,0.44220346,-0.11627373,-0.06622288,0.99531193,0.08567239,0.01780252,0.04120046
1761615251559,-0.00046232,-0.11808482,0.09582058,0.41329857,-0.12479214,-0.05586460,0.99513516,0.08798686,0.01710368,0.04088761
1761615251570,0.05851825,-0.51482495,0.01167946,0.40321656,-0.12790893,-0.05854052,0.99496000,0.09022471,0.01639379,0.04056271
1761615251581,0.18770069,-0.38967244,-0.05418164,0.37254038,-0.12482757,-0.04418362,0.99479149,0.09229231,0.01570100,0.04031750
1761615251593,-0.10414083,0.07963426,0.14997894,0.31720710,-0.12529340,-0.05557697,0.99464719,0.09408453,0.01499309,0.04000349
1761615251604,0.08342713,-0.46924394,-0.21563221,0.32797878,-0.12406778,-0.05061198,0.99449334,0.09592121,0.01429831,0.03972006
1761615251615,0.01440386,-0.25680217,-0.07755412,0.28500013,-0.12302390,-0.04050601,0.99435558,0.09753146,0.01360322,0.03949120
1761615251626,-0.17418777,-0.50449443,0.10865710,0.25876161,-0.11815855,-0.03850796,0.99422975,0.09898053,0.01294154,0.03927555
1761615251637,-0.16731347,-0.59948377,0.15805283,0.22431190,-0.11816591,-0.02456151,0.99411872,0.10022546,0.01228572,0.03913924
1761615251648,-0.00143834,-0.21626195,-0.26307851,0.18762774,-0.09976817,-0.02644125,0.99402480,0.10127617,0.01172701,0.03899117
1761615251659,0.02265962,-0.03811056,-0.21604045,0.15829280,-0.09245402,-0.02629480,0.99394724,0.10214678,0.01121852,0.03884655
1761615251671,0.03856609,0.06641505,-0.50246494,0.15690379,-0.08839633,-0.03302341,0.99386923,0.10302545,0.01072350,0.03866161
1761615251682,0.05131777,-0.19244165,-0.19006583,0.15833402,-0.06915208,-0.02158960,0.99378572,0.10391212,0.01033625,0.03854071
1761615251693,-0.11472355,-0.21723432,-0.21916265,0.15386829,-0.06188021,-0.02477510,0.99370635,0.10475070,0.00999900,0.03840569
1761615251704,-0.00428956,-0.21955873,-0.06040257,0.11156554,-0.05002103,-0.02037344,0.99364748,0.10537547,0.00971888,0.03829160
1761615251715,-0.23272536,-0.18605719,-0.32578095,0.10251612,-0.05184881,-0.02439892,0.99359496,0.10594443,0.00943112,0.03815618
1761615251726,-0.01548047,0.25494398,0.04644141,0.07464912,-0.03478691,-0.02781379,0.99355842,0.10635873,0.00923805,0.03800182
1761615251737,-0.01659753,0.13678536,-0.38158334,0.09860030,-0.03398363,-0.02681267,0.99350757,0.10690103,0.00905114,0.03785435
1761615251748,-0.05508143,-0.13612285,-0.05553974,0.09580074,-0.02241860,-0.01932046,0.99345448,0.10744231,0.00892448,0.03774519
1761615251760,-0.18581038,-0.02583760,0.14505555,0.07705179,-0.02575377,-0.02369170,0.99341404,0.10787380,0.00878026,0.03761251
1761615251771,0.01523543,-0.11660994,0.06699365,0.07055547,-0.01751853,-0.01438171,0.99337566,0.10826185,0.00868390,0.03753341
1761615251782,-0.19172459,-0.15584102,-0.00497627,0.06504194,-0.01918095,-0.00189668,0.99333723,0.10862609,0.00857649,0.03752279
1761615251793,-0.09996013,0.04968624,0.05734871,0.04853718,-0.02043342,-0.00019988,0.99330824,0.10890032,0.00846104,0.03752166
1761615251804,-0.03789543,-0.10714961,-0.06546338,0.03581588,-0.02279380,0.00076763,0.99328714,0.10910089,0.00833340,0.03752596
1761615251816,-0.00911911,-0.16687182,0.10969607,0.02720691,-0.01481250,-0.00026909,0.99327100,0.10925461,0.00824971,0.03752444
1761615251827,-0.19987188,-0.08989021,-0.15629130,0.03312601,-0.02756790,-0.01363230,0.99325473,0.10944012,0.00809533,0.03744810
1761615251838,-0.09089373,-0.03240766,0.18282666,0.03449503,-0.00728312,-0.02104539,0.99323864,0.10962811,0.00805563,0.03733340
1761615251849,-0.22054343,0.08268381,-0.44843653,0.06561303,-0.01063610,-0.01636215,0.99320227,0.10999227,0.00799660,0.03724259
1761615251860,-0.02598895,0.13552732,-0.18590930,0.08490542,0.00879313,-0.00265061,0.99314918,0.11047198,0.00804628,0.03722762
1761615251871,0.34380684,0.03739544,0.26666136,0.09827603,0.02715700,0.01615820,0.99308376,0.11101741,0.00819700,0.03731730
1761615251883,-0.41959461,0.23283562,-0.60677587,0.07505159,0.03975130,0.02015294,0.99302915,0.11144896,0.00842557,0.03743317
1761615251894,0.02991471,-0.19932328,-0.04627690,0.07758240,0.05785796,0.00982166,0.99297542,0.11188342,0.00874958,0.03748818
1761615251905,-0.10202029,-0.22536423,-0.24281330,0.07092127,0.05609131,0.01442630,0.99292608,0.11226994,0.00905528,0.03756680
1761615251916,-0.00033730,-0.15526183,-0.21630050,0.06099194,0.06122301,0.01173787,0.99288212,0.11260845,0.00939506,0.03763194
1761615251927,0.07871465,-0.00075127,-0.17273731,0.05008474,0.07598386,0.00289604,0.99284554,0.11288892,0.00982057,0.03764816
1761615251938,0.09324498,0.20086949,-0.17834613,0.04997278,0.07204865,0.01051074,0.99280908,0.11315628,0.01020603,0.03770439
1761615251949,0.02942097,-0.05906661,-0.16361271,0.01384519,0.06804922,0.00557155,0.99279494,0.11323450,0.01059051,0.03773587
1761615251960,0.06749860,-0.22924168,-0.16631601,-0.01535927,0.06982541,0.00803871,0.99279879,0.11314849,0.01098154,0.03778089
1761615251972,-0.00950329,-0.36967804,-0.17486057,-0.03428053,0.06070159,0.00809369,0.99281510,0.11295652,0.01132146,0.03782622
1761615251983,0.07982765,0.01805625,-0.10643687,-0.05295647,0.05872936,0.01461307,0.99284187,0.11265996,0.01165035,0.03790805
1761615251994,0.13963522,-0.07854481,-0.14243414,-0.05603404,0.05603152,0.01374521,0.99287050,0.11234898,0.01196132,0.03798433
1761615252005,0.07167296,-0.11727251,-0.03410678,-0.03880997,0.04643903,0.00136458,0.99289217,0.11212582,0.01222835,0.03799218
1761615252016,0.10222065,-0.11865831,-0.08550378,-0.07290021,0.02782013,-0.00359451,0.99293583,0.11172851,0.01237997,0.03797259
1761615252027,0.15049167,-0.08287662,-0.02595868,-0.09370250,0.02501364,-0.00346653,0.99299269,0.11121315,0.01251754,0.03795352
1761615252038,0.07881606,0.05492494,0.07093445,-0.06830860,0.02258015,-0.02247154,0.99303784,0.11083745,0.01264173,0.03782993
1761615252049,0.05797683,0.15915756,-0.05158452,-0.08035485,0.01198056,-0.01369401,0.99308816,0.11040353,0.01270643,0.03775598
1761615252060,-0.00147829,0.00477804,0.01407895,-0.06328696,0.01729238,-0.03158766,0.99313296,0.11004913,0.01280327,0.03757909
1761615252071,0.06180094,-0.04392540,0.11071300,-0.09132930,0.00837805,-0.02413986,0.99319346,0.10954225,0.01284976,0.03744512
1761615252083,0.04898904,-0.15983723,0.00431501,-0.09692431,0.00871133,-0.03680130,0.99326029,0.10899947,0.01289855,0.03723903
1761615252094,-0.10440575,0.02900478,0.09631406,-0.10169953,0.00172322,-0.05206617,0.99333468,0.10841979,0.01290837,0.03694225
1761615252105,-0.01767014,-0.02452560,-0.01812844,-0.07046268,0.01391593,-0.04205247,0.99338494,0.10802872,0.01298560,0.03670886
1761615252116,-0.03289600,0.05708423,0.06192188,-0.03815060,0.01294812,-0.03781102,0.99341473,0.10781698,0.01305747,0.03649901
1761615252127,0.00193506,0.14125928,-0.04644141,-0.02130262,0.01002951,-0.02100550,0.99343110,0.10769875,0.01311313,0.03638243
1761615252140,-0.11629824,0.49289086,0.23773688,-0.01349070,0.01285036,-0.02086041,0.99344414,0.10761309,0.01319473,0.03624997
1761615252244,-0.04253974,-0.00544802,0.01300648,-0.00473320,0.00261642,-0.00067558,0.99347019,0.10736743,0.01333052,0.03621490
1761615252249,17.55140044,-1.41775389,26.47289966,0.41360008,0.57558657,-0.09391320,0.99334104,0.10844279,0.01482705,0.03597073
1761615252284,-2.48515525,0.43187745,-3.47748877,0.10764975,0.03813381,-0.01713023,0.99313479,0.11032128,0.01549248,0.03567181
1761615252308,0.08588449,0.34998234,0.18888088,0.16575470,0.02800887,-0.01874853,0.99291458,0.11231034,0.01582859,0.03544682
1761615252330,0.04907793,-0.02264775,-0.02815510,0.15829761,0.02387956,-0.00557564,0.99271220,0.11406744,0.01609365,0.03538493
1761615252346,-0.01558747,0.37059247,0.12881233,0.13792671,0.00781969,-0.00721083,0.99258980,0.11513637,0.01615425,0.03532905
1761615252358,0.08189442,0.13016101,0.09347024,0.15172690,0.00173495,-0.00848070,0.99247843,0.11610743,0.01616536,0.03527477
1761615252371,0.18495621,-0.36504865,-0.06299268,0.13890350,-0.02119741,-0.01795390,0.99238339,0.11696863,0.01603393,0.03516346
1761615252383,0.09768711,-0.06299268,0.19227305,0.14029242,-0.02423793,-0.03311988,0.99229015,0.11783844,0.01588366,0.03495812
1761615252396,-0.11943560,-0.19451763,-0.09521804,0.14850737,-0.04682452,-0.02731922,0.99218369,0.11882602,0.01557227,0.03477644
1761615252415,-0.18017544,-0.32903797,-0.50402753,0.09787253,-0.03564262,-0.01635122,0.99208312,0.11975091,0.01523545,0.03462192
1761615252418,16.85541948,18.25803951,33.44473514,0.58993944,-0.24484080,-0.13094441,0.99200101,0.12051783,0.01491716,0.03445170
1761615252429,-3.54393410,-3.92291052,-6.84768280,0.11378742,-0.06742971,-0.00690588,0.99192907,0.12116642,0.01453281,0.03441233
1761615252441,-0.02448670,-0.40276706,-0.18264815,0.10648098,-0.05386509,-0.00557497,0.99185667,0.12180531,0.01420962,0.03437888
1761615252454,0.02560282,-0.27964205,0.09354774,0.10022583,-0.05473556,0.01357802,0.99178325,0.12241668,0.01387573,0.03446171
1761615252465,0.05016492,0.10727425,0.07752193,0.09014452,-0.06568793,0.00394219,0.99172512,0.12292149,0.01350788,0.03448379
1761615252476,-0.08752346,0.07634755,0.07908787,0.07352864,-0.07551314,-0.00132227,0.99167952,0.12333693,0.01308123,0.03447631
1761615252488,-0.11523478,0.05260588,0.02878078,0.05760013,-0.08204528,-0.00702918,0.99164579,0.12366813,0.01260947,0.03443590
1761615252499,-0.08169833,-0.06772646,-0.13436227,0.05507516,-0.08298527,-0.00934690,0.99161323,0.12399307,0.01211986,0.03438075
1761615252511,-0.17541200,-0.06439431,-0.21442248,0.06776173,-0.08397925,0.00028994,0.99156978,0.12438609,0.01163278,0.03438243
1761615252522,-0.01325670,-0.03816935,0.17387570,0.06105813,-0.06627149,0.00195649,0.99152968,0.12473718,0.01125172,0.03439368
1761615252537,-0.11140878,-0.16532225,-0.33725575,0.03640036,-0.03660902,0.02476679,0.99149343,0.12499926,0.01098813,0.03457200
1761615252546,-0.05395422,-0.04430676,0.61090633,0.03205790,-0.05677695,0.05423004,0.99146816,0.12515153,0.01071844,0.03482960
1761615252555,0.12145486,-0.30988314,0.68502797,0.00113511,-0.03658125,0.07139135,0.99145828,0.12515647,0.01055931,0.03514015
1761615252566,-0.16353809,0.02842065,-0.92010565,-0.00328473,-0.01783940,0.04519182,0.99145261,0.12513791,0.01045852,0.03539548
1761615252578,-0.11073885,-0.22009569,0.20579470,0.00460271,-0.00711816,0.02421214,0.99144479,0.12516415,0.01041795,0.03553349
1761615252590,-0.03310418,-0.14285565,-0.30688956,0.00407741,-0.00177716,0.00923272,0.99143991,0.12518821,0.01040746,0.03558796
1761615252601,-0.06432192,-0.01117535,0.31980618,-0.01734474,-0.00661644,-0.00465790,0.99145325,0.12509281,0.01037107,0.03556235
1761615252613,-0.03762919,0.09853205,-0.35702580,0.01335457,-0.01364465,0.00638896,0.99144262,0.12517294,0.01028920,0.03560068
1761615252627,0.12292990,0.04616030,-0.09135989,0.01145016,0.00732399,0.00143178,0.99143144,0.12525423,0.01034120,0.03561084
1761615252634,-0.10740769,-1.65602954,1.20323106,0.04648060,0.00868163,0.00374261,0.99140765,0.12543551,0.01037506,0.03562544
1761615252646,-0.07497630,0.42371210,-0.77926852,0.06769487,0.04143761,0.01091179,0.99135590,0.12580783,0.01060297,0.03568546
1761615252657,-0.08669767,0.31576429,-0.11144501,0.03762470,0.03337968,0.03308741,0.99131948,0.12602417,0.01079490,0.03587571
1761615252668,-0.11277690,0.64087673,-0.10371708,0.04643428,0.04931789,0.02929208,0.99127702,0.12628652,0.01107355,0.03604121
1761615252680,0.00445113,-0.11886628,-0.09278769,0.05492317,0.05338476,0.02839672,0.99122730,0.12660233,0.01138051,0.03620449
1761615252691,0.02444412,-0.14113421,-0.09149604,0.02730627,0.05245732,0.02728119,0.99119875,0.12675525,0.01167427,0.03635726
1761615252702,0.10194399,0.01508946,-0.03894377,0.00070867,0.05613643,0.01902908,0.99119051,0.12675925,0.01199144,0.03646478
1761615252717,0.05476243,0.13933629,-0.24003675,0.01245706,0.03690572,0.01396395,0.99117118,0.12685330,0.01227008,0.03657021
1761615252724,0.10950761,0.54548497,0.89531943,0.08066430,0.07730314,-0.02250818,0.99113557,0.12712756,0.01253291,0.03649368
1761615252735,-0.13103362,0.44837368,-0.65203761,0.02227944,0.02400679,-0.01089328,0.99112010,0.12725233,0.01266735,0.03643268
1761615252749,0.06316503,-0.00482807,-0.08782405,0.01680296,0.02391764,-0.01768950,0.99110792,0.12736491,0.01282760,0.03631416
1761615252758,0.40760044,0.14445917,0.27835270,0.02127830,0.02851269,-0.01804878,0.99109692,0.12746066,0.01295590,0.03623294
1761615252770,0.02475315,-0.49815708,-0.24414063,0.01721432,0.00615721,-0.01704917,0.99108646,0.12756825,0.01299439,0.03612638
1761615252781,0.28324127,-0.05626678,0.17166138,0.00004097,0.01566961,-0.00171758,0.99108572,0.12756845,0.01307273,0.03611779
1761615252791,0.00588688,-0.13851539,-0.03499422,-0.00819176,0.01414691,-0.00139459,0.99109067,0.12752422,0.01314913,0.03611026
1761615252804,-0.06528708,-0.08698957,-0.13473502,-0.01403124,-0.00525640,0.00414338,0.99110162,0.12743512,0.01311575,0.03613657
1761615252814,0.23092408,0.03149444,0.03256229,-0.00706823,-0.01004887,-0.01570040,0.99110960,0.12740013,0.01306601,0.03605885
1761615252825,-0.09607059,0.15671863,0.00594634,-0.00713550,-0.00437544,-0.02898054,0.99112055,0.12736160,0.01304238,0.03590236
1761615252836,-0.10215825,-0.00261274,-0.08519815,-0.00029058,-0.01437275,-0.02128308,0.99112617,0.12735996,0.01296117,0.03578211
1761615252847,0.00933584,-0.04014409,-0.07468669,0.01925098,-0.00443186,-0.03442211,0.99111952,0.12746873,0.01293613,0.03558763
1761615252859,0.00760479,-0.14729583,0.06466426,-0.00345354,-0.00295043,-0.01131734,0.99112467,0.12744869,0.01291902,0.03552198
1761615252871,0.02050833,-0.05447662,0.03291783,-0.02333760,0.01047880,-0.00937997,0.99114370,0.12730984,0.01298137,0.03546617
1761615252881,-0.11015339,-0.17670523,-0.08751364,-0.01786132,0.00815756,-0.01371823,0.99115709,0.12722053,0.01302216,0.03539758
1761615252892,-0.07609395,-0.01803036,0.03588950,-0.03948964,0.03612374,0.00726459,0.99118261,0.12698754,0.01323529,0.03544044
1761615252904,-0.07705283,0.00856143,-0.10273711,-0.03878667,0.03550810,-0.01370801,0.99121197,0.12675870,0.01344479,0.03535957
1761615252915,-0.03044312,-0.09036626,-0.02772959,-0.02879687,0.03238726,-0.01163861,0.99123042,0.12661328,0.01360834,0.03530079
1761615252926,-0.07527827,0.16923282,-0.04850937,-0.02617718,0.04198533,-0.00777985,0.99124758,0.12646537,0.01384556,0.03525684
1761615252937,-0.04988774,0.09051825,0.03388601,-0.04807588,0.03342402,-0.02599046,0.99128541,0.12618894,0.01403775,0.03510739
1761615252949,-0.05509647,-0.01697691,-0.04387996,-0.04087530,0.03173194,-0.02968924,0.99131902,0.12595186,0.01422179,0.03493519
1761615252961,-0.08460735,-0.16745041,-0.17237170,-0.00281646,0.02856455,-0.01880488,0.99132282,0.12593426,0.01440032,0.03481766
1761615252970,0.05722046,-0.28997292,-0.08335820,-0.01209607,0.06274987,-0.01029412,0.99132721,0.12587983,0.01468270,0.03477134
1761615252982,-0.13649078,0.09721605,-0.01467643,-0.03237990,0.03458900,-0.00219594,0.99134813,0.12569526,0.01487985,0.03475882
1761615252993,-0.01834554,-0.05549524,0.05136750,-0.04558893,0.04578702,0.01534842,0.99137402,0.12543540,0.01514084,0.03484631
1761615253004,-0.07241193,-0.08794332,-0.02607237,-0.04342563,0.04315747,0.01591064,0.99139769,0.12519439,0.01538036,0.03493461
1761615253015,-0.11123132,0.05570556,-0.09006723,-0.04036390,0.04154559,0.01663398,0.99141929,0.12496835,0.01561302,0.03502776
1761615253027,-0.07095235,-0.01461642,0.06915187,-0.03575073,0.05382322,0.01784255,0.99143632,0.12476636,0.01591712,0.03512857
1761615253038,-0.11847998,-0.09857983,0.07468073,-0.05166019,0.05411919,0.02066081,0.99146367,0.12447706,0.01622019,0.03524427
1761615253049,-0.16903230,-0.06040952,-0.08810509,-0.06379980,0.05926552,0.02765972,0.99149686,0.12412617,0.01654615,0.03539640
1761615253060,-0.10270220,0.09084699,0.00103089,-0.07081307,0.08963957,0.01952387,0.99153533,0.12371545,0.01706606,0.03550964
1761615253071,-0.22251655,-0.00151470,-0.34674999,-0.06088957,0.10728367,0.05164512,0.99155556,0.12339578,0.01762930,0.03578078
1761615253082,-0.13174985,0.14616604,-0.04312416,-0.06719981,0.11791926,0.04241473,0.99158153,0.12302282,0.01828375,0.03601618
1761615253093,-0.17415528,-0.03870117,-0.08514258,-0.07140182,0.12551145,0.03718720,0.99161001,0.12262654,0.01898034,0.03622257
1761615253104,-0.05759622,-0.10485153,0.02570299,-0.09020527,0.13703127,0.04033255,0.99164943,0.12211688,0.01975456,0.03645045
1761615253116,-0.16697199,-0.19442641,-0.02045310,-0.12615695,0.13448265,0.04497690,0.99171160,0.12141040,0.02050767,0.03670232
1761615253127,-0.01140395,0.00356373,-0.07602633,-0.10628497,0.16010604,0.02319932,0.99176052,0.12081521,0.02140426,0.03683223
1761615253138,-0.03792683,0.15509783,-0.06121641,-0.08434802,0.15646500,0.03757439,0.99179108,0.12033864,0.02228829,0.03704453
1761615253149,-0.48821689,-0.02129831,-0.44001081,-0.07464270,0.18647542,0.04164480,0.99180895,0.11992064,0.02333255,0.03727774
1761615253160,0.17866188,-0.00190066,0.26609216,-0.09097079,0.19888410,0.04847493,0.99183335,0.11941120,0.02444630,0.03754920
1761615253172,-0.18058244,0.04655803,-0.11672550,-0.06522596,0.21884460,0.04748219,0.99183618,0.11904920,0.02566089,0.03781273
1761615253183,0.10143260,-0.21412497,-0.05651966,-0.06423632,0.21726872,0.05231150,0.99183584,0.11868627,0.02688846,0.03810829
1761615253194,-0.09822871,-0.02088411,0.03586021,-0.08748140,0.20741428,0.03567511,0.99185448,0.11819637,0.02804998,0.03830807
1761615253205,0.04507875,0.09071807,0.13623652,-0.09548009,0.20839952,0.03275467,0.99187746,0.11765691,0.02922743,0.03849313
1761615253216,-0.07839757,-0.10412177,-0.34867388,-0.08291475,0.22014590,0.02635002,0.99188939,0.11720088,0.03043824,0.03863805
1761615253228,0.02391374,0.11527061,0.22019991,-0.08428509,0.21660825,0.01515116,0.99190378,0.11672888,0.03165124,0.03872290
1761615253239,0.12734411,0.09645841,0.12164213,-0.09282901,0.20333060,0.01016690,0.99192561,0.11620904,0.03278989,0.03877984
1761615253250,0.12924477,-0.13304608,0.13684740,-0.09954448,0.21352810,0.01445853,0.99194734,0.11565159,0.03398565,0.03886080
1761615253261,-0.15281780,0.09913936,-0.21610459,-0.10588516,0.19616558,0.00059529,0.99197765,0.11506392,0.03507437,0.03886411
1761615253272,0.01080464,-0.06024102,-0.17355921,-0.08672501,0.18545220,0.02162589,0.99199185,0.11457826,0.03611290,0.03898521
1761615253284,0.02005896,0.05884868,0.10546070,-0.08151628,0.18250358,0.02467880,0.99200122,0.11412585,0.03712580,0.03912218
1761615253295,0.04496340,-0.16523799,-0.01863803,-0.07047403,0.17964774,0.02256773,0.99200341,0.11372767,0.03814081,0.03924969
1761615253306,-0.13865637,-0.06423367,-0.05842850,-0.07316000,0.17173390,0.01676117,0.99200908,0.11332163,0.03909393,0.03934271
1761615253317,0.11223340,0.14488752,0.07740235,-0.09086222,0.17038087,0.02307819,0.99202376,0.11281735,0.04003954,0.03947080
1761615253328,0.13985250,0.04470688,0.04857999,-0.08227624,0.16746488,0.03315991,0.99203040,0.11235249,0.04098572,0.03965815
1761615253339,0.00662715,0.13178734,-0.05719554,-0.06406486,0.16199755,0.02198638,0.99202817,0.11199693,0.04188481,0.03978017
1761615253351,0.06257533,-0.10004694,-0.13800216,-0.04259733,0.15702931,0.03056460,0.99201052,0.11175625,0.04277202,0.03995286
1761615253362,0.11550389,0.06455680,0.12394348,-0.04378458,0.14321727,0.03784370,0.99199494,0.11151544,0.04355972,0.04016100
1761615253373,-0.09530938,0.19366844,0.08791409,-0.04463468,0.12709545,0.03669397,0.99198315,0.11126548,0.04427145,0.04036649
1761615253384,0.17105925,0.10714961,-0.13684740,-0.02630614,0.11768115,0.05022147,0.99195855,0.11111817,0.04493047,0.04064773
1761615253395,0.07602633,-0.06723579,0.02280790,0.00636657,0.11216463,0.04056055,0.99191657,0.11115382,0.04555859,0.04087487
1761615253406,-0.00621983,0.27216514,0.07498352,-0.01454085,0.09607993,0.01136687,0.99189838,0.11107312,0.04609183,0.04093796
1761615253417,-0.05031153,-0.17076893,-0.01548047,-0.02535747,0.08422234,0.02783078,0.99188591,0.11093239,0.04655927,0.04109242
1761615253429,0.34907616,0.11694396,0.22022480,-0.04124844,0.05858147,0.03483792,0.99188818,0.11069933,0.04689025,0.04128925
1761615253440,0.02272065,-0.01029012,-0.02322633,-0.03872008,0.05893600,0.02326459,0.99189121,0.11048637,0.04721440,0.04141721
1761615253452,0.19279042,0.07636152,0.15833541,-0.03191122,0.05339845,0.01793071,0.99189276,0.11029012,0.04754280,0.04152748
1761615253463,-0.12916750,0.13375110,-0.08251639,-0.02171470,0.04060548,0.01280078,0.99189234,0.11016852,0.04777019,0.04159916
1761615253475,0.10041096,-0.08643670,0.01051228,-0.01150709,0.03814255,0.01708678,0.99188485,0.11010120,0.04799332,0.04169912
1761615253485,-0.16921785,-0.04499375,0.00727131,-0.02830330,0.03115591,0.01018797,0.99189091,0.10995827,0.04815066,0.04175057
1761615253497,0.16735793,0.01648458,0.14741728,-0.02559241,0.03537634,0.00252352,0.99189711,0.10980087,0.04836823,0.04176609
1761615253508,-0.19892539,-0.01606101,-0.09122517,-0.02540720,0.02879195,0.00888419,0.99190257,0.10966622,0.04852082,0.04181318
1761615253519,0.07815890,0.00133697,0.10522722,-0.01019095,0.02993399,0.01859403,0.99189616,0.10960813,0.04869145,0.04191916
1761615253531,-0.03110944,0.28649879,-0.07947286,-0.00959491,0.03197680,0.01487902,0.99188930,0.10955056,0.04888331,0.04200844
1761615253542,-0.14574112,0.15785215,-0.09157367,-0.00120973,0.03614166,0.02203659,0.99187534,0.10954403,0.04907847,0.04212743
1761615253550,-0.58215655,0.05295796,-0.33091921,0.02128675,0.05385383,0.02588448,0.99185146,0.10962704,0.04928850,0.04222838
1761615253561,0.37435943,-0.39691961,0.28370937,0.01356504,0.04928776,0.01343237,0.99182633,0.10970233,0.04956205,0.04230293
1761615253575,0.12069968,-0.04194873,0.11440936,-0.00338790,0.04155667,0.00327133,0.99181339,0.10967861,0.04985295,0.04232583
1761615253586,-0.21325386,-0.07664405,-0.14445003,0.02699551,0.06724171,0.00174309,0.99177725,0.10982979,0.05022950,0.04233559
1761615253594,-0.84680639,-0.16190335,-0.32329936,-0.00799180,0.07837411,0.01611022,0.99176249,0.10979862,0.05053516,0.04239842
1761615253608,0.62326972,0.04349268,0.34988719,-0.00339725,0.04365627,-0.01611550,0.99175408,0.10977416,0.05084948,0.04228239
1761615253617,-0.93505304,-0.37815550,-0.56752258,0.00203966,0.07601626,-0.03380081,0.99174303,0.10978252,0.05116115,0.04214381
1761615253627,0.48312424,0.10266067,0.27057028,-0.01336912,0.04346910,-0.00675271,0.99174048,0.10971167,0.05139154,0.04210802
1761615253640,0.21062929,0.08760416,0.12684614,0.00019626,0.04465497,-0.00650053,0.99172736,0.10971291,0.05167510,0.04206674
1761615253650,-0.21572188,-0.06583967,-0.16505324,0.00018163,0.06260191,0.02186872,0.99170625,0.10971382,0.05198811,0.04217609
1761615253663,0.13307145,0.25011312,0.12831795,0.00020046,0.04018437,0.00548197,0.99169039,0.10971516,0.05225734,0.04221281
1761615253676,-0.05955466,0.08816925,-0.02089008,0.02131990,0.03697232,0.01104957,0.99166025,0.10984948,0.05249027,0.04228243
1761615253683,-0.97770742,0.07066941,-0.62863019,0.04446423,0.05382973,0.01534497,0.99162945,0.11001177,0.05268674,0.04233844
1761615253695,0.64907334,-0.06330177,0.34986911,0.01027102,0.01979736,0.02774733,0.99160951,0.11007237,0.05280355,0.04250215
1761615253706,0.11147797,-0.11913415,0.03085849,0.00709379,0.04080997,0.01639649,0.99158933,0.11011139,0.05302800,0.04259233
1761615253717,0.09457927,-0.01453171,0.03152642,0.01259844,0.01864686,0.01182956,0.99157335,0.11018068,0.05313056,0.04265739
1761615253728,0.06037349,0.50738748,0.11927934,0.01700772,0.01299315,0.00225705,0.99155805,0.11027762,0.05320462,0.04267025
1761615253740,0.14321087,0.17605045,0.03188086,0.02327032,0.01268085,0.00967807,0.99153685,0.11041143,0.05327754,0.04272590
1761615253751,0.06288580,0.10549768,0.05986415,0.01977530,-0.00503284,-0.00725844,0.99152810,0.11051822,0.05325036,0.04268671
1761615253762,0.23730071,-0.39522254,-0.08926055,0.04085664,-0.00403419,-0.02188228,0.99150905,0.11074701,0.05322777,0.04256417
1761615253773,0.06973536,0.01714835,0.06288352,0.03635627,-0.03059482,-0.01076837,0.99149796,0.11095243,0.05305491,0.04250332
1761615253784,0.07219138,0.17894151,0.05819715,0.03665109,-0.02373699,-0.01384709,0.99148540,0.11115767,0.05292198,0.04242578
1761615253797,0.07546285,0.02966305,0.00452532,0.04710516,-0.01599041,-0.00977093,0.99146169,0.11143559,0.05282764,0.04236813
1761615253807,0.03466028,0.09496942,0.05844951,0.06639956,-0.01919663,-0.00308264,0.99142787,0.11179083,0.05272494,0.04235164
1761615253818,0.05920918,0.03049074,0.02958650,0.06437691,-0.02440773,0.00136268,0.99139439,0.11214812,0.05258947,0.04235920
1761615253829,0.26231192,-0.28727921,0.06958535,0.07478374,-0.04327354,-0.01002975,0.99136273,0.11255943,0.05235147,0.04230404
1761615253840,0.20163708,0.00582217,0.08419227,0.05379199,-0.02115432,-0.00268480,0.99133513,0.11286336,0.05223195,0.04228887
1761615253852,0.04667918,0.06208331,-0.04481201,0.08468584,-0.04732712,-0.01245179,0.99129759,0.11334183,0.05196455,0.04221852
1761615253863,-0.15684204,0.47145972,0.03734334,0.09290812,-0.04903206,-0.03432870,0.99126016,0.11386676,0.05168752,0.04202456
1761615253874,0.05972235,0.14689517,-0.06305285,0.11455764,-0.06105199,-0.03450220,0.99121306,0.11449683,0.05135173,0.04183480
1761615253885,0.12857992,-0.03796715,0.00162953,0.11427659,-0.05350879,-0.02563640,0.99115998,0.11514249,0.05104941,0.04168995
1761615253896,-0.02649147,-0.01405272,-0.04753737,0.10270349,-0.06619364,-0.02957645,0.99111935,0.11571250,0.05068203,0.04152580
1761615253907,0.07546729,-0.04402258,0.00000000,0.11342182,-0.05623511,-0.02638032,0.99106769,0.11634199,0.05036993,0.04137939
1761615253919,0.02844486,0.08388795,0.00935266,0.10553420,-0.06218677,-0.04005193,0.99102473,0.11693826,0.05001857,0.04115310
1761615253930,-0.18484955,0.50296816,0.01493734,0.12850853,-0.07594653,-0.03723779,0.99096906,0.11766433,0.04958947,0.04094271
1761615253941,0.11422092,0.18123449,0.02012411,0.11068021,-0.07464254,-0.03517183,0.99092624,0.11825647,0.04919014,0.04075454
1761615253952,-0.00919623,-0.12796639,0.01081910,0.11783575,-0.08294331,-0.05116835,0.99088156,0.11892224,0.04872151,0.04046544
1761615253963,0.23020567,-0.58925249,-0.09604399,0.10450042,-0.09778202,-0.04954280,0.99084980,0.11949699,0.04818371,0.04019295
1761615253974,0.00295002,-0.04128997,0.04949470,0.09267947,-0.09159196,-0.04504920,0.99082133,0.12002990,0.04765705,0.03993392
1761615253986,-0.00178497,0.09326448,-0.04059145,0.12706763,-0.10169020,-0.03314689,0.99076956,0.12074148,0.04708759,0.03974829
1761615253997,0.03041053,-0.01425494,-0.08362897,0.13091670,-0.10212045,-0.04226630,0.99071643,0.12147461,0.04651571,0.03951160
1761615254008,-0.00070371,0.01148814,0.01168167,0.12961890,-0.10478124,-0.04235278,0.99066491,0.12218752,0.04593942,0.03927866
1761615254019,-0.01576321,-0.10787948,-0.01576321,0.13995313,-0.11553816,-0.02706726,0.99060483,0.12295726,0.04530396,0.03912979
1761615254030,-0.11754602,-0.19308587,0.34261093,0.11941424,-0.11815093,-0.03536087,0.99055985,0.12362001,0.04464822,0.03893354
1761615254042,0.07797685,-0.03773138,-0.02605081,0.12377404,-0.09432669,-0.02430089,0.99050003,0.12433790,0.04410112,0.03879260
1761615254053,-0.07986920,0.18118351,0.03641845,0.14567717,-0.11959579,-0.03958200,0.99043670,0.12513912,0.04344335,0.03857489
1761615254064,0.02668622,0.17601997,-0.27977430,0.14524737,-0.10620032,-0.04052781,0.99036893,0.12594524,0.04285393,0.03834996
1761615254075,-0.00328400,0.00020858,0.10104077,0.11110453,-0.10356215,-0.02527750,0.99032089,0.12655632,0.04228434,0.03821094
1761615254086,-0.04636417,-0.11062775,0.03122077,0.08553100,-0.09376654,-0.01304476,0.99028400,0.12704385,0.04174987,0.03813658
1761615254097,-0.07214435,-0.11243819,0.05434160,0.08267134,-0.09056733,-0.02831772,0.99025243,0.12749854,0.04125175,0.03798084
1761615254108,-0.09260887,-0.24162048,0.02364482,0.07629735,-0.08906063,-0.02409226,0.99022367,0.12791817,0.04076192,0.03784833
1761615254119,-0.07350364,-0.13307200,-0.02377551,0.06586094,-0.07485842,-0.02963535,0.99019945,0.12828699,0.04034271,0.03768237
1761615254131,-0.08128974,0.46720869,0.04671785,0.05445782,-0.07415184,-0.02196225,0.99018156,0.12858924,0.03993117,0.03756048
1761615254142,-0.11431773,0.07097338,-0.03868905,0.07387985,-0.05722075,-0.02948941,0.99014655,0.12900666,0.03960787,0.03739387
1761615254153,-0.05278235,-0.06405331,0.02469105,0.05550393,-0.05405038,-0.01709684,0.99012213,0.12931193,0.03931060,0.03729983
1761615254164,0.00183627,-0.58153751,-0.01726737,0.03032392,-0.04114774,-0.00275734,0.99010919,0.12948781,0.03907194,0.03728384
1761615254176,0.00871865,-0.17855556,0.01479529,0.03254770,-0.03191475,0.00716645,0.99009037,0.12967496,0.03888843,0.03732505
1761615254187,-0.07447452,-0.05344969,0.00989404,0.01576025,-0.04384568,0.00157467,0.99008811,0.12976243,0.03864508,0.03733379
1761615254198,-0.04602804,0.10623873,-0.02277900,0.02842773,-0.02905432,-0.01593447,0.99007723,0.12991736,0.03848674,0.03724694
1761615254209,-0.01173403,-0.12617511,-0.08379983,0.03459787,-0.03913984,0.00076034,0.99005997,0.13011283,0.03826560,0.03725124
1761615254220,0.03112537,0.03857104,-0.02469105,0.02825252,-0.02495120,-0.00432259,0.99004572,0.13026822,0.03812837,0.03722747
1761615254231,0.02629921,-0.05788024,0.17084809,0.01983214,-0.03596048,-0.00438746,0.99003982,0.13037829,0.03792879,0.03720311
1761615254243,0.05030751,-0.04232175,0.02184901,0.02389996,-0.02297586,0.00378370,0.99002631,0.13051213,0.03780012,0.03722430
1761615254254,-0.06082107,-0.05060503,-0.04561580,0.04253791,-0.03049470,0.00003471,0.99000137,0.13075034,0.03762935,0.03722450
1761615254265,-0.05878242,0.09740945,-0.11276356,0.00745109,-0.01666475,-0.02387270,0.99000445,0.13079244,0.03753520,0.03708962
1761615254276,-0.03032326,0.04236581,-0.04024501,0.01934889,-0.02511686,-0.00664891,0.98999698,0.13089886,0.03739705,0.03705305
1761615254287,0.00355941,0.06562023,0.01644933,0.02375977,-0.02159393,-0.00668212,0.98998534,0.13103192,0.03727613,0.03701563
1761615254298,-0.04822097,0.10167913,0.00725647,0.02775785,-0.01283539,-0.01416643,0.98997055,0.13118597,0.03720489,0.03693700
1761615254310,-0.02000056,-0.01337506,-0.10375394,0.02550397,-0.02014618,-0.00239600,0.98995622,0.13133007,0.03709106,0.03692347
1761615254321,-0.02414542,0.07650546,0.02048080,0.02445158,-0.00924469,-0.00368092,0.98994089,0.13146578,0.03703976,0.03690304
1761615254332,-0.10315318,-0.03879339,-0.11154958,0.04112043,-0.00928913,0.00398781,0.98991192,0.13169194,0.03698867,0.03692497
1761615254344,-0.00840137,0.06863471,0.00586405,0.01447202,-0.01175187,0.00159067,0.98990234,0.13178167,0.03691580,0.03693483
1761615254355,-0.04599768,0.11923804,0.00054759,0.02192699,-0.00258035,-0.00671613,0.98988870,0.13189788,0.03690213,0.03689924
1761615254367,0.04964515,-0.02538213,-0.00150609,0.02061595,-0.00972837,-0.00871286,0.98987560,0.13202879,0.03684035,0.03684391
1761615254376,-0.11684316,0.28443784,-0.16220579,0.01470119,-0.01185465,-0.01475452,0.98987128,0.13209421,0.03678760,0.03677825
1761615254387,0.00858818,-0.13850346,0.07270602,0.02599325,-0.01162335,-0.00618174,0.98985569,0.13223847,0.03672309,0.03674394
1761615254399,-0.00779013,-0.04749470,-0.10687127,0.03617788,-0.00567039,-0.00089129,0.98982859,0.13245192,0.03668964,0.03673869
1761615254410,-0.10395201,0.03887951,-0.04119379,0.03978155,0.00908285,0.00351303,0.98979642,0.13267271,0.03674005,0.03675818
1761615254422,-0.00555453,-0.08989776,-0.07867297,0.03607735,0.01683924,0.02215378,0.98976026,0.13288015,0.03683687,0.03688557
1761615254433,0.09303722,-0.14936500,0.26728924,0.02577677,0.01667521,0.02771426,0.98973210,0.13302193,0.03692858,0.03703800
1761615254444,-0.01683845,-0.10992947,0.04426884,0.02075289,0.01503088,0.01430626,0.98971014,0.13313918,0.03701351,0.03711883
1761615254455,0.01542324,-0.06233626,-0.02013138,0.02022598,0.01472328,0.01244366,0.98968881,0.13325447,0.03709743,0.03718976
1761615254466,-0.11028887,0.00243996,-0.41975783,0.02788676,0.01631615,0.01580596,0.98966275,0.13340087,0.03718309,0.03727274
1761615254478,-0.02457537,0.04217929,0.02504829,0.01327860,0.01593707,0.00952831,0.98964653,0.13347922,0.03727712,0.03732895
1761615254489,-0.10195904,0.03426420,-0.13890913,0.04020825,0.01876987,0.00728201,0.98961064,0.13370438,0.03738223,0.03736973
1761615254500,-0.01061673,-0.03970814,-0.06143199,0.04050427,0.03490579,0.01545490,0.98957114,0.13392108,0.03756898,0.03745242
1761615254511,0.03264281,-0.06440400,0.04470528,0.02663941,0.03444380,0.01869354,0.98953991,0.13406893,0.03776014,0.03755617
1761615254522,-0.04742009,-0.06463315,0.00976243,0.01823349,0.03343048,0.01515537,0.98951633,0.13416830,0.03794234,0.03763876
1761615254532,-0.23961436,0.23234970,-0.08131069,0.01667968,0.02402532,0.02607806,0.98949397,0.13425754,0.03807087,0.03777828
1761615254544,0.07247279,-0.01018340,0.12120397,0.02277269,0.02318356,0.00884950,0.98946782,0.13439531,0.03821113,0.03783182
1761615254555,-0.01454489,0.05979072,-0.15237501,0.04144407,0.01532529,0.01630973,0.98943082,0.13461911,0.03829389,0.03791989
