UnixTime(ms),Ax,Ay,Az,Gx,Gy,Gz,QuatW,QuatX,QuatY,QuatZ
1759198434852,0.00000000,0.00000000,0.00000000,0.00000000,0.00000000,0.00000000,0.72045857,0.06526127,-0.68169105,0.10944280
1759198434888,-0.05487772,0.06601604,-0.07585217,0.02999880,0.01082209,0.02873712,0.72051467,0.06579824,-0.68149734,0.10995719
1759198434909,-0.11980745,-0.06825885,-0.00336334,0.02271693,0.00742120,0.01245191,0.72054703,0.06604018,-0.68141830,0.11008981
1759198434969,0.06972053,0.00292240,0.02156751,-0.00348810,0.00117622,-0.00248137,0.72060135,0.06593554,-0.68138301,0.11001537
1759198434999,0.01893649,0.00078127,-0.06956985,-0.01857098,0.01142884,0.00400999,0.72077848,0.06565883,-0.68121272,0.11007511
1759198435042,-0.01328432,-0.05963256,0.05741724,-0.00724841,0.00137429,-0.01014923,0.72085422,0.06550226,-0.68118304,0.10985589
1759198435055,0.55853332,-0.24793632,-0.38923735,-0.02416429,0.00713270,-0.02714084,0.72093522,0.06535244,-0.68113882,0.10968762
1759198435077,-0.31836291,0.02031834,0.24884529,-0.02143582,-0.00184515,-0.01492001,0.72096221,0.06511772,-0.68115902,0.10952424
1759198435110,0.00553310,0.08767885,0.02442975,0.00031545,-0.00310379,0.00134888,0.72090950,0.06512297,-0.68121070,0.10954670
1759198435124,-0.01292138,0.05379679,0.02647562,-0.00092620,-0.01267090,0.01581820,0.72080728,0.06511635,-0.68130130,0.10965980
1759198435170,0.01800393,0.01490334,-0.05775595,-0.00719091,-0.00359482,-0.00036002,0.72074652,0.06495420,-0.68138236,0.10965168
1759198435190,0.01238629,0.02646238,-0.11116380,-0.03488701,-0.00451131,-0.01402954,0.72075675,0.06459835,-0.68142838,0.10950858
1759198435212,0.00725035,0.00316137,0.24143150,0.01221631,0.00565849,0.00980605,0.72078673,0.06473090,-0.68136698,0.10961498
1759198435226,0.17364905,0.15818382,0.15101282,0.05755557,0.00761209,0.01170259,0.72078834,0.06513379,-0.68131370,0.10969690
1759198435249,0.02933329,-0.03308944,0.01343285,0.02848574,0.00008550,-0.02816821,0.72080944,0.06547134,-0.68131268,0.10936310
1759198435271,-0.00674119,-0.02681106,0.03303783,-0.00312109,0.00072831,-0.02176349,0.72085662,0.06543685,-0.68130464,0.10912262
1759198435303,-0.10945227,-0.05633372,-0.11342589,-0.00996473,-0.00545392,-0.00836608,0.72080989,0.06528091,-0.68138999,0.10899169
1759198435313,0.26810106,-0.42602851,0.40821775,-0.06493002,-0.04470929,-0.00098949,0.72062315,0.06494652,-0.68162024,0.10898659
1759198435359,-0.04850145,0.05885437,-0.11243061,-0.00167941,-0.00524309,-0.00551845,0.72053133,0.06490772,-0.68174136,0.10885912
1759198435395,-0.00080726,-0.08918398,-0.03019443,-0.01907893,-0.00323137,-0.00410578,0.72051846,0.06456812,-0.68179888,0.10878603
1759198435419,-0.08631128,0.07982574,0.03322415,0.00126707,0.00677979,0.00062729,0.72059294,0.06458332,-0.68171752,0.10879356
1759198435471,0.01928528,0.05534853,0.01487558,-0.00619211,0.00064756,-0.01151090,0.72066854,0.06442202,-0.68170065,0.10849370
1759198435505,0.01424556,0.18335231,0.08578715,0.02052490,0.00020744,0.00548453,0.72062668,0.06476991,-0.68169713,0.10858666
1759198435565,-0.03526095,-0.07846885,-0.04215176,-0.00263007,-0.00254076,0.00088697,0.72055753,0.06469088,-0.68177348,0.10861332
1759198435585,-0.01580884,-0.01513145,-0.24194769,0.03459495,0.00035985,0.04366603,0.72046290,0.06504029,-0.68176985,0.10905434
1759198435638,-0.00915839,-0.01459269,0.07752004,0.01741643,0.00779606,0.01217210,0.72056686,0.06549834,-0.68156481,0.10937447
1759198435660,0.14125353,-0.06602123,0.06270271,0.00538008,0.01065403,0.01492608,0.72064811,0.06555806,-0.68144655,0.10954015
1759198435702,-0.00840439,0.05735864,-0.03383454,0.00024268,0.00094669,0.01022702,0.72063383,0.06556313,-0.68142677,0.10975389
1759198435731,-0.03492142,-0.03470537,-0.00681944,-0.01366190,-0.00745358,-0.00416582,0.72055700,0.06536025,-0.68153745,0.10969203
1759198435746,0.44747833,-0.14237693,-0.10333131,-0.03225825,0.00031664,-0.02235403,0.72060566,0.06512316,-0.68153512,0.10952773
1759198435796,-0.08212743,0.01346136,0.02958885,-0.00261919,0.00144309,-0.00320753,0.72065673,0.06505912,-0.68149984,0.10944931
1759198435809,0.17947588,-0.33664232,0.00429011,-0.01423538,0.00510794,-0.01955387,0.72071894,0.06496160,-0.68146485,0.10931536
1759198435824,-0.11616851,0.02942448,0.02812981,-0.03232996,-0.00053932,-0.02862751,0.72077182,0.06470781,-0.68146909,0.10909064
1759198435855,0.02944969,0.09258516,0.01507659,-0.02585795,-0.00133814,-0.02728690,0.72084990,0.06431736,-0.68148929,0.10867860
1759198435873,0.07023178,0.02237323,-0.04055771,-0.00382278,-0.01059139,-0.00245017,0.72076524,0.06428257,-0.68158567,0.10865631
1759198435889,-0.17242613,0.05856244,0.02119776,-0.00157619,-0.00761198,0.00120946,0.72070514,0.06426949,-0.68164885,0.10866635
1759198435894,-0.10883268,-0.25765980,0.22059118,-0.02546463,-0.03776570,-0.02404753,0.72063504,0.06420965,-0.68173760,0.10860983
1759198435919,-0.03701931,0.05347021,-0.03862666,-0.00550686,-0.01101848,-0.00640891,0.72052248,0.06414054,-0.68187588,0.10852940
1759198435926,-0.14112698,-0.06326856,0.13727585,-0.05520367,0.00391365,0.01902687,0.72054172,0.06395560,-0.68186277,0.10859314
1759198435944,0.05949126,0.03190870,-0.14689305,-0.00196995,0.00290284,0.01346894,0.72054960,0.06393817,-0.68183708,0.10871234
1759198435957,0.00652227,0.02742322,-0.01471555,-0.01718046,0.00158105,0.01429030,0.72055555,0.06381962,-0.68182617,0.10881095
1759198435970,-0.01344957,-0.00478358,0.09977921,0.01108388,0.01542060,0.01773107,0.72062386,0.06388890,-0.68172980,0.10892176
1759198435984,-0.03468623,0.07474192,0.06140781,0.02574549,0.00998083,0.01710481,0.72065516,0.06406526,-0.68166143,0.10903893
1759198435997,-0.06900277,0.10914760,0.01792277,0.04494216,0.00799515,-0.00860926,0.72068747,0.06436412,-0.68160826,0.10898168
1759198436010,0.02108481,-0.03412127,-0.02056965,0.05097380,-0.00138689,-0.04442135,0.72069309,0.06470819,-0.68161762,0.10868184
1759198436025,-0.00659330,0.01526173,0.02060407,0.00733522,-0.00267845,-0.00700383,0.72067707,0.06476321,-0.68163771,0.10862931
1759198436040,-0.00293889,0.11804224,0.00793784,-0.00002226,0.00457164,0.01330530,0.72069388,0.06476305,-0.68160456,0.10872577
1759198436052,0.21639680,0.20540069,-0.16841741,-0.02768336,-0.00093833,0.02371216,0.72068179,0.06459418,-0.68161029,0.10887042
1759198436066,-0.05336689,-0.20167924,0.08689245,-0.01856922,0.00127690,0.01138846,0.72068989,0.06446327,-0.68160129,0.10895070
1759198436080,-0.13724603,-0.24188355,0.03609506,-0.01460005,-0.01356038,-0.00935375,0.72062116,0.06436398,-0.68169350,0.10888710
1759198436082,-2.56760155,-6.01634383,1.08033419,0.02629276,-0.04899556,-0.08080713,0.72058466,0.06439028,-0.68174249,0.10880629
1759198436099,0.31673991,0.63940934,-0.14674292,-0.00256749,-0.00293833,-0.00473800,0.72056906,0.06436845,-0.68176747,0.10876602
1759198436116,-0.01897449,0.02330562,-0.01835576,-0.00986439,0.00076463,-0.00397257,0.72058779,0.06428461,-0.68176097,0.10873225
1759198436118,-2.35890038,-5.60395009,-0.20785074,-0.04970540,0.04778687,0.06354544,0.72063385,0.06422745,-0.68170601,0.10880533
1759198436131,0.43188500,0.88987231,0.02680452,-0.00804665,0.00529612,0.01346238,0.72065804,0.06417474,-0.68167132,0.10889351
1759198436143,-0.00927498,0.05424239,-0.07815463,0.00351457,0.00254907,0.00372609,0.72066748,0.06419635,-0.68165565,0.10891642
1759198436157,0.06464267,-0.01458785,0.00938280,0.01133377,0.00176561,0.01304283,0.72065876,0.06427172,-0.68164391,0.10900316
1759198436159,-4.72879837,-1.68452420,-2.09069945,0.05911797,0.03934190,-0.00091194,0.72068762,0.06432493,-0.68160850,0.10900234
1759198436173,0.54702294,0.26465992,0.36542644,0.00141028,0.00516279,-0.00032587,0.72072174,0.06433494,-0.68157184,0.10900002
1759198436186,0.01067920,0.01139228,-0.00083019,-0.00792231,0.00739652,-0.00423773,0.72077472,0.06428464,-0.68152487,0.10897311
1759198436199,0.07566514,0.09226433,-0.08307933,0.00308165,0.00174749,0.00898745,0.72077484,0.06430482,-0.68151343,0.10903198
1759198436224,-0.01440291,0.01593118,0.03490268,-0.00001719,0.00550962,0.01029685,0.72082122,0.06430460,-0.68144346,0.10916275
1759198436226,1.26313741,14.24662476,1.87437835,0.18040753,0.06466963,-0.00868268,0.72086755,0.06448501,-0.68137879,0.10915407
1759198436239,-0.13714131,-1.87913358,-0.14983261,0.00672055,-0.00092058,-0.00715227,0.72086498,0.06452937,-0.68138486,0.10910686
1759198436254,-0.02181914,-0.06376486,-0.00392745,0.00314455,0.00007349,-0.00566449,0.72086969,0.06455232,-0.68138433,0.10906551
1759198436265,0.02000103,-0.00250680,-0.02580312,-0.01202577,-0.00977771,-0.00681902,0.72082902,0.06448377,-0.68144006,0.10902665
1759198436270,-0.34476625,-0.12776822,0.86804611,-0.02810836,-0.00035114,0.01331264,0.72082939,0.06442194,-0.68144083,0.10905593
1759198436285,0.03744857,-0.09881728,-0.26398235,-0.00980214,-0.00571436,-0.00108293,0.72079667,0.06434842,-0.68148369,0.10904781
1759198436298,0.02687726,-0.00587676,0.03821514,-0.00319634,-0.00087357,-0.00081111,0.72079393,0.06432748,-0.68148941,0.10904250
1759198436312,0.03125902,-0.04994366,-0.02870432,0.00455660,-0.00342841,-0.00371463,0.72077155,0.06436052,-0.68151427,0.10901557
1759198436315,0.48908368,-1.15428876,4.35248727,0.07592625,-0.00507674,0.04212911,0.72075090,0.06444783,-0.68152011,0.10906402
1759198436331,-0.10015616,0.11698436,-0.61920544,0.01320317,-0.00461842,0.00138913,0.72070281,0.06455808,-0.68155867,0.10907561
1759198436345,-0.06767970,-0.14742482,-0.22641461,0.02018092,-0.00667241,0.00300107,0.72064536,0.06469329,-0.68160337,0.10909572
1759198436348,-2.03557403,-2.18291760,-1.10212296,0.05792835,0.00894083,-0.03441283,0.72065890,0.06478598,-0.68158907,0.10904066
1759198436362,0.49049843,0.46351579,0.28783353,0.01510110,-0.00765950,-0.00071660,0.72059901,0.06489244,-0.68164307,0.10903561
1759198436376,0.00018658,0.14728812,0.25820705,0.00985244,-0.00317359,-0.00051956,0.72057195,0.06496239,-0.68166560,0.10903192
1759198436388,0.03623357,0.05640451,-0.02866318,0.00780632,-0.01357364,0.00477776,0.72048705,0.06500884,-0.68174636,0.10906035
1759198436392,-0.13037353,0.02838646,1.34433915,0.01141654,-0.02723481,0.01235673,0.72043113,0.06503110,-0.68179947,0.10908444
1759198436407,0.08315161,-0.07139527,-0.35415975,0.01049556,-0.00454711,0.00283239,0.72038683,0.06511297,-0.68183494,0.10910654
1759198436420,0.01955134,0.04626421,-0.02586303,-0.00806565,-0.01508348,-0.00491735,0.72030744,0.06506296,-0.68192846,0.10907605
1759198436433,-0.01701771,-0.02803357,0.00111363,-0.01421734,-0.00684132,-0.00219693,0.72027487,0.06496771,-0.68197429,0.10906133
1759198436458,-0.01039576,0.02730071,-0.04543191,-0.00394930,-0.00182611,-0.00456869,0.72026635,0.06491834,-0.68199712,0.10900422
1759198436469,0.17037582,0.30962894,-0.14390642,0.01415578,-0.00445942,-0.01176866,0.72024701,0.06499195,-0.68202031,0.10894302
1759198436480,-0.07620718,-0.13385459,0.08159059,0.00049515,0.00786388,-0.00249370,0.72028941,0.06499465,-0.68197745,0.10892943
1759198436504,-0.02663676,-0.05360153,-0.00922139,0.00100916,0.00171060,0.00120060,0.72030597,0.06500706,-0.68195641,0.10894420
1759198436542,-0.00213737,-0.00518861,-0.01263967,-0.00726982,0.00535640,0.00182533,0.72040816,0.06487075,-0.68185598,0.10897843
1759198436572,0.02077658,-0.07768177,-0.08839449,-0.01701939,0.01283340,0.00098596,0.72061574,0.06460950,-0.68165899,0.10899356
1759198436584,-0.33115489,-0.09474348,0.29893269,0.00797597,-0.00882384,0.00106780,0.72056408,0.06465417,-0.68170840,0.10899954
1759198436604,0.04943965,0.12477747,0.06926134,0.01003852,-0.00950789,0.00680970,0.72045097,0.06475807,-0.68180681,0.10907002
1759198436661,0.01130495,0.01622326,-0.00927229,0.00148460,-0.00340080,0.00257161,0.72034545,0.06479993,-0.68190271,0.10914254
1759198436694,-0.04238913,0.04693942,0.10845051,0.00905399,-0.00843749,0.00552205,0.72018444,0.06495114,-0.68204361,0.10923476
1759198436708,-0.29243304,0.18490987,-0.38262164,0.01117377,0.02385968,0.03243650,0.72029689,0.06502656,-0.68188256,0.10945370
1759198436759,0.11174193,-0.05490129,-0.01987050,0.01618328,0.01672177,0.02091782,0.72058453,0.06544328,-0.68145198,0.10999234
1759198436766,-0.41791158,3.08952710,-3.79560063,0.05251739,0.03038017,-0.13279519,0.72073914,0.06562709,-0.68134565,0.10952755
1759198436803,0.04313764,-0.59741481,0.76906972,-0.03467492,0.00213946,-0.00550381,0.72085014,0.06498560,-0.68130607,0.10942573
1759198436825,0.03054455,-0.08670099,0.02082235,-0.02141769,-0.00981307,-0.00054669,0.72077022,0.06475001,-0.68141401,0.10941972
1759198436857,0.04462306,0.01010616,0.01342604,0.00529976,-0.01113636,-0.00241168,0.72060209,0.06483374,-0.68158996,0.10938162
1759198436860,0.97553354,-2.40183245,3.65822459,0.12746499,-0.07708792,0.01677618,0.72047165,0.06502494,-0.68170560,0.10940678
1759198436901,-0.12080525,0.16840541,-0.25913682,0.00732514,-0.00258431,0.00733887,0.72038487,0.06517547,-0.68175870,0.10955759
1759198436904,-6.82176713,-0.14463456,1.45505205,0.01517157,-0.00228114,0.06316634,0.72036253,0.06520126,-0.68176258,0.10966498
1759198436926,0.96126387,0.00823757,-0.23797436,0.00255689,0.00249221,-0.00154119,0.72038862,0.06522952,-0.68173504,0.10964795
1759198436943,0.10318835,-0.05193246,0.08807288,-0.00258517,0.00730636,-0.00103745,0.72044817,0.06520845,-0.68167549,0.10963949
1759198436956,0.11943544,0.06226971,-0.02605292,0.02732341,0.00279977,0.03335097,0.72041577,0.06538878,-0.68165702,0.10985961
1759198436997,-0.00752580,0.04359083,-0.03196733,0.00520850,0.00398116,0.00566759,0.72046617,0.06549686,-0.68157441,0.10997721
1759198437021,-0.25103686,0.23895029,0.08678191,0.03352385,0.00905691,-0.00828858,0.72054611,0.06589244,-0.68146754,0.10987941
1759198437027,-1.50545453,1.21566886,0.41812384,0.03106143,0.00384383,0.04620779,0.72052796,0.06598252,-0.68145639,0.11001341
1759198437051,0.47607427,-0.41405360,-0.11087710,0.02414841,-0.00282024,0.01752070,0.72043495,0.06627955,-0.68149108,0.11022891
1759198437076,0.03526262,-0.08534934,-0.02607925,0.00961302,-0.00509006,0.00414162,0.72035514,0.06640067,-0.68155521,0.11028110
1759198437078,-16.64708058,2.41753601,6.57945398,0.13092883,-0.01633205,0.07949156,0.72031543,0.06653160,-0.68157154,0.11036059
1759198437095,1.86843320,-0.32640248,-0.77792545,0.00860003,0.00424062,0.01262109,0.72032601,0.06660255,-0.68153656,0.11046471
1759198437107,0.05445739,-0.04224768,-0.08469271,0.01252566,-0.00235489,0.01543075,0.72029034,0.06668021,-0.68155116,0.11056038
1759198437123,0.09009411,0.01185589,-0.02607819,0.00544266,0.00317902,0.00521782,0.72030413,0.06672429,-0.68152541,0.11060265
1759198437128,-1.08461403,-1.13556548,0.88189150,0.03181351,0.03454280,0.05154721,0.72035212,0.06679428,-0.68144942,0.11071605
1759198437140,0.53521754,0.22696748,-0.29436524,0.01085759,-0.00066306,-0.00030741,0.72034228,0.06686160,-0.68145353,0.11071415
1759198437152,0.00425006,-0.07098059,0.14850379,0.01167429,0.00929402,0.00458800,0.72038184,0.06692756,-0.68140101,0.11074007
1759198437166,-0.01567330,0.18433364,-0.12200404,0.00991326,-0.00256923,-0.00327598,0.72036162,0.06699794,-0.68141926,0.11071681
1759198437177,-0.04542180,0.17423497,0.00814256,0.02545585,-0.00269025,0.01156007,0.72032381,0.06714177,-0.68143446,0.11078212
1759198437188,-0.08009657,0.15575525,0.03694664,0.00269656,-0.00302605,0.01581087,0.72029496,0.06715579,-0.68145019,0.11086434
1759198437194,-0.04586128,0.35115069,-0.00739325,0.02463662,0.00236533,0.04014068,0.72027530,0.06723340,-0.68144274,0.11099078
1759198437206,0.13819318,-0.27270986,-0.06089139,-0.00048066,-0.00379735,0.01645122,0.72023758,0.06723042,-0.68146628,0.11109278
1759198437219,0.00203650,-0.02132354,0.02674757,0.00209200,0.00467686,0.01097349,0.72025407,0.06724401,-0.68143588,0.11116411
1759198437231,0.05858191,-0.01513301,-0.19530770,0.00484365,-0.00359680,0.00352373,0.72022877,0.06727187,-0.68145657,0.11118437
1759198437274,0.01517750,-0.03961245,0.02287297,-0.00254347,0.00204115,0.00262541,0.72026738,0.06721616,-0.68141187,0.11124187
1759198437285,-0.11820949,-0.06225966,-0.62518502,0.00481217,0.01737016,0.01305174,0.72034070,0.06724143,-0.68132067,0.11131039
1759198437318,0.02669796,-0.01408990,0.21506553,-0.00429370,0.00306517,-0.00376280,0.72040493,0.06717037,-0.68126994,0.11124811
1759198437328,-0.10042767,-0.33586530,0.11964725,-0.01465670,0.00848229,-0.01064907,0.72045733,0.06710075,-0.68122965,0.11119753
1759198437342,0.32204896,-0.15009934,-0.13084623,0.01296807,0.00091637,-0.01199493,0.72046841,0.06719606,-0.68122292,0.11110937
1759198437356,-0.02145004,0.28781796,-0.01727871,0.02054544,-0.00826354,-0.00422256,0.72040848,0.06733166,-0.68127746,0.11108150
1759198437366,-0.39206649,0.44629381,0.31270574,0.02300415,0.01150417,0.00489893,0.72044953,0.06745013,-0.68121821,0.11110673
1759198437376,0.18384568,-0.03849284,-0.27137164,0.01389056,-0.01733150,0.02913558,0.72033637,0.06752098,-0.68130660,0.11125532
1759198437387,-0.07569730,-0.05920564,0.12375768,0.00834880,0.00327251,0.02081003,0.72033158,0.06756522,-0.68128926,0.11136561
1759198437399,-0.04942356,-0.05188033,0.01382261,-0.01130319,-0.00097908,0.00623132,0.72032648,0.06749571,-0.68129528,0.11140393
1759198437416,0.02307858,-0.06163404,-0.03787433,-0.00808407,-0.00666452,-0.00648610,0.72028763,0.06742659,-0.68135226,0.11134848
1759198437418,-1.18951467,-3.61107039,1.00154873,-0.04733189,-0.02774392,-0.15267365,0.72028957,0.06737453,-0.68138278,0.11118054
1759198437432,0.31056785,0.68020742,-0.21827113,-0.01257614,-0.00483104,-0.01333296,0.72028061,0.06729027,-0.68141515,0.11109121
1759198437446,0.20660326,0.09675315,-0.12322166,0.01028317,-0.00131929,0.00792986,0.72025659,0.06736225,-0.68142438,0.11114672
1759198437458,0.14998089,-0.02657405,-0.04949727,0.01192099,-0.00074749,0.03265720,0.72021607,0.06743258,-0.68142879,0.11133939
1759198437469,-0.18298117,-0.10714648,0.19444713,-0.00171110,0.00401534,0.01487547,0.72022553,0.06742283,-0.68140590,0.11142418
1759198437480,-0.17933893,-0.07996021,0.14679543,0.01992729,0.00339924,0.00102663,0.72023195,0.06753044,-0.68138755,0.11142973
1759198437494,0.00470531,0.02740736,-0.01175910,0.01943719,-0.00363519,-0.00063080,0.72019553,0.06766747,-0.68141318,0.11142528
1759198437496,3.02778068,0.87724510,1.25594173,0.04174171,-0.05984208,-0.17905575,0.72015444,0.06771965,-0.68148798,0.11120146
1759198437508,-0.70679521,-0.21873345,-0.21384318,0.00307759,-0.00670086,-0.07480733,0.72018285,0.06773750,-0.68152684,0.11076758
1759198437519,0.00134416,-0.00552475,0.03685111,-0.05770200,-0.01451626,-0.03665036,0.72016845,0.06742879,-0.68160451,0.11057150
1759198437529,0.16009377,-0.11617313,-0.07888904,-0.04507803,-0.00954938,-0.00269353,0.72014595,0.06719889,-0.68165321,0.11055776
1759198437540,-0.00643127,0.01310335,-0.06383103,-0.04441666,-0.00348220,-0.02285075,0.72017095,0.06694350,-0.68167323,0.11042637
1759198437552,-0.02517756,-0.07653554,0.04162222,-0.02503153,-0.00560999,-0.02475422,0.72017575,0.06679456,-0.68170661,0.11027908
1759198437564,-0.06387657,-0.11026975,0.08092549,-0.02493904,-0.03072827,-0.00295978,0.72001645,0.06664368,-0.68189252,0.11026118
1759198437599,-0.06588739,0.07831901,-0.01008874,-0.00358847,-0.00195242,-0.01216615,0.72002239,0.06658178,-0.68192619,0.11005131
1759198437627,-0.00608845,-0.13924006,0.05659648,-0.01108984,-0.00658387,-0.02869741,0.72001068,0.06642596,-0.68201870,0.10964811
1759198437661,0.04047356,0.04489812,-0.01558594,-0.00626781,-0.00923096,-0.01015248,0.71989842,0.06631972,-0.68217516,0.10947603
1759198437722,0.03334886,0.07161700,-0.02020903,0.00265503,0.00242691,-0.00128701,0.71996751,0.06640123,-0.68210066,0.10943651
1759198437734,0.22377540,1.18771899,0.44973819,0.11342484,0.06402364,0.00694176,0.72025207,0.06705910,-0.68172932,0.10947678
1759198437771,-0.07992354,-0.30962702,-0.17006843,-0.00797547,0.00444395,0.00191668,0.72033844,0.06691115,-0.68164688,0.10951233
1759198437795,-0.03103798,-0.13317280,0.11443820,-0.01042434,-0.00662195,0.00557655,0.72026252,0.06678241,-0.68172867,0.10958120
1759198437819,-0.03455653,-0.08384967,0.03596724,0.00604101,-0.01905758,-0.00529827,0.72005784,0.06685188,-0.68194783,0.10952027
1759198437847,0.00393201,0.07760341,-0.08412377,0.00219592,-0.00697864,-0.00226108,0.71996694,0.06688274,-0.68204588,0.10948850
1759198437852,1.82439521,0.49128349,0.58995595,0.00659376,-0.03191142,-0.02119115,0.71989511,0.06689988,-0.68212885,0.10943341
1759198437875,-0.39080613,-0.14415474,-0.15534942,0.00712277,-0.00302333,0.00121929,0.71985149,0.06698357,-0.68216437,0.10944773
1759198437886,0.08677256,-0.08823170,0.09877126,0.00284764,-0.00541362,0.00126722,0.71982103,0.06699909,-0.68219388,0.10945464
1759198437897,-0.03060250,0.01304369,-0.05468316,0.01175008,0.00349979,-0.01640383,0.71984673,0.06706313,-0.68217480,0.10936524
1759198437908,-0.00977357,-0.02112085,0.04510140,-0.01063185,0.00048937,-0.01280484,0.71986577,0.06700359,-0.68217206,0.10929353
1759198437943,-0.04731801,0.04132750,-0.03762109,-0.00604030,-0.00001760,-0.00820420,0.71989637,0.06690030,-0.68217236,0.10915324
1759198437977,0.06365477,-0.02075072,-0.02544680,-0.01113608,-0.00314773,-0.01825748,0.71991043,0.06670821,-0.68222666,0.10883830
1759198438009,0.02296221,0.02544045,-0.00003922,-0.00971239,-0.01198073,-0.01314194,0.71977530,0.06655329,-0.68241775,0.10862868
1759198438042,-0.06288741,-0.04245715,0.00680602,-0.03105345,-0.00042146,-0.00952922,0.71983980,0.06603936,-0.68242473,0.10847098
1759198438073,-0.02388559,0.03989459,-0.07934961,-0.00670393,0.00239978,-0.01159219,0.71991187,0.06593511,-0.68238741,0.10829072
1759198438104,-0.01404020,-0.04345408,0.01736025,-0.00446942,0.00551721,0.00302048,0.71999274,0.06586539,-0.68230134,0.10833784
1759198438158,-0.00158880,0.02159818,0.01502514,-0.00745779,0.00152637,0.00638004,0.72002395,0.06566589,-0.68226051,0.10850850
1759198438200,0.02922359,0.07695867,-0.09230283,0.00007793,0.01155918,0.03835590,0.72013244,0.06566754,-0.68201661,0.10931781
1759198438231,-0.02369898,0.02713575,0.11126619,0.01169227,0.01163073,0.01273653,0.72025740,0.06584994,-0.68183517,0.10951650
1759198438254,0.08817205,0.08380086,0.05059345,-0.02065479,-0.01520063,-0.02735127,0.72016174,0.06561344,-0.68200922,0.10920333
1759198438293,-0.06437170,-0.14898808,0.03475650,-0.01498678,-0.02345676,-0.00059781,0.71975664,0.06532120,-0.68246663,0.10919167
1759198438337,-0.01215057,0.00663588,-0.00598055,0.00412837,-0.00125111,0.00056245,0.71972017,0.06541264,-0.68249434,0.10920413
1759198438349,-0.55805217,-1.41651023,-0.87715115,0.00029639,0.04987374,0.00899874,0.71998858,0.06541438,-0.68220258,0.10925677
1759198438401,0.11532385,0.31236156,0.16653834,0.00675787,0.00908371,0.00197117,0.72018892,0.06559042,-0.68196595,0.10930812
1759198438441,-0.01522828,-0.00820252,0.01840014,-0.01408378,0.01092963,-0.00451529,0.72043390,0.06531015,-0.68174845,0.10921827
1759198438475,0.02611707,0.06037933,0.07817744,0.01811853,-0.00159677,-0.00482484,0.72039314,0.06561454,-0.68177528,0.10913721
1759198438521,-0.00270535,0.03021184,0.00018740,0.01631126,-0.01180897,0.00582825,0.72008274,0.06598807,-0.68204570,0.10927068
1759198438557,-0.08493847,-0.05220676,-0.01043386,-0.00755536,-0.01062825,0.01757107,0.71986104,0.06584905,-0.68224126,0.10959399
1759198438569,-0.18974333,-0.22529204,-0.54785006,0.12010427,0.02355098,0.05829426,0.71987476,0.06653965,-0.68210584,0.10992918
1759198438605,0.10709660,0.05506651,0.11311045,0.00043836,0.01564293,0.01252350,0.72010628,0.06654754,-0.68182427,0.11015460
1759198438650,0.04710201,0.00721161,0.00208808,-0.00087080,0.00090203,-0.00303635,0.72013761,0.06652804,-0.68180406,0.11008659
1759198438654,2.87574015,2.02632468,1.49434731,-0.07883051,-0.01719271,-0.06794901,0.72014071,0.06635067,-0.68184275,0.10993370
1759198438678,-0.48664451,-0.35057849,-0.26329475,0.00764650,-0.00884947,-0.00209986,0.72003728,0.06644090,-0.68194717,0.10990892
1759198438711,-0.01875670,-0.01384993,-0.00089715,0.00086708,-0.00403832,0.00314618,0.71996427,0.06645533,-0.68201441,0.10996131
1759198438745,0.00246131,-0.01479951,-0.00291762,-0.00143349,-0.00093249,0.00040182,0.71995045,0.06643096,-0.68203026,0.10996814
1759198438782,-0.04425491,-0.18021164,0.01031311,-0.01888357,0.00109816,-0.01793810,0.72005191,0.06608350,-0.68201006,0.10963808
1759198438814,0.05236905,0.12943616,-0.02313050,-0.00246804,0.00349567,-0.00936373,0.72013253,0.06604340,-0.68195325,0.10948592
1759198438858,0.00061642,0.03561123,0.01239088,-0.00849439,-0.00550015,-0.00593622,0.72005577,0.06585865,-0.68207288,0.10935680
1759198438896,0.03252530,0.08565828,0.02484064,-0.00094531,-0.00886528,-0.00179067,0.71990018,0.06584035,-0.68224442,0.10932215
1759198438906,-0.75461197,0.58638221,0.13382527,0.02152612,-0.00821079,0.06112196,0.71980684,0.06594583,-0.68228466,0.10962165
1759198438950,0.11602050,-0.14834257,-0.09324491,0.03110368,0.01209195,0.02052815,0.71992673,0.06662856,-0.68201924,0.11007224
1759198438973,-0.00798756,-0.01728804,-0.00067493,0.01286452,0.00870871,-0.04449880,0.72008317,0.06677393,-0.68192083,0.10956941
1759198438995,-0.01670102,-0.07881384,0.05514859,-0.01579586,0.00106500,-0.00665011,0.72012235,0.06659622,-0.68190885,0.10949459
1759198439006,-0.11659290,-0.05580270,0.03918453,-0.06837704,-0.00229592,-0.00599482,0.72014958,0.06622699,-0.68192125,0.10946222
1759198439058,0.03920448,0.01641283,-0.00327585,-0.00603211,-0.00318588,0.00052283,0.72008399,0.06607136,-0.68200344,0.10947571
1759198439085,0.01883078,0.02117825,-0.02313463,0.00831486,-0.02471757,0.00202511,0.71974230,0.06618735,-0.68234825,0.10950396
1759198439106,-0.28409945,-0.26526444,0.00363717,-0.02790098,0.01012675,0.01806346,0.71983639,0.06590834,-0.68224698,0.10968460
1759198439140,0.11484003,0.08707148,-0.00584654,0.00145421,0.00766040,-0.00578392,0.71997451,0.06593343,-0.68211484,0.10958482
1759198439174,0.08519480,-0.02062877,-0.01559293,0.01056022,0.00719069,-0.00577810,0.72008979,0.06611454,-0.68199152,0.10948573
1759198439220,-0.07429695,0.06383165,0.01990498,0.00029484,0.00407802,0.00890455,0.72014695,0.06612133,-0.68189752,0.10969098
1759198439257,-0.00052338,0.03986899,0.04536411,0.00228769,-0.00869937,-0.01297780,0.72002944,0.06616285,-0.68205542,0.10945543
1759198439298,0.06650794,0.05068734,0.00922695,0.00112997,-0.01019671,0.01654887,0.71977758,0.06618602,-0.68226445,0.10979468
1759198439328,-0.11433226,-0.12543617,-0.04143152,0.01239969,0.00342771,0.00579988,0.71979621,0.06637511,-0.68221218,0.10988313
1759198439340,0.51330013,-0.48706037,-0.43897160,0.03339484,0.01319221,0.00579413,0.71984784,0.06657715,-0.68213236,0.10991819
1759198439384,-0.05889505,0.11175471,0.07881616,-0.00085596,0.00403300,0.00865389,0.71990468,0.06655828,-0.68204344,0.11010900
1759198439407,-0.04836566,0.05226175,-0.02236905,-0.00593240,0.00265681,-0.00781740,0.71995219,0.06649213,-0.68201381,0.11002184
1759198439430,0.03376916,0.01231408,0.01472647,-0.01054282,0.00497063,-0.00741927,0.72003055,0.06637089,-0.68195665,0.10993652
1759198439441,0.55996882,0.56247466,-0.00890964,-0.00959476,0.00778150,-0.00372664,0.72007907,0.06631812,-0.68191385,0.10991602
1759198439488,-0.11162144,-0.12751762,0.02843491,-0.00216556,0.00159861,0.00195927,0.72011266,0.06626669,-0.68187589,0.10996256
1759198439558,-0.02230470,-0.02994684,-0.00987839,-0.01033780,0.00059685,-0.00499630,0.72019175,0.06590745,-0.68185514,0.10978893
1759198439604,0.00339159,-0.07539245,0.01635041,-0.00241297,-0.00349614,-0.01070776,0.72015812,0.06585183,-0.68193573,0.10954212
1759198439619,-0.61779079,0.49992889,-0.12418853,0.01291632,-0.00503323,0.01931386,0.72009013,0.06595064,-0.68197423,0.10968987
1759198439663,0.19884485,-0.02314636,0.05956860,0.00588801,0.00499530,0.01302725,0.72013817,0.06607900,-0.68186534,0.10997387
1759198439706,-0.04845067,-0.00788528,-0.01300768,0.00693693,0.01034642,0.02379211,0.72025592,0.06622710,-0.68164444,0.11048183
1759198439755,0.02318195,-0.01735659,0.00245103,0.01181987,0.00533441,0.00443417,0.72033738,0.06652082,-0.68151188,0.11059202
1759198439793,0.02099343,0.00082814,0.04909257,0.02817544,0.00279421,-0.01239099,0.72037389,0.06705334,-0.68145907,0.11035783
1759198439860,-0.00770696,-0.00462872,-0.02235108,-0.01195901,-0.00599992,0.00374436,0.72020268,0.06665510,-0.68165887,0.11048251
1759198439894,0.03448767,-0.06209718,-0.05049124,-0.02832403,-0.00652042,-0.00646762,0.72015785,0.06616085,-0.68177265,0.11036965
1759198439920,-0.09985023,-0.12774899,-0.06432220,0.01021440,0.01978595,-0.01266808,0.72041527,0.06629415,-0.68151444,0.11020433
1759198439953,0.12918313,0.14908174,0.21393525,-0.00968014,0.00382294,0.00492386,0.72047512,0.06613975,-0.68145347,0.11028287
1759198439986,-0.01907902,0.05531978,-0.09411966,0.01104284,-0.00708144,-0.01909777,0.72039480,0.06632472,-0.68157208,0.10996298
1759198440008,0.00940931,0.01127414,0.02878260,-0.00698855,-0.01213973,-0.01207040,0.72029667,0.06624854,-0.68170440,0.10983142
1759198440044,-0.02533221,-0.02833008,-0.01505859,-0.00756756,-0.00383296,0.00304220,0.72023434,0.06610968,-0.68177474,0.10988724
1759198440077,0.12917828,-0.06856526,-0.01185127,-0.01569127,-0.01025248,-0.00357487,0.72010960,0.06585626,-0.68194032,0.10982951
1759198440107,-0.14524010,-0.02438978,-0.01778915,0.00958007,0.00715607,-0.00124649,0.72020337,0.06600380,-0.68183011,0.10981031
1759198440119,-0.18471492,-0.00777960,-0.07858624,0.01080805,0.02297623,0.00207070,0.72032295,0.06606702,-0.68169570,0.10982242
1759198440141,0.13761011,0.03342718,0.07046094,0.02017249,0.00849926,0.01494229,0.72036518,0.06628489,-0.68160391,0.10998380
1759198440186,-0.00734143,0.01096554,-0.00360571,-0.00191927,-0.00119209,0.00214775,0.72033639,0.06624170,-0.68163073,0.11003212
1759198440198,-0.17177356,-0.18499659,0.16365333,-0.04836759,-0.01657939,-0.02469612,0.72029187,0.06595392,-0.68172938,0.10988518
1759198440242,0.03368085,0.07459119,-0.03788448,-0.00157308,-0.00579708,-0.00484111,0.72019101,0.06591947,-0.68185634,0.10977916
1759198440253,0.70451212,0.83509710,-0.03129560,0.00446086,-0.02374536,-0.00544577,0.72006856,0.06594422,-0.68198812,0.10974894
1759198440275,-0.32039660,-0.43464494,-0.00971776,-0.01534136,-0.00205354,-0.01019481,0.72007968,0.06577547,-0.68201071,0.10963680
1759198440324,-0.03242923,-0.01849545,0.00588418,-0.00766003,0.00105849,-0.00533687,0.72014138,0.06558741,-0.68198473,0.10950578
1759198440356,-0.02198332,-0.00345948,0.00878346,0.00096511,0.00128435,-0.00520108,0.72017237,0.06560300,-0.68196398,0.10942178
1759198440387,0.04072826,0.00207184,0.03810801,-0.01357530,0.00159609,-0.01489087,0.72024996,0.06539258,-0.68193924,0.10919097
1759198440409,-0.27551457,0.17687134,-0.03379080,0.02395003,-0.01085379,0.01720315,0.72008421,0.06565603,-0.68205864,0.10938020
1759198440441,0.09576315,-0.01051810,-0.01862694,0.00352331,-0.00407994,0.01979276,0.71997013,0.06571188,-0.68212330,0.10969392
1759198440479,0.11190256,0.00419011,-0.00893190,0.00189933,-0.00347370,0.00777980,0.71988107,0.06574825,-0.68218982,0.10984290
1759198440510,-0.14510788,0.02614521,-0.04318407,0.03151239,0.01940864,0.05148994,0.72000022,0.06624142,-0.68188608,0.11064872
1759198440559,0.03252727,-0.01972160,0.01065478,0.03225506,0.01693761,0.00877490,0.72028392,0.06702360,-0.68147534,0.11086151
1759198440589,0.01974682,0.07310704,-0.18391779,-0.01760685,0.00889373,-0.01388583,0.72046909,0.06675598,-0.68134016,0.11065045
1759198440623,-0.04928830,-0.11291334,0.21382133,-0.01401699,-0.01549014,0.00005892,0.72024654,0.06652260,-0.68159807,0.11065143
1759198440665,0.04146449,-0.05046301,0.00050943,0.00385864,-0.01425237,-0.00182061,0.71995546,0.06660537,-0.68190378,0.11061238
1759198440676,0.10074475,-1.09479695,-0.31070351,-0.06639003,-0.00334421,0.01567148,0.71995842,0.06624686,-0.68192184,0.11069700
1759198440709,-0.07642353,0.27990252,0.02226808,-0.01490940,0.00351394,-0.01721250,0.72007770,0.06600458,-0.68186474,0.11041730
1759198440743,0.09403958,0.12227120,0.00449765,-0.00206810,0.01201736,0.01168204,0.72024678,0.06596880,-0.68165684,0.11061940
1759198440837,0.00082728,0.00405814,0.01440662,0.00600848,0.00424332,0.00085563,0.72040339,0.06625120,-0.68145740,0.11065961
1759198440875,-0.02374635,0.18133024,-0.07895786,0.00365194,0.00886094,0.01960761,0.72049740,0.06631949,-0.68129170,0.11102627
1759198440891,-0.14071820,-0.31974627,0.28482983,0.02348688,-0.00378584,0.02480310,0.72042131,0.06650621,-0.68132180,0.11122346
1759198440951,0.04129818,-0.04265364,-0.00962396,0.00571768,-0.00140530,0.00498810,0.72034194,0.06667889,-0.68136424,0.11137410
1759198440967,0.42417566,0.13466774,0.15091113,0.01486569,-0.00744464,0.01340181,0.72026062,0.06679410,-0.68142194,0.11147796
1759198441004,-0.17155313,-0.03005926,-0.08845735,-0.01278617,0.00115704,-0.00786689,0.72032632,0.06655372,-0.68140018,0.11133007
1759198441040,0.00933105,-0.03720846,0.01482390,-0.01365344,0.00474847,-0.00639554,0.72044727,0.06630864,-0.68131495,0.11121527
1759198441065,0.25503069,-0.01276774,0.10878596,-0.00626865,-0.00248949,-0.00888871,0.72044221,0.06623059,-0.68134594,0.11110460
1759198441081,-0.24960804,-0.06272809,-0.00535428,-0.02689194,0.00609876,-0.00560221,0.72051682,0.06601008,-0.68129593,0.11105866
1759198441103,-0.11315789,-0.02054859,-0.09990456,-0.01078248,-0.00426310,-0.00835932,0.72049777,0.06589309,-0.68134219,0.11096797
1759198441137,-0.01073874,0.03047375,0.00812329,-0.00639989,-0.00020855,-0.00511687,0.72051757,0.06578525,-0.68134570,0.11088175
1759198441148,0.28695608,-0.27233719,0.07209811,0.01343797,-0.00657254,-0.00893778,0.72048268,0.06586252,-0.68138349,0.11083035
1759198441170,-0.14368719,0.23699660,-0.01259733,0.01186198,-0.00127432,0.00003855,0.72045777,0.06599122,-0.68139732,0.11083077
1759198441211,-0.00542227,0.00495683,-0.01501125,0.00281817,-0.00302961,0.00923417,0.72036458,0.06604899,-0.68145943,0.11102007
1759198441222,-0.45248279,0.24347345,0.34160157,-0.00648696,-0.00708854,-0.00082820,0.72033137,0.06601299,-0.68149877,0.11101548
1759198441244,0.20160325,0.00087249,-0.36215644,0.00343328,-0.00478441,0.01002990,0.72026014,0.06605127,-0.68155211,0.11112731
1759198441266,0.04083834,-0.05686331,0.05392980,0.01393408,0.01027933,0.02909100,0.72030361,0.06620455,-0.68143904,0.11144731
1759198441278,0.13746925,0.00182514,0.19147239,0.04002338,0.01757810,0.05039318,0.72033391,0.06644069,-0.68133533,0.11174463
1759198441299,-0.03667790,0.00732055,0.01451389,0.02013945,0.00557842,0.01173306,0.72035057,0.06665114,-0.68127704,0.11186724
1759198441311,0.00802992,0.11481322,-0.04796651,0.01662191,0.00194901,-0.05894155,0.72040628,0.06674921,-0.68126554,0.11151949
1759198441344,-0.02411102,-0.09295661,0.01459812,-0.00458528,-0.00129936,-0.00660974,0.72040992,0.06667287,-0.68128717,0.11140943
1759198441366,-0.04563145,-0.03510407,-0.35959824,-0.04493236,-0.00346126,-0.02602160,0.72046321,0.06618310,-0.68132490,0.11112580
1759198441389,0.06658988,-0.04872244,0.36452916,-0.00849243,-0.01313405,-0.00153416,0.72033317,0.06608629,-0.68147463,0.11110831
1759198441400,-0.07407010,-0.36702537,0.12750147,0.01311583,-0.01537140,-0.01375984,0.72025550,0.06616105,-0.68156224,0.11102988
1759198441422,-0.00392741,0.07439791,-0.08476066,-0.01282867,-0.00506411,0.00194993,0.72021204,0.06601865,-0.68161846,0.11105152
1759198441433,0.12771387,0.07474164,0.05780988,-0.02207301,-0.00279093,0.00344271,0.72020565,0.06589615,-0.68163395,0.11107063
1759198441480,-0.01814859,0.05350970,-0.01455131,-0.00292062,0.00020691,-0.00151786,0.72022189,0.06582810,-0.68162912,0.11103526
1759198441512,-0.01343049,-0.09509937,-0.01446665,-0.01037049,0.00010554,-0.00746035,0.72025670,0.06566373,-0.68162745,0.11091702
1759198441534,0.04590098,0.30115600,-0.05407466,0.02482949,0.01570486,0.01984637,0.72036060,0.06593437,-0.68145627,0.11113334
1759198441555,-0.05742011,-0.06949126,0.03884977,0.00973276,-0.00419673,-0.00570630,0.72031700,0.06604094,-0.68150222,0.11107086
1759198441578,0.00208665,0.02075496,0.05694027,-0.01122026,-0.00003651,-0.00470006,0.72033658,0.06591303,-0.68150264,0.11101728
1759198441588,-0.00480383,0.02176269,0.21560743,0.00284105,-0.00570161,0.02166110,0.72029116,0.06592738,-0.68153143,0.11112667
1759198441622,0.00726224,-0.04574261,-0.05688519,0.00800538,-0.00536793,0.00724070,0.72017610,0.06606027,-0.68162054,0.11124686
1759198441644,0.00875212,0.05857240,0.04281776,0.02207461,-0.00551085,0.00715464,0.72008090,0.06631192,-0.68168336,0.11132842
1759198441655,0.08480929,0.65535739,0.73376475,0.03347305,-0.00697738,-0.00069241,0.72002866,0.06649434,-0.68172139,0.11132465
1759198441694,-0.01829206,-0.26387974,-0.24167713,0.00572149,0.00075758,0.00458950,0.72001865,0.06660420,-0.68170685,0.11141277
1759198441725,0.02136973,-0.01246480,0.01880338,0.00672284,-0.00414424,-0.00538087,0.71996015,0.06671008,-0.68177212,0.11132802
1759198441769,0.01143618,0.05900909,-0.00872131,0.00085155,-0.00454791,-0.00899550,0.71989453,0.06672873,-0.68187172,0.11113102
1759198441802,0.01220721,-0.02828541,-0.00998429,-0.02015412,-0.00514874,-0.02466180,0.71990759,0.06639417,-0.68195719,0.11072163
1759198441823,0.00694496,-0.06032284,0.02296560,-0.01638506,-0.00731018,-0.00962891,0.71986586,0.06622049,-0.68203467,0.11061957
1759198441856,-0.02647150,-0.00782174,-0.02059724,0.00536222,0.00129302,-0.00024833,0.71987860,0.06630924,-0.68201327,0.11061546
1759198441867,0.09704398,-0.27538547,-0.03762976,-0.00140337,0.00148982,-0.00306061,0.71988946,0.06630166,-0.68200523,0.11059893
1759198441890,-0.09373987,0.07509472,0.00227274,-0.01185737,0.00536686,-0.00999102,0.71997696,0.06616708,-0.68194431,0.11048553
1759198441923,0.00607902,0.04235524,0.00405293,-0.00077329,0.00061451,-0.00600496,0.72000261,0.06615447,-0.68193430,0.11038765
1759198442005,-0.00227248,0.00903436,0.00003112,0.00205699,0.00067437,0.00102817,0.72001461,0.06623901,-0.68190658,0.11042991
1759198442037,0.06220515,0.00684133,0.00443954,0.00464731,-0.00421454,0.02297313,0.71988543,0.06631453,-0.68197507,0.11080322
1759198442090,0.00327869,0.05315891,-0.02190536,0.01330951,0.00192978,-0.01604750,0.71996662,0.06666723,-0.68192393,0.11037796
1759198442128,-0.03036023,-0.07234462,0.05225419,-0.02954237,-0.01170065,-0.01205812,0.71984319,0.06610741,-0.68214566,0.11014946
1759198442163,-0.04209776,-0.12018145,-0.00297021,0.00606310,-0.01147506,-0.00657585,0.71965912,0.06621442,-0.68234819,0.11003340
1759198442189,-0.06996421,-0.14076828,-0.04270496,-0.00105780,0.00901102,0.01047450,0.71974850,0.06620099,-0.68223375,0.11016642
1759198442224,0.02417945,0.18260483,-0.01983171,0.00961534,0.00698832,0.00765037,0.71982977,0.06637214,-0.68210936,0.11030260
1759198442277,0.03834953,0.04006763,0.02659894,-0.00092779,0.00312872,-0.00363517,0.71992535,0.06634755,-0.68202645,0.11020627
1759198442317,-0.03298926,0.08629571,0.01170916,0.01808834,-0.00040943,-0.00147234,0.71988903,0.06670570,-0.68203455,0.11017712
1759198442347,-0.09655204,-0.05983507,0.01287248,-0.00558159,-0.00720059,0.01843484,0.71975343,0.06662282,-0.68214148,0.11045087
1759198442382,0.01539688,-0.09561628,0.02728526,0.00619170,-0.00910599,0.01139253,0.71955786,0.06673334,-0.68230403,0.11065423
1759198442417,-0.00991270,0.01352235,-0.07870551,0.01216169,0.00746266,0.01674821,0.71961611,0.06694373,-0.68217492,0.11094397
1759198442452,0.01837191,0.02240477,-0.01901916,0.02578716,0.02444130,0.01016915,0.71994796,0.06738985,-0.68175209,0.11111990
1759198442482,0.02567748,0.01556731,0.02973035,0.00728336,0.00506736,0.00102643,0.72000792,0.06750020,-0.68167532,0.11113545
1759198442502,-0.03210758,0.10919822,0.01875530,-0.00419484,-0.01503853,0.02191387,0.71983557,0.06745825,-0.68182570,0.11135459
1759198442547,0.03403509,-0.04803230,0.00093773,-0.00673476,-0.00587230,0.00135354,0.71972065,0.06730773,-0.68195695,0.11138484
1759198442569,-0.08297294,-0.23014589,-0.18970879,-0.01991615,-0.01485579,-0.01442916,0.71960928,0.06708566,-0.68212259,0.11122396
1759198442591,0.07655635,0.12872016,0.16368637,0.01689056,0.00829684,0.00422774,0.71967266,0.06727568,-0.68202925,0.11127152
1759198442614,-0.03381621,0.01214022,-0.01348406,0.00059553,0.00719499,0.00097765,0.71974736,0.06728241,-0.68194795,0.11128256
1759198442659,0.05768091,0.01861035,0.00821670,-0.00005183,0.00280108,-0.00092522,0.71980984,0.06728125,-0.68188548,0.11126193
1759198442680,0.11580135,0.01635150,0.00555698,-0.00607583,-0.00338950,-0.00747255,0.71979369,0.06721533,-0.68192226,0.11118086
1759198442692,-0.46836211,-0.16366968,-0.09818331,-0.01990832,-0.01068681,0.00804329,0.71973995,0.06710285,-0.68198264,0.11122630
1759198442714,0.04877974,0.07766249,0.03454259,0.00317948,0.00260066,0.00227729,0.71976047,0.06713878,-0.68195325,0.11125203
1759198442735,-0.02792283,-0.00356351,-0.03099141,-0.00705299,0.00294350,0.01253184,0.71977638,0.06706437,-0.68192220,0.11138424
1759198442747,0.00729338,-0.18332571,-0.02633692,0.00883161,0.01018941,0.02001558,0.71980933,0.06711515,-0.68186361,0.11149933
1759198442759,0.09856609,0.19965626,0.07361570,0.01247509,0.01057118,0.00510713,0.71985808,0.06719062,-0.68179965,0.11153023
1759198442792,0.02616293,0.01596210,0.01175286,0.01475952,0.00151304,0.00696980,0.71984128,0.06743194,-0.68177491,0.11164419
1759198442803,0.20958809,0.24494222,0.12820929,0.09353691,0.01426260,-0.06469763,0.71992450,0.06796042,-0.68169433,0.11127865
1759198442814,-0.22544715,-0.24177955,0.00263007,-0.03341902,-0.01085414,-0.03061335,0.71991082,0.06776994,-0.68175620,0.11110415
1759198442825,0.17175271,0.02976718,0.03397599,-0.03419174,-0.00692123,-0.00114095,0.71989452,0.06759385,-0.68179184,0.11109827
1759198442836,0.11548989,0.03775908,-0.04905240,-0.03496485,-0.01239329,-0.00847952,0.71985304,0.06739105,-0.68186373,0.11104909
1759198442858,-0.09298963,-0.02508195,0.00001556,-0.02117299,-0.00716393,-0.01149024,0.71982041,0.06716344,-0.68194074,0.11092557
1759198442869,0.07040559,-0.19983563,0.14477329,-0.00832819,-0.03287542,-0.02532821,0.71967612,0.06711805,-0.68211991,0.11078753
1759198442904,-0.05551450,0.02159612,-0.06436049,0.00549095,-0.00790310,-0.00397545,0.71954638,0.06721442,-0.68225861,0.11071777
1759198442926,0.00870525,-0.16911010,0.08406458,-0.00974767,-0.01593811,-0.00498137,0.71939922,0.06710768,-0.68243313,0.11066322
1759198442961,0.01803898,0.06028971,-0.04777860,-0.00871098,0.00003417,0.00353013,0.71940447,0.06695568,-0.68243253,0.11072482
1759198443004,0.00982829,-0.02561518,-0.01289095,-0.00473376,0.00160510,-0.01407548,0.71949318,0.06685390,-0.68239802,0.11042220
1759198443049,-0.02504448,0.06557488,-0.00211155,-0.00372691,0.00435616,0.00380888,0.71958153,0.06676930,-0.68229914,0.11050866
1759198443098,0.02898958,0.05469963,-0.01063620,-0.00236368,-0.00262896,-0.02028640,0.71960186,0.06671174,-0.68236315,0.11001468
1759198443118,-0.16545014,-0.04770190,0.18218674,-0.01102015,-0.02142215,0.02313919,0.71937117,0.06660044,-0.68257952,0.11024839
1759198443163,0.02800555,-0.01196011,-0.10663929,0.00945384,0.00005494,0.00531821,0.71933385,0.06681552,-0.68257827,0.11036938
1759198443195,-0.03231709,-0.01710218,0.03790150,0.01408352,0.00677640,0.01041555,0.71939017,0.06704085,-0.68246985,0.11053603
1759198443238,0.00707724,0.00666720,-0.02124579,0.00445631,-0.00040583,0.01140070,0.71933576,0.06713577,-0.68247849,0.11077886
1759198443316,0.02185363,0.01047012,0.03258531,0.00076965,0.00212962,0.00321379,0.71939259,0.06716587,-0.68239522,0.11090452
1759198443358,-0.01829283,-0.02728855,-0.14450155,-0.01995341,0.00977407,-0.00022118,0.71962805,0.06674485,-0.68218899,0.11089986
1759198443410,0.01447476,-0.00629879,0.04556131,-0.00444248,-0.00223027,0.00289573,0.71957228,0.06662957,-0.68224686,0.11097500
1759198443446,-0.06706156,0.01246675,-0.02158087,0.00469116,0.00144734,0.01209078,0.71955579,0.06671283,-0.68222117,0.11118961
1759198443500,-0.00971902,0.01985527,0.05904416,-0.00335838,0.00502972,0.00462726,0.71967317,0.06662249,-0.68208588,0.11131408
1759198443514,0.04032666,0.41373157,-0.28060266,0.01440474,0.05126856,0.08835821,0.71991962,0.06672837,-0.68170905,0.11196352
1759198443579,0.02119835,-0.08084634,0.08437553,0.02764034,0.00524291,-0.00206806,0.72000663,0.06761701,-0.68154049,0.11189703
1759198443591,0.14765756,0.26296909,0.46513796,-0.05207179,-0.03485675,-0.05273238,0.71988201,0.06729156,-0.68175835,0.11156745
1759198443657,-0.01793554,-0.08786948,-0.09082116,-0.01009332,-0.00968640,0.00153217,0.71960196,0.06695797,-0.68207848,0.11161809
1759198443684,0.02956707,-0.13661459,-0.06247787,-0.00724691,-0.00287653,-0.00936688,0.71959403,0.06686231,-0.68211645,0.11149445
1759198443723,-0.02152669,0.03369349,0.02705000,-0.01064217,0.00562595,-0.00053028,0.71971950,0.06665373,-0.68200618,0.11148405
1759198443755,0.01432449,0.05543886,0.07239850,0.01328336,0.00600496,-0.01051435,0.71981746,0.06686759,-0.68190950,0.11131477
1759198443784,0.00601359,0.05116190,0.07208091,0.00120045,-0.00676748,-0.00214095,0.71972829,0.06688488,-0.68200696,0.11128394
1759198443805,-0.04873288,0.17338087,0.05596664,0.02183351,-0.02381386,-0.01552352,0.71949511,0.06711413,-0.68225700,0.11112095
1759198443827,-0.05472362,-0.09509371,-0.12223725,0.00420081,-0.00871709,0.00267417,0.71939214,0.06716181,-0.68235594,0.11115130
1759198443849,-0.15729917,-0.19334778,-0.09833267,-0.00876857,-0.00675358,0.01030031,0.71931387,0.06706623,-0.68242955,0.11126357
1759198443871,0.11685460,0.10325022,-0.02320679,0.00815686,-0.00492621,-0.00104042,0.71925612,0.06715555,-0.68248350,0.11125218
1759198443882,0.00269857,0.15597820,0.11846419,0.02578871,0.00603780,-0.00203674,0.71927574,0.06729481,-0.68245089,0.11124118
1759198443906,0.07355724,-0.08315216,-0.05211957,0.01112305,0.00669054,0.01045406,0.71932000,0.06742828,-0.68237061,0.11136663
1759198443917,-0.09075711,0.10316221,0.00537843,0.02871937,0.01640458,0.01895040,0.71937412,0.06758480,-0.68228120,0.11146991
1759198443928,-0.11380231,-0.25020619,-0.10984121,0.00430687,0.01287724,0.00616949,0.71943434,0.06760871,-0.68220973,0.11150415
1759198443938,-0.00536433,-0.15989218,-0.15602471,-0.00334547,0.00331286,0.00524330,0.71944808,0.06759131,-0.68219250,0.11153141
1759198443950,0.07438973,0.10160107,-0.01311380,-0.00183984,-0.00277805,-0.00788923,0.71944078,0.06758045,-0.68220890,0.11148487
1759198443982,0.04682332,0.06172324,0.07375667,-0.00161384,0.00067157,-0.00152976,0.71945734,0.06755439,-0.68219805,0.11146016
1759198444004,0.05704883,0.03587657,-0.03057539,-0.00423991,-0.00503324,0.00545050,0.71940096,0.06750860,-0.68225241,0.11151903
1759198444040,-0.01685916,-0.00926610,0.00765966,-0.00221963,-0.00062734,-0.00103494,0.71939686,0.06746831,-0.68226379,0.11150024
1759198444072,0.00977721,-0.00883016,-0.11884166,-0.01223373,0.00519635,-0.00409130,0.71950149,0.06727747,-0.68218273,0.11143642
1759198444118,-0.00090022,-0.01072488,0.04852856,-0.00380858,0.00464630,0.00014354,0.71961260,0.06718816,-0.68207378,0.11143979
1759198444151,-0.02428261,-0.07315800,-0.00436299,-0.01224250,0.00989964,-0.00410276,0.71979223,0.06699105,-0.68191439,0.11137373
1759198444183,-0.06589141,-0.05229626,0.02821795,-0.00483564,-0.00296939,-0.00468655,0.71976552,0.06691223,-0.68196279,0.11129734
1759198444204,0.06774135,0.17898257,0.09143788,-0.00609037,-0.01314686,0.00097438,0.71963846,0.06684798,-0.68210149,0.11130762
1759198444240,0.00878335,0.04795122,-0.05343407,-0.00252358,-0.00174462,0.00547956,0.71959810,0.06680306,-0.68213255,0.11140516
1759198444272,0.02580378,0.03199953,-0.04069423,0.00070087,0.00478368,0.01453118,0.71963314,0.06681413,-0.68205696,0.11163475
1759198444307,-0.01262497,-0.02636230,0.07048227,0.01528693,0.00933403,0.00793889,0.71974240,0.06708395,-0.68189222,0.11177487
1759198444317,0.09123177,0.91341853,0.31807895,0.15906325,0.02946536,-0.01853382,0.71982099,0.06787131,-0.68174637,0.11168313
1759198444338,-0.04525956,-0.41026856,-0.12531451,-0.00622532,-0.00256622,-0.01226410,0.71982162,0.06780408,-0.68177408,0.11155068
1759198444373,0.00062289,-0.04529275,-0.00231015,-0.02043465,-0.00667386,0.00182781,0.71973939,0.06744545,-0.68189121,0.11158275
1759198444383,-0.13029974,-0.07452939,0.34363515,-0.05297557,-0.05106681,-0.01538616,0.71953615,0.06718322,-0.68214399,0.11150659
1759198444405,0.02744872,0.01482085,-0.10844752,0.00644080,-0.02339373,-0.01723896,0.71931385,0.06725439,-0.68240249,0.11131610
1759198444416,-0.06267281,-0.14490809,0.02182599,-0.00271935,0.00280592,0.01090144,0.71932061,0.06723943,-0.68238706,0.11137606
1759198444452,0.02439417,0.07323687,-0.01938740,-0.00002075,0.00240728,0.00397685,0.71935066,0.06723906,-0.68234372,0.11144764
1759198444472,-0.15169127,0.02362277,0.12516458,-0.00696645,0.01176474,0.00899515,0.71945376,0.06717009,-0.68222725,0.11153670
1759198444483,-0.03077968,-0.40433850,-0.36400123,0.00534092,0.01241288,-0.02879747,0.71953557,0.06719786,-0.68216271,0.11138695
1759198444495,0.19077740,0.05025403,0.04654591,-0.01939554,0.00499376,-0.01410467,0.71958880,0.06707955,-0.68213224,0.11130091
1759198444516,0.03483607,0.16230552,0.00601262,-0.00523507,0.00505220,-0.00217086,0.71964885,0.06702354,-0.68207819,0.11127768
1759198444528,0.18875403,0.13118158,-0.01257284,0.01496849,0.00538036,0.02514563,0.71964780,0.06710811,-0.68204779,0.11141975
1759198444539,0.41307157,-0.07908852,-0.07007131,0.02386798,-0.00653422,0.01694314,0.71958705,0.06723938,-0.68208373,0.11151294
1759198444551,-0.21596307,0.03145370,0.05286574,0.01510024,-0.00262886,-0.01889879,0.71958085,0.06733527,-0.68210042,0.11139293
1759198444584,-0.07682557,-0.04078104,0.00303966,-0.00102869,-0.00215890,-0.00001715,0.71954939,0.06731866,-0.68213528,0.11139266
1759198444595,-0.32548117,0.51923499,0.06744696,-0.03753683,-0.00844640,0.00788056,0.71951592,0.06709906,-0.68218470,0.11143876
1759198444606,0.16832007,-0.30324736,-0.05664391,0.00246973,-0.00294712,0.01923077,0.71948350,0.06711240,-0.68220061,0.11154260
1759198444654,0.02351316,-0.05307993,-0.00950903,0.00278157,0.00060954,0.00094567,0.71948763,0.06717930,-0.68218595,0.11156535
1759198444690,-0.03730484,0.01797568,-0.08598250,0.02044662,0.00923709,0.01200701,0.71957575,0.06754120,-0.68202245,0.11177787
1759198444720,0.04888811,-0.02152803,0.08327891,0.01535371,0.00649054,0.01841906,0.71960395,0.06777611,-0.68192315,0.11205968
1759198444763,0.02609928,-0.01920435,0.00503311,0.00455819,-0.00310185,0.00292574,0.71952133,0.06787457,-0.68199015,0.11212288
1759198444784,0.17910810,-0.06557667,-0.01452294,-0.02875407,-0.01202547,0.00616788,0.71942237,0.06757984,-0.68211341,0.11218610
1759198444840,-0.05677859,0.04032671,-0.00399437,-0.00763730,0.00330061,-0.00265842,0.71954121,0.06736676,-0.68202132,0.11211193
1759198444873,0.07468546,-0.05598459,-0.16277117,-0.01904864,0.01287823,-0.01080746,0.71979966,0.06705246,-0.68180883,0.11193361
1759198444896,0.01632598,-0.11828658,0.17421464,-0.01044677,0.01156283,-0.01471905,0.71996520,0.06693075,-0.68167413,0.11176213
1759198444929,-0.05817566,0.10505974,0.05625614,0.00109666,-0.00448025,-0.00167740,0.71989761,0.06694890,-0.68174827,0.11173437
1759198444988,-0.04021994,-0.00336460,0.00700514,-0.00143499,-0.00133785,-0.00032067,0.71986569,0.06690664,-0.68178767,0.11172493
1759198445034,0.03201918,0.02191677,0.00916983,-0.01790774,-0.01131966,-0.00206116,0.71966543,0.06649656,-0.68204689,0.11167773
1759198445079,-0.02956896,0.02615232,-0.02086558,0.01536328,0.00481032,0.02355125,0.71965341,0.06684607,-0.68193746,0.11221352
1759198445115,0.07839891,0.09034061,0.00226501,0.03645457,0.01512787,-0.02359144,0.71991254,0.06749314,-0.68166894,0.11179477
1759198445147,-0.04196467,-0.12271481,0.03058752,-0.03774704,-0.00268041,-0.01118216,0.71995687,0.06687786,-0.68171263,0.11161250
1759198445184,-0.10691805,-0.08112645,0.01220666,-0.00265354,-0.01429199,0.00148552,0.71971077,0.06682957,-0.68197274,0.11163954
1759198445221,0.07169487,-0.01762002,-0.02553343,-0.00665287,-0.00768845,0.00131249,0.71958156,0.06670449,-0.68211729,0.11166421
1759198445253,-0.06771200,0.06405344,-0.03213871,0.00732817,0.00596431,0.01899977,0.71961329,0.06681955,-0.68202365,0.11196251
1759198445296,-0.00774668,0.02665627,-0.00820739,-0.00194803,0.00800497,0.00498851,0.71976531,0.06677718,-0.68184954,0.11207101
1759198445319,0.12662270,0.22263971,0.04772837,0.02527031,0.02239533,0.00399128,0.71997049,0.06706147,-0.68159759,0.11211591
1759198445363,-0.04625527,-0.09269627,-0.00421227,0.00331742,-0.00580102,-0.00513787,0.71986019,0.06713462,-0.68172550,0.11200262
1759198445374,-0.54832298,0.10612921,-0.01280663,-0.03717267,-0.01099341,0.01123401,0.71981322,0.06693389,-0.68178487,0.11206328
1759198445419,0.16097424,-0.05897426,0.02830607,0.00238345,-0.00396051,-0.00275035,0.71973345,0.06698751,-0.68187398,0.11200140
1759198445441,-0.10520188,-0.10613716,-0.06275234,0.00609482,0.00513906,0.01293051,0.71975884,0.06705517,-0.68181694,0.11214493
1759198445452,-0.93364061,-0.51029465,-0.15737793,-0.01718690,-0.01241055,0.03376448,0.71967247,0.06695892,-0.68188644,0.11233401
1759198445486,0.39770453,0.24624139,0.06311234,0.00584342,-0.00089074,0.01898950,0.71959753,0.06705943,-0.68190176,0.11266063
1759198445507,0.07138388,0.09161839,0.00804190,0.00051441,-0.00257326,0.01320094,0.71955017,0.06706478,-0.68192852,0.11279792
1759198445518,0.31674616,0.17518153,-0.10335111,-0.00462895,-0.00887918,-0.01751182,0.71952213,0.06704001,-0.68197602,0.11270423
1759198445540,-0.22631829,-0.18560643,-0.02269164,-0.00271423,0.00154584,-0.00437961,0.71954845,0.06701029,-0.68195909,0.11265627
1759198445552,0.08523916,0.05178897,-0.19404672,-0.01456801,-0.01474126,-0.01670622,0.71948694,0.06692070,-0.68204975,0.11255353
1759198445564,0.11031627,0.04154105,0.33163952,-0.02076449,-0.00700751,-0.01766603,0.71947572,0.06680130,-0.68209005,0.11245195
1759198445574,0.04258364,-0.16733312,-0.01456350,-0.01112974,-0.01208778,-0.01545220,0.71943285,0.06674176,-0.68215472,0.11236928
1759198445585,-0.10604393,-0.09712819,0.07766005,-0.01121875,0.00098817,-0.00902706,0.71945165,0.06667949,-0.68214923,0.11231918
1759198445597,0.04414784,-0.06758971,0.02462117,-0.01787639,-0.00261460,-0.00450413,0.71945093,0.06657313,-0.68216479,0.11229238
1759198445608,-0.00117394,-0.08718848,-0.05603403,-0.00937780,-0.00474560,-0.03090073,0.71945710,0.06652436,-0.68218947,0.11213170
1759198445619,0.02004600,-0.02000413,0.05513057,-0.00027660,0.00027915,-0.04855198,0.71950066,0.06652283,-0.68218792,0.11186223
1759198445630,-0.18327255,0.09392608,-0.00989935,-0.01170984,-0.01301793,-0.04074926,0.71947279,0.06645667,-0.68226147,0.11163200
1759198445641,-0.08299880,-0.04210861,0.03608189,-0.01791827,-0.00723973,-0.03674052,0.71947545,0.06635812,-0.68230129,0.11142993
1759198445652,-0.01655220,-0.11866204,-0.02393403,-0.02301103,-0.01548582,-0.03477062,0.71943665,0.06623386,-0.68238491,0.11124217
1759198445663,0.02418151,-0.00591940,0.09387722,-0.03137830,-0.00720617,-0.00132394,0.71941586,0.06605971,-0.68242490,0.11123482
1759198445674,-0.01475482,0.18165363,-0.14077552,-0.01031948,-0.01692571,-0.00246960,0.71933412,0.06600243,-0.68251884,0.11122111
1759198445686,0.01722505,0.11894982,-0.06267966,-0.00534818,-0.02122558,0.01975510,0.71920014,0.06597088,-0.68264407,0.11133767
1759198445697,-0.04909730,0.17064219,0.12150861,-0.00362811,-0.00213541,-0.00284027,0.71919292,0.06595002,-0.68265635,0.11132134
1759198445718,0.01624519,-0.00027706,-0.07812785,-0.00009465,-0.00995855,0.00768061,0.71908179,0.06594903,-0.68276042,0.11140160
1759198445720,-7.98305594,4.25209094,0.57954619,-0.03790391,0.00067860,0.25391456,0.71905712,0.06592250,-0.68275994,0.11157934
1759198445730,0.87124961,-0.74701650,-0.00536442,-0.00103413,0.00092985,0.02172731,0.71904514,0.06591733,-0.68275529,0.11168798
1759198445742,-0.07605369,-0.00066924,-0.03863506,0.00334980,0.00641150,0.00917272,0.71907105,0.06593726,-0.68271715,0.11174255
1759198445752,-0.17294864,-0.03407232,-0.04343125,-0.01487318,0.00797461,-0.00224533,0.71911747,0.06586289,-0.68267727,0.11173133
1759198445763,0.27865574,0.06599879,-0.08859491,0.00253987,0.01728071,-0.00455097,0.71921620,0.06587775,-0.68257618,0.11170470
1759198445774,0.09837789,0.05849831,-0.08513018,0.00082150,0.01341362,0.01061647,0.71927727,0.06588231,-0.68250173,0.11176362
1759198445785,-0.02320547,0.11645561,-0.06769039,0.00640060,0.01119464,0.02123080,0.71931431,0.06591751,-0.68244016,0.11188039
1759198445797,0.07083408,-0.19202265,0.09518842,0.02941135,0.03641233,0.07742917,0.71942505,0.06608222,-0.68223626,0.11231400
1759198445820,-0.01207066,0.01511800,0.05586434,-0.01117983,0.01051195,0.01119959,0.71953181,0.06595309,-0.68211484,0.11244335
1759198445830,0.04037536,0.12955501,-0.25488327,0.04411332,0.03378763,0.03840556,0.71964714,0.06618468,-0.68193746,0.11264498
1759198445841,-0.03761791,0.27877991,-0.03137624,0.02560214,0.00071705,0.00212624,0.71963628,0.06632294,-0.68193359,0.11265646
1759198445843,-3.48556097,12.09727661,-10.30749883,0.17726006,0.06377916,-0.21638190,0.71969862,0.06646474,-0.68188256,0.11248336
1759198445852,0.49120798,-2.07607324,1.79085570,0.00591702,-0.01105167,-0.04074235,0.71967627,0.06649315,-0.68193561,0.11228779
1759198445864,0.02136868,-0.09613319,0.27287751,0.00058002,0.01138466,0.00756793,0.71973358,0.06649663,-0.68186730,0.11233320
1759198445875,-0.00167160,0.13007288,0.03052975,-0.00877889,-0.00257920,-0.01204933,0.71973487,0.06645098,-0.68188071,0.11227055
1759198445885,-0.00217181,-0.08991877,0.02262219,-0.00815556,-0.00133548,-0.00097171,0.71973292,0.06640694,-0.68188793,0.11226530
1759198445897,-0.02289148,0.01967310,0.05344256,-0.01948961,-0.00746395,0.00892438,0.71969592,0.06629877,-0.68192935,0.11231483
1759198445907,0.03546564,-0.01758141,0.06355070,0.01354629,-0.00593874,0.01658046,0.71964434,0.06637260,-0.68196172,0.11240519
1759198445919,0.01447911,-0.03273324,-0.00700188,0.01232175,-0.01932677,0.01405095,0.71952201,0.06644221,-0.68207091,0.11248458
1759198445929,0.20570317,-0.20735253,0.00479146,0.03068659,-0.02067788,0.01914758,0.71938592,0.06660639,-0.68218154,0.11258702
1759198445940,-0.15322584,-0.03116748,0.04118468,0.00534802,-0.00562141,-0.00068222,0.71935475,0.06663553,-0.68221218,0.11258330
1759198445952,0.03471766,-0.10466843,-0.13783556,0.00624279,-0.01211962,-0.00237499,0.71928805,0.06667112,-0.68228126,0.11256976
1759198445975,-0.01055346,0.00069101,-0.02485138,-0.00049228,-0.00132487,0.00434029,0.71926602,0.06666538,-0.68229669,0.11262033
1759198445985,0.00614464,-0.28264648,-0.06131635,-0.01162189,0.00863057,0.00657742,0.71930884,0.06660495,-0.68225181,0.11265453
1759198445987,-2.97141498,-11.21113992,-2.37625026,-0.07943560,0.06602215,-0.02019162,0.71935637,0.06655331,-0.68220890,0.11264141
1759198445997,0.40199669,1.61660389,0.29856746,-0.00276399,0.00925746,0.00415231,0.71939745,0.06653977,-0.68216354,0.11266175
1759198446009,-0.02284672,0.04419375,-0.00205134,-0.00802712,0.00581384,-0.00628517,0.71944161,0.06649081,-0.68212807,0.11262341
1759198446019,0.16409885,-0.18818346,0.00713065,-0.00878164,0.00533702,0.00204556,0.71947131,0.06644382,-0.68209952,0.11263436
1759198446030,0.12885099,0.20407914,-0.18741962,-0.03423242,0.00585999,-0.02488420,0.71953875,0.06626068,-0.68206817,0.11250123
1759198446041,0.01725025,0.09561688,0.03925659,-0.01174028,0.01011105,-0.00951786,0.71960680,0.06619493,-0.68201155,0.11244793
1759198446052,0.11534039,0.16822093,-0.02189558,-0.01897550,0.00567673,-0.00456152,0.71964794,0.06609531,-0.68198174,0.11242398
1759198446064,-0.20379522,-0.10601233,0.15721150,-0.00140368,0.00563416,-0.02457710,0.71970237,0.06608710,-0.68194878,0.11228020
1759198446074,-0.05274719,-0.00091975,-0.00736655,0.00524154,-0.01013802,-0.06811691,0.71970521,0.06611567,-0.68200404,0.11190897
1759198446086,0.01873475,0.02908567,0.12158546,-0.01627730,-0.00181911,-0.01030152,0.71971303,0.06602289,-0.68201441,0.11185025
1759198446096,0.03065239,0.05966155,-0.01516614,-0.00531631,-0.01366955,-0.00281341,0.71964988,0.06599498,-0.68208617,0.11183548
1759198446108,-0.11860108,0.09908765,0.00006336,-0.01912662,-0.00494919,-0.02045097,0.71965121,0.06588787,-0.68211389,0.11172095
1759198446120,0.03644197,-0.06221451,0.03308096,-0.01176947,-0.00521784,0.00616806,0.71962177,0.06581607,-0.68214572,0.11175858
1759198446131,-0.25436108,-0.00960987,-0.40893579,-0.02183230,-0.01913805,0.00025416,0.71953192,0.06569491,-0.68225193,0.11175999
1759198446142,-0.10960812,-0.05610459,0.09822992,-0.01414102,-0.01460033,0.00034015,0.71946321,0.06561784,-0.68233150,0.11176184
1759198446152,0.03202229,-0.04028758,-0.04352587,0.01313543,-0.01393726,-0.00291826,0.71938850,0.06568811,-0.68240607,0.11174623
1759198446175,0.09516431,0.02011579,0.16226349,-0.00101973,-0.00451621,-0.00318887,0.71934747,0.06567679,-0.68245620,0.11171083
1759198446186,-0.07002684,-0.16409017,-0.02350138,0.03696170,-0.00544932,0.01383590,0.71928756,0.06588378,-0.68248671,0.11178831
1759198446197,0.05260936,0.15370698,-0.03901209,0.01773476,0.00178785,0.01492276,0.71927451,0.06598664,-0.68247634,0.11187486
1759198446253,0.01152858,0.00312235,0.00176191,0.00475116,0.00054655,0.00507743,0.71925490,0.06611825,-0.68246120,0.11201551
1759198446299,0.01669834,-0.03144265,0.01096127,0.01388261,0.01096154,0.00589924,0.71944184,0.06643477,-0.68221128,0.11215001
1759198446342,0.00409736,0.04394731,-0.01026106,-0.00556694,0.00288417,-0.00317827,0.71952308,0.06631397,-0.68214869,0.11208104
1759198446364,0.15961315,0.05410553,0.12602591,0.00756221,-0.00778073,-0.00239745,0.71943682,0.06639866,-0.68223584,0.11205419
1759198446388,-0.11999227,-0.26107893,-0.06823909,-0.01551299,-0.00908516,-0.02538308,0.71939877,0.06621639,-0.68234259,0.11175594
1759198446420,-0.02706532,0.01611733,-0.00046938,-0.00238182,-0.00511477,-0.01243336,0.71935553,0.06617828,-0.68242443,0.11155701
1759198446442,0.03907326,0.14255197,-0.05905037,-0.00588839,-0.00709390,-0.00861676,0.71930141,0.06611262,-0.68250352,0.11146093
1759198446489,-0.02679386,0.00888086,0.00354401,-0.00248789,-0.00183026,0.00038227,0.71926481,0.06605453,-0.68254626,0.11146986
1759198446510,-0.12557000,-0.10754062,0.13769766,-0.03161990,-0.01812773,-0.02998811,0.71916185,0.06571778,-0.68273932,0.11115048
1759198446522,0.10094800,0.32020885,-0.05081766,0.04452886,-0.00256905,0.04061679,0.71908760,0.06597604,-0.68275422,0.11138606
1759198446568,0.03472601,0.00577909,-0.04097113,0.02162875,0.00559041,0.01662936,0.71910477,0.06648108,-0.68262368,0.11177436
1759198446603,-0.01259126,0.02721393,0.00566520,0.02071891,0.00018820,-0.02191425,0.71913362,0.06684159,-0.68262041,0.11139305
1759198446635,-0.07830005,-0.03337751,0.05066991,-0.01080041,-0.00118816,-0.00447853,0.71914266,0.06666986,-0.68263930,0.11132184
1759198446679,0.03422228,-0.01655087,-0.00425708,0.01020724,-0.00770514,0.01145854,0.71892278,0.06689340,-0.68280804,0.11157278
1759198446711,-0.07638891,-0.14617717,-0.05318832,-0.00454418,0.00624443,0.00108947,0.71902140,0.06682092,-0.68270845,0.11159016
1759198446733,0.02727350,0.04796484,-0.06906172,0.01219546,0.00762431,0.00539504,0.71907934,0.06695507,-0.68262458,0.11164950
1759198446754,0.17604424,0.19550922,-0.01576477,-0.01184943,-0.00212519,-0.00731050,0.71908171,0.06682709,-0.68264753,0.11157055
1759198446788,-0.03030472,-0.01692280,0.05478859,0.00209610,0.00015050,0.00931919,0.71905675,0.06686199,-0.68264502,0.11172571
1759198446799,0.03012840,0.10582436,-0.03233900,0.03102999,-0.01542341,-0.04076702,0.71899344,0.06703731,-0.68273217,0.11149538
1759198446834,-0.01137888,-0.04037727,0.00697716,0.00045213,-0.00371680,-0.00495096,0.71894465,0.06704518,-0.68279684,0.11140923
1759198446855,0.03732289,0.05442120,-0.04406939,-0.01986933,-0.00517484,-0.00497181,0.71891975,0.06682960,-0.68285299,0.11135529
1759198446865,-0.05202980,-0.07781179,0.12283266,-0.00734856,-0.01228648,0.00701705,0.71885877,0.06679249,-0.68291503,0.11139073
1759198446889,-0.02506797,-0.06042680,-0.01870048,0.00419601,-0.00463964,-0.00146521,0.71880597,0.06684095,-0.68296862,0.11137380
1759198446900,0.02603745,-0.27143453,-0.00171237,0.01002034,-0.00386890,0.00152677,0.71877933,0.06689606,-0.68298990,0.11138220
1759198446934,-0.00282027,0.08542638,-0.00397205,0.00090623,0.00159302,-0.00134494,0.71880758,0.06691170,-0.68296242,0.11135900
1759198446944,0.43120281,0.09455208,0.16785392,0.02625226,0.00965275,0.00607232,0.71883736,0.06704690,-0.68291271,0.11139027
1759198446965,-0.13208152,0.04226851,-0.06739470,0.01235834,-0.00010494,-0.00338122,0.71882988,0.06717357,-0.68291378,0.11135561
1759198446976,0.15857806,-0.21214143,-0.02820938,0.02076350,-0.00195480,0.00899779,0.71880106,0.06728881,-0.68292463,0.11140555
1759198446988,-0.09206299,0.13356214,-0.03277008,0.00108235,-0.00422672,-0.00816065,0.71878409,0.06729525,-0.68294978,0.11135700
1759198447000,0.01974069,-0.02614502,0.00052772,-0.01710185,-0.01078708,-0.00347088,0.71873379,0.06718921,-0.68301666,0.11133548
1759198447011,-0.00632513,-0.06654978,0.05793202,-0.01410646,0.00189880,-0.00733599,0.71875572,0.06711657,-0.68300688,0.11129770
1759198447032,-0.04027336,0.04783610,0.00081756,-0.00967336,-0.00257936,-0.00582183,0.71874880,0.06701306,-0.68303448,0.11123540
1759198447044,1.05395346,0.91487135,0.65783621,-0.03857359,-0.00703023,-0.02612439,0.71875435,0.06678741,-0.68307561,0.11108258
1759198447055,-0.83614955,-0.85417737,-0.50965665,-0.00876912,-0.00042583,-0.01696708,0.71877132,0.06673830,-0.68307799,0.11098756
1759198447066,-0.13497513,-0.27248591,-0.17152707,-0.02249211,-0.00533613,-0.02080196,0.71877253,0.06661797,-0.68310654,0.11087627
1759198447077,0.01504644,-0.02898519,-0.02249732,-0.00808705,-0.00410274,-0.01933847,0.71877160,0.06657308,-0.68312931,0.11076894
1759198447088,0.00763752,-0.06566895,0.01488008,-0.00976806,0.00018474,-0.01082144,0.71878671,0.06651936,-0.68312830,0.11070942
1759198447111,-0.08772412,0.06412771,-0.02083808,-0.00704536,-0.00327461,-0.00798256,0.71877260,0.06643869,-0.68316579,0.11061802
1759198447121,0.24473045,-0.21630348,0.03330900,-0.01865870,-0.00053968,-0.02052613,0.71879575,0.06633980,-0.68316865,0.11050923
1759198447132,-0.19399266,-0.04873575,0.07001954,-0.01369734,0.00867422,-0.01521242,0.71886208,0.06626309,-0.68312007,0.11042404
1759198447144,0.01203186,-0.08735712,-0.00622232,-0.00660193,-0.00505117,-0.00237813,0.71883951,0.06622414,-0.68314988,0.11041001
1759198447155,-0.09557861,0.05947038,0.05478095,-0.00122623,0.00357634,-0.01354116,0.71886998,0.06621746,-0.68313039,0.11033621
1759198447166,0.02168797,0.13766373,-0.05983513,-0.00837716,-0.00635061,-0.00626390,0.71884631,0.06617138,-0.68316531,0.11030176
1759198447189,-0.01759816,0.06906886,-0.02980107,-0.00008033,-0.00297492,-0.00422165,0.71882155,0.06617047,-0.68319923,0.11025364
1759198447200,0.05352687,-0.19104534,0.09120659,-0.02044378,-0.01574190,-0.02211535,0.71876727,0.06605598,-0.68328738,0.11012979
1759198447211,-0.07870559,0.15972921,-0.02668312,-0.00946708,-0.00457160,0.00416856,0.71874484,0.06600439,-0.68331230,0.11015251
1759198447221,0.03598673,-0.02475994,-0.07363503,-0.00922324,-0.01037707,0.01252193,0.71868741,0.06595597,-0.68336678,0.11021825
1759198447232,-0.01384638,0.32962550,-0.26469134,-0.00726727,-0.00605871,-0.00594473,0.71866462,0.06591636,-0.68339980,0.11018585
1759198447267,-0.01716648,-0.03389103,0.05571684,-0.00551389,-0.00156424,-0.00156401,0.71865177,0.06582097,-0.68342686,0.11015879
1759198447277,-0.03154991,0.35010465,-0.27128173,0.01233627,0.01606302,0.06416426,0.71867303,0.06588203,-0.68334735,0.11047641
1759198447288,-0.09197900,-0.11332160,0.28186101,0.02957901,0.02107774,0.02076674,0.71875498,0.06605359,-0.68322510,0.11059685
1759198447311,0.04778982,-0.03031732,0.00970404,0.04492364,0.01441051,0.01823515,0.71883118,0.06656123,-0.68306226,0.11080291
1759198447322,-0.09213715,0.16670328,-0.02981225,0.04234504,0.01421725,-0.04005133,0.71891701,0.06679201,-0.68298477,0.11058463
1759198447333,-0.20177460,-0.06254246,0.21329251,0.00733794,0.00334257,-0.02296681,0.71894924,0.06683127,-0.68296689,0.11046176
1759198447344,-0.10979246,-0.05431436,0.08152619,-0.01542782,0.00190335,-0.00950342,0.71897603,0.06674333,-0.68295604,0.11040759
1759198447356,0.05248852,-0.10779432,-0.05001550,0.00128598,-0.00479794,0.00236559,0.71894529,0.06675117,-0.68298531,0.11042202
1759198447378,0.11129875,-0.03369946,-0.06386880,-0.01152716,-0.00589932,0.00502078,0.71888824,0.06662726,-0.68304873,0.11047599
1759198447388,-0.32529532,0.19043916,0.13234150,-0.00548022,-0.02737390,0.00837233,0.71874489,0.06659794,-0.68319518,0.11052078
1759198447400,0.15026060,-0.12918342,-0.01082039,0.01568212,-0.02146750,0.00900813,0.71860888,0.06668968,-0.68332076,0.11057348
1759198447412,0.03875238,-0.05595147,-0.12017592,0.01360206,-0.03610925,0.00398272,0.71839698,0.06676925,-0.68353200,0.11059678
1759198447422,-0.10082327,-0.09408801,0.00985684,-0.01265012,-0.00936174,0.00942686,0.71835014,0.06670473,-0.68357975,0.11064486
1759198447433,0.09512371,0.00810107,-0.19382451,-0.00489078,0.00134721,0.00383623,0.71835632,0.06667832,-0.68357247,0.11066557
1759198447444,0.12418541,-0.03670228,-0.11444289,-0.01026423,0.00350457,0.01560310,0.71836734,0.06661828,-0.68355197,0.11075685
1759198447456,0.04321011,0.05065264,-0.11429250,0.00703049,0.00251320,0.01911324,0.71836063,0.06665730,-0.68353802,0.11086293
1759198447467,-0.13896371,-0.02476010,0.19333825,0.00738419,0.01551733,0.01633490,0.71842823,0.06670049,-0.68344724,0.11095849
1759198447477,-0.04371680,-0.01365106,-0.17903651,0.02314566,0.00647167,0.02113570,0.71843186,0.06681391,-0.68341553,0.11106205
1759198447489,-0.02227040,0.03160626,0.15373358,0.02243837,0.01835795,0.00421225,0.71851650,0.06694293,-0.68330997,0.11108627
1759198447500,-0.01074809,-0.06717058,0.02169958,0.00337778,0.01628176,0.00720771,0.71859660,0.06696218,-0.68321717,0.11112736
1759198447512,-0.00003438,0.00075053,-0.07323077,-0.01071730,0.01093272,-0.00219355,0.71866523,0.06689949,-0.68315321,0.11111453
1759198447523,0.03744394,0.10512808,-0.00490916,-0.01137385,0.01366541,-0.00027386,0.71874272,0.06683693,-0.68307805,0.11111302
1759198447556,0.07870643,-0.01500996,0.05398422,0.00105911,0.00484636,0.00676063,0.71880104,0.06685478,-0.68299639,0.11122694
1759198447578,-0.01475552,-0.02757389,-0.06061654,0.00894679,0.00403418,-0.00511474,0.71884199,0.06695140,-0.68295282,0.11117170
1759198447589,-0.23155194,0.34390965,-0.03152533,-0.02705020,0.00228770,0.01715853,0.71885329,0.06680127,-0.68294013,0.11126693
1759198447611,0.11420582,-0.09385289,0.06355609,-0.00539857,0.00034273,0.00921429,0.71884672,0.06674216,-0.68293637,0.11136782
1759198447622,-0.16314707,0.09113529,-0.01873721,-0.00021992,-0.00131446,0.00318011,0.71883751,0.06674098,-0.68294341,0.11138484
1759198447634,0.11080425,0.39170345,-0.23106985,0.01748199,-0.00452410,0.00932304,0.71879256,0.06684762,-0.68297100,0.11144171
1759198447667,0.01844246,-0.13784833,0.08092497,0.00589707,0.00271949,0.00340799,0.71881720,0.06694404,-0.68292654,0.11149743
1759198447678,-0.11863552,0.01822550,-0.30268578,0.02173972,0.01841858,0.01314313,0.71889174,0.06706469,-0.68282432,0.11157037
1759198447689,0.05995891,-0.29430904,0.21175439,0.02114404,0.01410807,0.01411627,0.71894483,0.06718627,-0.68274319,0.11165154
1759198447701,0.07026761,0.13043915,0.08521377,0.01737095,0.00488745,0.01266646,0.71895112,0.06729050,-0.68271387,0.11172754
1759198447713,0.04680390,-0.00736849,0.04017293,0.01166953,0.00046935,0.01236308,0.71893545,0.06736168,-0.68271101,0.11180295
1759198447746,-0.00112665,-0.00933219,0.01852301,0.00315145,0.00041092,0.00230327,0.71893121,0.06741242,-0.68270439,0.11184004
1759198447757,0.33758103,-0.14544135,0.19417991,0.01117030,-0.01006186,0.01313548,0.71886228,0.06747330,-0.68275923,0.11191163
1759198447767,-0.21839785,0.19573099,-0.13415106,-0.00708424,0.00265698,-0.00423450,0.71888248,0.06743611,-0.68274528,0.11188939
1759198447779,0.03444415,-0.00558794,-0.13588440,-0.01013923,-0.01160340,-0.00571700,0.71882740,0.06737527,-0.68281490,0.11185509
1759198447790,-0.01717210,0.04160394,0.00540979,-0.00699117,-0.00799457,-0.01791734,0.71880477,0.06733717,-0.68285847,0.11175744
1759198447842,-0.02776050,-0.01573789,0.01500895,-0.00103043,-0.00030483,-0.00001832,0.71879982,0.06731038,-0.68286639,0.11175697
1759198447859,0.71374903,0.10519344,0.14292747,-0.04413010,-0.00910305,-0.03404461,0.71880638,0.06692865,-0.68294514,0.11146248
1759198447905,-0.24326172,-0.07575845,-0.06454957,-0.00956334,0.00206737,-0.01058062,0.71890947,0.06670917,-0.68289769,0.11121966
1759198447948,0.00546754,0.00534468,0.00665203,-0.00433275,0.00275844,-0.00612960,0.71899421,0.06661667,-0.68283880,0.11108879
1759198447979,-0.09543676,-0.09217130,0.10032115,-0.00863841,-0.00862469,-0.00969479,0.71890135,0.06648061,-0.68297464,0.11093610
1759198448030,0.03257737,0.08247950,-0.04907920,-0.00641251,-0.00513378,-0.00329828,0.71880523,0.06631742,-0.68310529,0.11085215
1759198448065,0.02007235,0.07754472,0.03724266,0.02259329,0.00241546,0.03337730,0.71872024,0.06670489,-0.68306387,0.11142458
1759198448105,0.00404806,-0.01841362,0.00154227,0.03901438,0.01496173,-0.00618983,0.71895259,0.06749103,-0.68276239,0.11129985
1759198448141,-0.00495075,-0.02405577,-0.02530421,0.00000573,-0.00227966,-0.01098446,0.71894408,0.06749114,-0.68280399,0.11109938
1759198448172,-0.07575221,-0.08044797,0.06311301,-0.02882834,-0.01462093,0.01196495,0.71874713,0.06705583,-0.68302477,0.11128005
1759198448201,0.04302860,-0.01206770,-0.08378225,0.00148508,-0.02382190,-0.01991537,0.71845349,0.06707796,-0.68337971,0.11098332
1759198448225,0.00114450,-0.13769529,-0.09635083,-0.02056424,0.01541604,0.01256010,0.71862545,0.06683633,-0.68319857,0.11113090
1759198448269,-0.04023274,0.10464908,0.05951032,0.00689558,0.00871592,0.00372324,0.71878091,0.06698803,-0.68300682,0.11121281
1759198448280,-0.25739394,-0.41265640,-0.06420380,0.00023051,0.01571468,-0.01971410,0.71888416,0.06698935,-0.68291646,0.11109945
1759198448315,0.13513082,0.16785389,-0.00919537,-0.00311007,0.00430478,0.01043953,0.71893143,0.06693617,-0.68284285,0.11127797
1759198448325,0.02807725,0.23238390,0.04161358,0.05667907,0.00697562,-0.01426566,0.71894933,0.06722240,-0.68280763,0.11120593
1759198448381,-0.02659324,-0.02111029,-0.01346587,0.00311770,-0.00415133,0.00005508,0.71882881,0.06731094,-0.68292552,0.11120749
1759198448401,-0.10809218,0.10640059,0.05658034,-0.02247333,-0.01521133,0.01834564,0.71867687,0.06708621,-0.68307764,0.11139095
1759198448425,0.09837196,-0.13765130,0.02442115,0.00943171,0.00084498,0.00797389,0.71866129,0.06719798,-0.68306762,0.11148544
1759198448446,0.01161782,0.04445779,0.09215372,0.02732607,0.00574749,0.01385049,0.71866907,0.06748080,-0.68300814,0.11162879
1759198448469,0.04988572,-0.01318474,-0.09132590,0.02004758,0.00552703,0.00956555,0.71869079,0.06771235,-0.68294430,0.11173927
1759198448481,0.09891385,-0.14671675,-0.05765639,0.01165225,0.00524733,0.00617921,0.71870792,0.06778052,-0.68291360,0.11177542
1759198448502,-0.02635297,-0.00967140,0.00605010,-0.00536009,-0.00170678,-0.00488387,0.71870411,0.06772343,-0.68293178,0.11172341
1759198448513,0.01154003,0.00767737,0.04585896,-0.01941691,0.00032970,-0.02103498,0.71873441,0.06761470,-0.68292993,0.11160561
1759198448525,0.09636389,-0.03154268,-0.03619040,-0.00608142,-0.00256753,-0.00370639,0.71872685,0.06757912,-0.68294495,0.11158393
1759198448536,-0.19722039,0.03591491,0.18049185,-0.00557914,-0.00407877,-0.00867591,0.71871542,0.06754732,-0.68296820,0.11153448
1759198448546,0.02158933,-0.02350403,0.03069545,0.00555910,-0.00698834,-0.00049598,0.71867928,0.06757567,-0.68300384,0.11153195
1759198448558,-0.05162466,0.07044346,-0.03892783,-0.00106119,-0.00461284,-0.00423727,0.71865842,0.06756957,-0.68303037,0.11150758
1759198448570,0.17013741,-0.01871811,-0.08607674,-0.00703952,0.00240349,-0.00283713,0.71867891,0.06752698,-0.68301583,0.11149042
1759198448581,0.07865122,-0.05464155,-0.13692940,-0.02579743,-0.01022298,-0.00870231,0.71864740,0.06739025,-0.68307001,0.11144430
1759198448614,-0.05271045,0.00521046,0.00817987,-0.00663273,0.00135996,-0.00480672,0.71869181,0.06727949,-0.68304730,0.11136402
1759198448625,0.96653830,-0.80796074,-0.05449841,-0.05825120,0.00222019,-0.05221577,0.71877699,0.06696202,-0.68303520,0.11107945
1759198448648,-0.42608273,0.39071680,-0.05322824,-0.00692283,-0.00153873,-0.00331358,0.71877352,0.06688344,-0.68305266,0.11104184
1759198448658,0.16263511,0.01031046,-0.14538636,-0.02385138,0.00108013,-0.01274231,0.71880114,0.06675703,-0.68304694,0.11097430
1759198448669,-0.00839286,-0.19626698,0.34104040,-0.00808575,0.00081591,-0.01559009,0.71882297,0.06671215,-0.68304241,0.11088778
1759198448682,-0.13015335,0.04451339,0.03601280,-0.01852765,-0.00154516,-0.01107616,0.71883520,0.06659636,-0.68305207,0.11081855
1759198448702,-0.01882017,0.05446374,-0.03984571,-0.00167861,-0.00460146,-0.00779709,0.71880505,0.06657957,-0.68309808,0.11074058
1759198448703,8.99421745,-5.24512057,9.44239853,-0.03942750,-0.03740837,-0.10099091,0.71879442,0.06655394,-0.68312240,0.11067494
1759198448714,-1.05803981,0.69323233,-1.05543676,0.01441199,-0.01033945,-0.01029926,0.71874319,0.06663105,-0.68317771,0.11061984
1759198448725,-0.20220278,-0.02492579,-0.10205872,0.00351089,-0.01229070,-0.00562204,0.71867855,0.06665141,-0.68324900,0.11058723
1759198448736,-0.31671399,-0.03902207,-0.15141866,-0.00380957,-0.01292556,-0.00092238,0.71861486,0.06663084,-0.68331880,0.11058225
1759198448747,0.02137971,-0.04386805,-0.04077061,0.00720753,-0.01246874,0.02336028,0.71852538,0.06667084,-0.68338800,0.11071190
1759198448758,0.01730797,0.11638307,0.02742519,0.00150819,-0.00410078,0.01491450,0.71849083,0.06667906,-0.68341035,0.11079318
1759198448781,0.14295124,0.05543474,0.08137594,-0.00384150,-0.00101827,0.00186223,0.71848067,0.06663565,-0.68342185,0.11081423
1759198448792,-0.15822416,0.18186230,0.06195271,-0.00713800,0.01109510,0.01671312,0.71852989,0.06659496,-0.68335861,0.11090949
1759198448803,0.14781745,-0.11435950,-0.12487563,0.01273898,0.00640178,0.02716640,0.71853373,0.06666376,-0.68332404,0.11105619
1759198448804,-6.38565211,8.25523677,-1.62074212,0.18154488,0.12343181,0.15751209,0.71858323,0.06678176,-0.68324381,0.11115857
1759198448814,0.83197860,-1.19772916,0.24360898,0.01708888,0.01495391,0.01967089,0.71863163,0.06686806,-0.68316829,0.11125791
1759198448836,-0.01059944,0.03631647,0.00260566,0.01337175,0.00834464,0.00210111,0.71870160,0.06701515,-0.68307650,0.11128102
1759198448858,-0.08237496,0.18323815,-0.06132690,0.04000038,0.01433225,0.02128649,0.71877364,0.06745315,-0.68291956,0.11151411
1759198448869,-0.28861427,0.64617340,-0.12983950,0.06420072,0.00319022,-0.04818002,0.71879771,0.06779984,-0.68290234,0.11125394
1759198448880,0.39455379,-0.89330061,0.36031554,-0.01007320,0.00147903,0.00787661,0.71880406,0.06774343,-0.68289405,0.11129805
1759198448892,-0.07255380,-0.01869002,-0.05115408,-0.00591692,-0.00345363,-0.00082416,0.71878888,0.06770881,-0.68291426,0.11129322
1759198448904,-0.02487692,-0.08836545,0.03577839,-0.03852914,-0.00814757,-0.00533118,0.71876995,0.06748727,-0.68296111,0.11126257
1759198448915,0.03516972,-0.03032929,-0.02624994,-0.03379951,-0.01229054,0.00207702,0.71872005,0.06729630,-0.68303055,0.11127430
1759198448936,0.05426517,-0.01545364,-0.02245509,-0.00726971,-0.00895470,0.00223616,0.71863378,0.06721961,-0.68312502,0.11129790
1759198448937,-40.78456033,-18.07826920,12.85572856,-0.07855925,-0.24957040,-0.07729402,0.71848119,0.06716462,-0.68329972,0.11124379
1759198448958,2.61243562,1.10672728,-0.84562334,0.00602410,-0.00583041,-0.00295240,0.71842157,0.06722817,-0.68336123,0.11121264
1759198448969,-0.07127915,-0.06388520,-0.06228071,0.01120588,-0.00333397,0.01099018,0.71838959,0.06728868,-0.68337923,0.11127199
1759198448980,0.00691380,0.14302637,-0.02354321,-0.00035999,0.00372631,0.00756722,0.71840294,0.06728668,-0.68335855,0.11131399
1759198449003,0.09726821,-0.01736598,0.02392705,0.00202704,0.00827711,0.01564311,0.71846313,0.06730989,-0.68326378,0.11149310
1759198449005,-31.08788555,-11.72704757,-8.57103802,0.00805653,0.16307825,0.20456333,0.71855504,0.06731594,-0.68314147,0.11164652
1759198449026,2.21152095,0.86934186,0.59332191,0.00856854,0.00549277,-0.00100749,0.71860285,0.06740548,-0.68308407,0.11163600
1759198449036,-0.12578197,0.01004907,-0.06740498,0.01414452,0.00848506,0.00564724,0.71863274,0.06747761,-0.68304080,0.11166480
1759198449047,-0.04866963,0.15889122,0.03237447,-0.01394189,0.00853263,-0.00939990,0.71869474,0.06739814,-0.68299216,0.11161122
1759198449059,0.09892797,-0.00681487,-0.00449641,-0.01149840,0.00041028,0.00538315,0.71869859,0.06732800,-0.68298966,0.11164405
1759198449069,-0.08637455,0.09013809,0.05909011,0.00453848,0.00795994,0.01551602,0.71872200,0.06735047,-0.68295026,0.11172086
1759198449081,0.08523685,-0.04005781,0.00436767,0.00899651,0.00700345,0.01678812,0.71873992,0.06740085,-0.68291104,0.11181487
1759198449092,0.02069606,0.07890218,0.03497118,0.01254953,0.00255131,-0.00310633,0.71874978,0.06747238,-0.68289650,0.11179717
1759198449104,-0.00536245,0.05062197,0.00603234,0.01273816,-0.00424912,-0.01340304,0.71873025,0.06755136,-0.68292284,0.11171407
1759198449116,0.06123819,0.04865740,-0.02947188,0.00992817,-0.01186852,0.00118411,0.71866021,0.06760745,-0.68298990,0.11172076
1759198449136,0.03450085,-0.11523099,0.01608066,0.00006405,-0.00191774,0.00761482,0.71862903,0.06760812,-0.68300975,0.11179957
1759198449148,-0.10132981,0.05871544,-0.25810941,-0.02341259,-0.00395317,-0.00098996,0.71862082,0.06747115,-0.68303287,0.11179378
1759198449159,0.19819697,-0.28333953,0.06121614,-0.00141191,-0.00484761,0.00978848,0.71858933,0.06746374,-0.68305832,0.11184517
1759198449181,-0.03180753,0.04692345,0.08729879,0.00000882,0.00169163,0.00301595,0.71860196,0.06746384,-0.68303955,0.11187865
1759198449182,-9.99317513,12.53397973,-11.21856071,0.20978534,-0.00111744,0.18337166,0.71856495,0.06762118,-0.68304038,0.11201617
1759198449203,0.72820910,-0.89325591,0.77252761,0.01134590,0.00109441,0.01251113,0.71854446,0.06773861,-0.68302906,0.11214567
1759198449214,-0.05074589,-0.04146988,-0.06292135,0.00648471,0.00356516,0.02098333,0.71854176,0.06777362,-0.68300980,0.11225898
1759198449226,0.05634262,-0.02382739,0.01925764,0.01119320,0.00980853,0.01628137,0.71857810,0.06784470,-0.68294752,0.11236236
1759198449236,-0.03565162,-0.06039347,-0.50600820,0.00414655,0.00905029,0.01311107,0.71860827,0.06786502,-0.68290317,0.11242661
1759198449247,0.12563319,-0.04721889,0.04995611,0.00860806,0.00554207,0.01518813,0.71861980,0.06791279,-0.68287242,0.11251090
1759198449259,-0.05623090,0.06877280,0.09206109,-0.00038981,0.00453739,0.00255285,0.71864329,0.06791047,-0.68284542,0.11252609
1759198449271,0.03654575,0.06091889,0.31181977,0.00010928,0.01229374,0.00724331,0.71870229,0.06791109,-0.68277657,0.11256665
1759198449281,0.09456492,-0.01705508,-0.11015997,0.00246553,-0.00337769,0.00623123,0.71867843,0.06792440,-0.68279481,0.11260030
1759198449292,0.01024426,0.09559184,-0.01538008,-0.00959212,-0.00613361,-0.00566201,0.71865625,0.06787164,-0.68282855,0.11256916
1759198449303,-0.01029979,-0.03724328,0.05160450,-0.00980777,0.00087013,-0.00867303,0.71867351,0.06781721,-0.68282372,0.11252102
1759198449315,-0.00748911,-0.04076162,0.07605525,-0.02460982,-0.00142306,-0.00823114,0.71868693,0.06767078,-0.68283219,0.11247205
1759198449372,-0.02141402,0.00273302,0.01689932,-0.00517800,-0.00106449,-0.00458888,0.71869245,0.06752321,-0.68286252,0.11234127
1759198449383,0.98151268,-0.89214862,0.50846977,-0.04748362,-0.01330622,-0.03713789,0.71867917,0.06725968,-0.68293637,0.11213515
1759198449427,-0.23605008,0.18131017,-0.12732196,-0.00712761,0.00068923,-0.00563917,0.71872770,0.06710251,-0.68292118,0.11201081
1759198449460,0.06749729,0.10004762,0.09083649,0.00225755,0.00112200,-0.00199821,0.71874648,0.06713886,-0.68290311,0.11197864
1759198449471,-0.14048980,-0.11219190,0.06133916,-0.00780796,-0.00294993,-0.01143348,0.71874475,0.06709279,-0.68292052,0.11191118
1759198449494,-0.12033078,-0.03516185,-0.10394995,-0.00683561,-0.00425389,-0.01087394,0.71872532,0.06701521,-0.68296880,0.11178776
1759198449531,0.02975202,0.01960588,-0.02096779,0.00504936,-0.00276745,0.00135807,0.71866453,0.06710786,-0.68301958,0.11181268
1759198449568,-0.05328126,0.02416243,0.02168423,0.00232651,-0.00052624,0.01614574,0.71860521,0.06715055,-0.68302924,0.11210895
1759198449594,-0.12143525,-0.00908409,0.00383842,0.01533701,0.00320617,0.01552484,0.71859449,0.06735300,-0.68298692,0.11231388
1759198449628,0.13943967,-0.00288324,-0.03484923,0.01949364,0.01508825,0.03851184,0.71870575,0.06768829,-0.68272740,0.11297629
1759198449661,-0.01668760,0.10717437,0.01574879,0.03449590,0.01611730,0.01458490,0.71886223,0.06824195,-0.68246871,0.11321037
1759198449673,-0.34833648,0.55781814,0.35136315,-0.02566442,-0.00992088,-0.10151664,0.71891642,0.06808668,-0.68252874,0.11259620
1759198449694,0.21893966,-0.47536434,-0.12852534,-0.02611448,-0.01000491,-0.00603243,0.71884977,0.06780073,-0.68263829,0.11253014
1759198449728,0.00440595,-0.02268460,-0.00929217,-0.00287196,-0.01222957,-0.00177166,0.71866603,0.06775305,-0.68284130,0.11250073
1759198449739,-0.41603030,-0.27387392,0.54131539,0.00642564,-0.02260805,-0.00468745,0.71854537,0.06778936,-0.68296904,0.11247425
1759198449761,0.13820298,0.07180754,-0.25316720,-0.00457644,-0.00594949,-0.00247500,0.71849241,0.06773925,-0.68303418,0.11244715
1759198449772,0.07740459,-0.23674339,0.00046716,0.01036719,-0.00814789,0.01727831,0.71842669,0.06779886,-0.68308103,0.11254650
1759198449783,0.02936327,0.19422376,-0.07894456,0.00169723,0.00160369,0.01767225,0.71841896,0.06780819,-0.68307221,0.11264370
1759198449804,0.01779482,0.09376475,-0.05275324,-0.00318427,-0.00185098,0.00311416,0.71839870,0.06777508,-0.68309146,0.11267608
1759198449806,-1.13636624,-4.72880540,1.05085286,0.04257462,0.00215693,0.07252681,0.71838469,0.06781978,-0.68308920,0.11275224
1759198449827,0.12731877,0.43541125,-0.10542318,-0.00530264,-0.00078899,0.00168643,0.71837928,0.06776410,-0.68309748,0.11276994
1759198449838,-0.11436640,0.21526030,-0.18058104,-0.02243529,0.00427599,0.00207334,0.71841119,0.06764183,-0.68307418,0.11278124
1759198449862,0.04496911,0.00983088,0.03716418,-0.00253516,0.00386790,0.00647897,0.71844554,0.06761179,-0.68302834,0.11285802
1759198449872,0.18774023,0.63148074,-0.28070354,0.01380911,0.02262546,0.02670430,0.71852319,0.06767876,-0.68291861,0.11298753
1759198449883,0.02485601,-0.37076049,0.25172387,0.02391662,0.00549485,-0.00353570,0.71854257,0.06781030,-0.68288839,0.11296809
1759198449893,-0.08157072,-0.04099890,0.09735154,0.00293910,0.01056487,0.00403336,0.71858912,0.06782529,-0.68283451,0.11298866
1759198449904,-0.02788050,-0.06660301,-0.09453331,-0.00523537,0.00423165,-0.00644604,0.71861981,0.06779624,-0.68281102,0.11295288
1759198449917,-0.01741390,-0.09761864,0.05530660,-0.00607012,0.00775739,-0.00423239,0.71867662,0.06775617,-0.68275982,0.11292495
1759198449938,0.00303042,-0.01708523,0.03236243,-0.00847149,0.00240141,0.00022774,0.71870842,0.06766765,-0.68273473,0.11292733
1759198449949,0.04499590,0.15357792,0.04067790,0.00269139,-0.00512311,0.00514012,0.71867552,0.06768258,-0.68276316,0.11295586
1759198449961,-0.01124443,-0.09874031,0.03697540,0.00693085,-0.00115149,0.00265986,0.71866286,0.06772313,-0.68276990,0.11297142
1759198449972,0.01941852,-0.14591408,-0.01167470,0.01484065,-0.00573941,0.01300984,0.71861481,0.06780327,-0.68280089,0.11304167
1759198449983,0.01334860,0.00545559,-0.04329277,0.02444709,-0.00425768,0.00098529,0.71857835,0.06794017,-0.68282473,0.11304719
1759198449994,0.03996026,-0.04342652,0.07266836,0.02041483,0.00033329,0.01579925,0.71855559,0.06805348,-0.68282288,0.11313487
1759198450004,-0.00617343,0.03083792,-0.06519726,0.01321965,-0.00714092,0.01269615,0.71850289,0.06812288,-0.68286037,0.11320153
1759198450017,-0.02036071,-0.00421243,0.00466653,0.01539844,0.00155706,0.01153649,0.71849173,0.06821835,-0.68285072,0.11327305
1759198450028,0.04547178,-0.03793383,-0.06459404,0.01462033,0.00123423,0.00871341,0.71848267,0.06830169,-0.68284369,0.11332272
1759198450039,-0.04410115,0.19396606,-0.55238553,-0.00012834,-0.00059081,-0.00927924,0.71848756,0.06830100,-0.68284685,0.11327308
1759198450060,-0.02134501,-0.04138850,0.14863417,-0.00526489,-0.00045685,-0.00741342,0.71850076,0.06824466,-0.68285173,0.11319375
1759198450071,0.34832654,-0.20627709,-0.32693385,-0.03299881,0.00028151,-0.03142448,0.71854499,0.06806977,-0.68285024,0.11302720
1759198450082,-0.18045302,0.13866578,0.50028189,-0.01482982,0.00657218,-0.02548532,0.71861201,0.06798450,-0.68281245,0.11288066
1759198450094,0.09905313,-0.02391744,0.00923224,-0.00949824,0.00011922,-0.00709796,0.71862477,0.06792751,-0.68281174,0.11283808
1759198450106,-0.03835473,0.08156020,-0.04617738,-0.01002495,-0.00595036,-0.01389995,0.71861050,0.06787087,-0.68284536,0.11275954
1759198450117,0.04008215,-0.00399989,-0.00681058,-0.00912894,-0.00902438,-0.00870399,0.71857431,0.06781883,-0.68289680,0.11270993
1759198450138,-0.08383051,-0.02738371,0.01315076,-0.00668224,-0.00239551,0.00287228,0.71855219,0.06774834,-0.68292207,0.11274023
1759198450149,0.06463236,-0.08107844,-0.19171561,-0.03924883,0.00073276,-0.03624676,0.71860709,0.06753443,-0.68291807,0.11254269
1759198450160,-0.04357437,-0.14436500,0.05941532,-0.03763524,-0.00294318,-0.03713601,0.71864407,0.06732179,-0.68293470,0.11233287
1759198450172,0.06064985,-0.09881628,0.15465043,-0.01111712,-0.00265617,-0.01857510,0.71865215,0.06725842,-0.68294984,0.11222699
1759198450184,-0.05294566,0.09812971,0.01881261,-0.01351818,0.00201070,-0.02121131,0.71869042,0.06717867,-0.68293798,0.11210184
1759198450205,-0.03521730,0.07058071,0.01024544,-0.00770504,-0.00303086,-0.00317627,0.71867277,0.06709699,-0.68297011,0.11206817
1759198450206,18.04305697,-21.82759043,5.32184328,-0.07621874,-0.01421891,-0.18278793,0.71868823,0.06704364,-0.68298006,0.11194022
1759198450228,-1.17694215,1.40589653,-0.32584140,-0.00048533,-0.00167334,-0.00552562,0.71868077,0.06703835,-0.68299830,0.11187999
1759198450239,-0.00428736,0.01032624,0.18180038,-0.01340704,-0.00299028,-0.00631328,0.71867724,0.06696059,-0.68301564,0.11184338
1759198450250,0.00562133,-0.01524029,-0.09183226,0.00155243,-0.01127761,-0.02292839,0.71864075,0.06696835,-0.68307203,0.11172873
1759198450260,-0.04179646,0.00679544,0.04059227,0.00330940,-0.00041579,-0.02058869,0.71865398,0.06698589,-0.68307424,0.11161961
1759198450273,-0.03196960,0.05541054,-0.07262916,0.00011529,-0.00510360,-0.01356956,0.71863635,0.06698663,-0.68310690,0.11153277
1759198450284,0.05681186,0.00062365,-0.00196005,-0.00227818,-0.00906907,0.00054256,0.71858878,0.06697387,-0.68315769,0.11153581
1759198450326,-0.01567246,0.02043831,-0.01722188,-0.00083163,0.00023679,0.00150978,0.71859021,0.06695649,-0.68315274,0.11156736
1759198450363,-0.00105959,0.00908968,0.01458905,0.00283772,-0.00538073,-0.00030809,0.71849262,0.06700842,-0.68325120,0.11156172
1759198450372,0.37490936,-0.15098297,-0.07486576,0.05971396,0.02966272,0.09009852,0.71853308,0.06728908,-0.68311179,0.11198519
1759198450405,-0.07863349,0.04426761,0.00530254,0.02087021,0.00437471,0.00317442,0.71856146,0.06763656,-0.68303895,0.11203804
1759198450439,-0.01218559,-0.02138729,0.00524473,-0.00635916,-0.00123395,-0.02849117,0.71862742,0.06752782,-0.68306005,0.11155084
1759198450461,0.19533355,0.12260313,-0.15081844,-0.04791801,-0.01206514,-0.02600752,0.71859569,0.06701270,-0.68318975,0.11127126
1759198450505,-0.10456796,-0.06613607,0.07524749,-0.00572206,-0.00606228,-0.00367900,0.71849196,0.06688539,-0.68332464,0.11118940
1759198450516,-0.23583381,-1.10128285,0.24894030,-0.03224356,-0.02441646,-0.02969580,0.71840597,0.06670805,-0.68345893,0.11102608
1759198450540,0.18865142,0.36995293,-0.25276766,-0.00421546,0.00147605,0.00587936,0.71841621,0.06665936,-0.68344188,0.11109398
1759198450561,-0.02510457,0.02116952,-0.04338065,-0.00322760,0.01400579,0.01211537,0.71854248,0.06662466,-0.68329132,0.11122422
1759198450585,-0.05899820,0.05410931,0.06665259,-0.00539391,0.01021283,0.00478939,0.71865516,0.06656048,-0.68316978,0.11128122
1759198450595,-0.01886482,-0.04530012,-0.21483796,-0.02595682,0.02255690,0.00054259,0.71877632,0.06642810,-0.68305474,0.11128398
1759198450617,0.02724733,0.12862805,0.09110427,0.00769198,0.01247902,0.01610733,0.71887234,0.06651348,-0.68291623,0.11146278
1759198450629,-0.00705942,0.16304904,-0.07729446,0.00429582,0.03006978,0.00712460,0.71902926,0.06653839,-0.68274182,0.11150410
1759198450640,0.58313965,0.20502220,0.25150018,0.01354024,0.00395600,-0.01753171,0.71905876,0.06661489,-0.68271947,0.11140504
1759198450650,-0.01568049,0.02863338,0.12875327,0.00724407,0.00270292,-0.00614066,0.71907313,0.06665148,-0.68270582,0.11137403
1759198450661,-0.43961922,-0.19117219,-0.09524753,-0.01307787,0.00287187,0.00119394,0.71909283,0.06658282,-0.68269074,0.11138030
1759198450672,-0.14650816,-0.08905276,-0.14700830,-0.00714556,0.00050700,-0.00739482,0.71910576,0.06654245,-0.68268788,0.11133852
1759198450683,-0.02873905,-0.07116956,0.06561056,-0.01794396,-0.00649270,0.00769159,0.71907386,0.06644196,-0.68272424,0.11138159
1759198450694,-0.01480000,-0.02646847,0.01508589,-0.00807922,-0.00270942,0.00341687,0.71906091,0.06639752,-0.68273914,0.11140039
1759198450706,0.03161890,-0.03431575,0.03607473,-0.00259260,-0.00637475,0.00787391,0.71901941,0.06638223,-0.68277675,0.11144684
1759198450717,-0.02344005,0.02936213,-0.06043156,0.00111947,-0.01122650,0.00179237,0.71895591,0.06638866,-0.68284130,0.11145715
1759198450719,-0.87569113,4.53249162,0.12322877,0.04129639,-0.04487547,0.04902033,0.71891809,0.06641757,-0.68287272,0.11149146
1759198450729,0.28001253,-0.55938297,-0.05513969,0.01412139,-0.00113421,0.01343559,0.71889508,0.06649030,-0.68287856,0.11156066
1759198450739,0.03900712,0.01644953,-0.07790206,0.01647153,-0.00150445,0.01340541,0.71887016,0.06657183,-0.68288600,0.11162701
1759198450762,-0.04915943,-0.04369226,0.06129077,0.00543687,0.00539041,0.01052873,0.71890414,0.06663381,-0.68282455,0.11174704
1759198450783,-0.04589665,-0.03929813,-0.02555139,0.01258988,0.00072099,0.00391310,0.71889240,0.06676915,-0.68281680,0.11178911
1759198450785,-3.65165597,-15.70545890,-10.15255667,0.17490199,0.15661767,0.02031814,0.71897646,0.06688284,-0.68271500,0.11180231
1759198450806,0.23629789,0.96948137,0.64853125,0.00831180,0.00543217,-0.00032152,0.71902347,0.06697094,-0.68265742,0.11179890
1759198450817,0.05124939,-0.00066404,-0.06658610,0.00632665,-0.00200877,-0.00152600,0.71901093,0.06700606,-0.68266857,0.11179044
1759198450843,-0.01997380,0.02940339,0.02787698,-0.00576565,-0.00108541,-0.00341394,0.71901140,0.06693197,-0.68268252,0.11174657
1759198450862,0.23451235,0.22050590,-0.17931840,-0.01826665,-0.01154413,-0.00798958,0.71893398,0.06675570,-0.68279392,0.11166947
1759198450874,-0.22076419,-0.25707377,0.21383071,-0.02715694,-0.01618667,-0.01392771,0.71886929,0.06659140,-0.68289185,0.11158520
1759198450885,-0.15315393,-0.20548153,0.07550220,-0.01564056,-0.00600344,-0.02107701,0.71886387,0.06650537,-0.68292487,0.11146928
1759198450896,0.08594322,-0.09626570,-0.07111453,-0.02412498,-0.00998971,-0.00745046,0.71883090,0.06637510,-0.68297881,0.11142905
1759198450908,-0.05827371,0.14985705,-0.00312051,-0.00237790,0.00337238,-0.00312879,0.71885376,0.06636119,-0.68295908,0.11141074
1759198450929,-0.00062894,-0.01710422,0.04346565,0.00338512,0.00423846,0.00300816,0.71888884,0.06639775,-0.68291331,0.11144323
1759198450941,0.06969107,-0.15445649,0.16720641,-0.00490928,0.00919516,-0.00014693,0.71894180,0.06636952,-0.68286043,0.11144239
1759198450952,-0.04316632,-0.11616954,0.00763427,-0.01437502,0.01029109,-0.00827529,0.71900928,0.06629117,-0.68280435,0.11139729
1759198450974,-0.03523378,0.07526671,-0.05404911,-0.00972736,0.00418045,-0.00710619,0.71907640,0.06618174,-0.68275732,0.11131734
1759198450997,-0.02908118,-0.02313543,-0.05404154,-0.00838377,0.00735381,-0.01470551,0.71918921,0.06608742,-0.68267459,0.11115191
1759198451009,0.00514642,0.00972715,0.07514049,0.01327657,0.00777785,0.01118410,0.71921580,0.06616708,-0.68262792,0.11121901
1759198451019,-0.09284712,0.19295739,0.16825917,0.01881077,-0.00482435,0.01701875,0.71916840,0.06626678,-0.68265349,0.11130921
1759198451055,0.02655673,0.01670339,-0.05603646,0.00464735,-0.00474837,0.00046827,0.71907924,0.06634950,-0.68273801,0.11131755
1759198451086,-0.03505321,0.03371572,0.01481543,0.00418936,-0.00963762,0.00831428,0.71891304,0.06641381,-0.68288595,0.11144517
1759198451119,0.00980843,-0.00406269,0.01123948,0.00395541,-0.00637812,0.00404091,0.71879634,0.06647927,-0.68299151,0.11151205
1759198451130,0.29064440,0.15070797,0.21128237,0.03677519,0.01324685,0.06873848,0.71878762,0.06669257,-0.68291467,0.11191073
1759198451152,0.06632826,-0.15137461,-0.01668724,0.02637282,0.01923329,0.02412700,0.71891783,0.06697739,-0.68270695,0.11217130
1759198451186,-0.07334219,0.02286116,-0.09049497,0.01397910,0.00401383,-0.00665899,0.71897916,0.06721923,-0.68263752,0.11205610
1759198451220,0.00704344,-0.01300567,-0.00458940,0.00270659,0.00262836,-0.02157474,0.71907350,0.06726484,-0.68259323,0.11169257
1759198451253,0.03130227,0.02511278,0.02063393,-0.04472091,-0.01216432,-0.01470620,0.71898846,0.06652024,-0.68279576,0.11144771
1759198451274,0.13394431,0.22458980,0.00871240,-0.00120396,-0.01976147,-0.01670185,0.71882693,0.06650814,-0.68299437,0.11127985
1759198451286,-0.32456310,-0.87095031,-0.17699667,-0.02933311,-0.01139875,-0.01033482,0.71878748,0.06633067,-0.68306333,0.11121733
1759198451308,-0.03516812,0.08676168,0.02473470,-0.00444885,0.00301412,0.00434522,0.71881701,0.06628018,-0.68302912,0.11126665
1759198451330,-0.03461713,0.04810167,0.04626090,0.00367947,0.00151539,0.00551824,0.71881964,0.06631955,-0.68301290,0.11132569
1759198451341,-0.35448117,-0.16212031,0.35110466,0.01842511,0.01149060,-0.00039103,0.71886974,0.06641904,-0.68295085,0.11132358
1759198451352,0.09929180,-0.06759656,-0.15022240,0.00692097,-0.00046845,0.00395062,0.71886024,0.06645780,-0.68295348,0.11134570
1759198451363,0.22147980,0.29626088,-0.20015446,-0.01578621,0.00998896,-0.01273423,0.71893517,0.06636624,-0.68289554,0.11127185
1759198451374,0.03933925,0.12110145,-0.08199128,-0.00917970,0.00474582,0.00481286,0.71896006,0.06631667,-0.68286991,0.11129784
1759198451385,-0.04027015,0.12664081,0.06876391,-0.01249588,0.00703031,0.02379757,0.71898223,0.06624982,-0.68283230,0.11142515
1759198451397,0.03528924,-0.02019148,0.00730187,0.00915803,0.00806116,0.00091161,0.71902291,0.06630568,-0.68278313,0.11143071
1759198451420,0.01175366,-0.02099295,0.00758416,0.01237001,0.00033134,-0.00975783,0.71903092,0.06645041,-0.68277925,0.11131655
1759198451431,-0.18826416,0.52441029,-0.07105444,0.02566756,-0.00412622,-0.02157807,0.71901585,0.06658131,-0.68280030,0.11120650
1759198451442,-0.06004776,-0.00078262,-0.13803065,0.01948093,-0.00266043,0.00932474,0.71898352,0.06669041,-0.68281519,0.11125872
1759198451453,-0.02558911,-0.07177346,0.05684815,0.00556256,0.00584626,0.00672041,0.71900649,0.06672239,-0.68278158,0.11129736
1759198451463,0.03313754,-0.08290483,0.09858953,-0.00731053,-0.00663340,0.01967753,0.71896272,0.06668547,-0.68281508,0.11139673
1759198451474,0.13968147,-0.24587830,0.18152080,-0.00380266,-0.00574395,0.02172810,0.71891612,0.06666456,-0.68284667,0.11151624
1759198451508,0.01348089,-0.03641386,-0.02566337,0.00160716,-0.00318355,0.00236343,0.71885595,0.06669188,-0.68290079,0.11155641
1759198451520,-0.34433761,0.14474762,0.22683985,0.05084210,-0.01179486,0.01888835,0.71874841,0.06698168,-0.68296802,0.11166408
1759198451542,0.08013398,-0.21897167,-0.02517447,0.01978646,0.00589506,0.00763961,0.71877664,0.06719933,-0.68290317,0.11174811
1759198451564,0.00891315,-0.09290211,-0.02002298,0.00284197,0.00046516,0.00802359,0.71876469,0.06723102,-0.68289799,0.11183758
1759198451575,0.00741368,0.03736541,-0.05528020,0.01518380,0.00501850,0.00217427,0.71878049,0.06731073,-0.68287164,0.11184899
1759198451586,0.15374592,0.41144957,0.00342098,0.02094223,0.01070688,0.01347560,0.71881379,0.06742487,-0.68281329,0.11192243
1759198451609,0.02931183,0.02525452,-0.05896168,0.00348692,-0.00029536,0.00267222,0.71880202,0.06746497,-0.68281668,0.11195316
1759198451619,-0.04217188,0.17405453,-0.04165674,0.00180349,0.00124878,-0.00202654,0.71880895,0.06747435,-0.68281019,0.11194263
1759198451630,-0.05599033,0.17586381,-0.06311115,0.00262187,-0.00178237,0.00390677,0.71879455,0.06748916,-0.68282026,0.11196470
1759198451641,-0.15876685,0.18367003,-0.09321246,-0.01433584,-0.00395193,-0.00462022,0.71878518,0.06740960,-0.68284219,0.11193906
1759198451653,0.09925183,-0.16144691,0.02785299,-0.00487164,0.00150580,0.00150973,0.71879459,0.06738183,-0.68283361,0.11194766
1759198451664,0.15891820,-0.33664058,0.07200623,-0.01451832,-0.00473723,-0.00595049,0.71878198,0.06729907,-0.68286061,0.11191374
1759198451676,0.04411955,-0.14116816,0.06958996,-0.00888541,0.00593071,-0.00228509,0.71882256,0.06724621,-0.68282533,0.11190015
1759198451686,-0.00069969,0.07705421,-0.11393398,-0.02010665,-0.00848691,-0.01297942,0.71880154,0.06714467,-0.68286819,0.11183460
1759198451698,0.04142184,-0.06708258,0.05671410,-0.00207339,0.00053132,0.00318541,0.71880275,0.06713233,-0.68286502,0.11185355
1759198451709,-0.05074405,0.07420259,-0.04466933,0.00266847,0.00618776,-0.00841132,0.71884090,0.06714701,-0.68283099,0.11180729
1759198451720,0.05689292,-0.11005426,-0.01649638,-0.00212759,0.00162197,0.00539153,0.71884590,0.06713520,-0.68282199,0.11183722
1759198451731,-0.04149686,-0.13780273,-0.00850678,0.00312608,0.00512771,-0.00472565,0.71887407,0.06715177,-0.68279481,0.11181217
1759198451742,-0.07656266,-0.00021798,0.06698903,-0.01932122,0.00608733,-0.00914873,0.71892496,0.06704260,-0.68276042,0.11176048
1759198451753,0.08612776,-0.12257356,-0.04807174,-0.00888568,0.00266563,-0.00210268,0.71894450,0.06699551,-0.68274629,0.11174934
1759198451765,-0.06975421,0.21007103,0.02247150,-0.00459652,0.00593112,-0.00628658,0.71898778,0.06696724,-0.68270981,0.11171067
1759198451776,0.05295832,0.09961429,-0.03835584,0.00088976,-0.00085806,0.00716860,0.71897701,0.06697200,-0.68271441,0.11174902
1759198451787,-0.06330815,0.07189666,0.06821106,-0.00218832,0.00607481,0.00027614,0.71901111,0.06695942,-0.68267948,0.11175061
1759198451809,-0.00361320,-0.00740914,0.00511902,-0.00394608,-0.00320656,-0.00056136,0.71898313,0.06691680,-0.68271411,0.11174455
1759198451811,-3.96827734,2.70505133,-4.89346775,0.03186336,-0.03543210,0.00144209,0.71894998,0.06694548,-0.68274599,0.11174585
1759198451831,0.35256944,-0.20091061,0.44608210,0.00013564,-0.00178829,0.00314601,0.71892776,0.06694685,-0.68276406,0.11177762
1759198451841,0.03575220,0.13722604,0.07407276,0.00064394,-0.00260896,0.01908138,0.71889858,0.06695026,-0.68277788,0.11187875
1759198451852,-0.02818975,0.00718453,-0.06007866,-0.00834346,-0.00449768,0.01435341,0.71886707,0.06690437,-0.68280262,0.11195770
1759198451876,-0.00362012,-0.08858218,0.00313305,0.00080412,0.00323383,0.00415700,0.71889443,0.06691374,-0.68276495,0.11200613
1759198451887,-0.06022102,0.11008224,-0.18585643,-0.00210665,0.00076560,0.01265357,0.71888872,0.06690226,-0.68276077,0.11207509
1759198451908,0.04421262,-0.03615477,0.05671197,-0.00235595,0.00054311,0.01180408,0.71887682,0.06687693,-0.68275494,0.11220198
1759198451909,1.17978975,18.33907049,-22.69438443,0.27580933,0.25730910,0.37455626,0.71898090,0.06705621,-0.68258769,0.11244544
1759198451931,-0.02672504,-1.13257846,1.31046530,0.01480532,0.01160090,0.00396649,0.71907820,0.06721610,-0.68246240,0.11248828
1759198451942,0.10216611,0.06374219,-0.24617384,0.02855164,0.02561313,0.00357125,0.71919095,0.06736886,-0.68232537,0.11250739
1759198451953,0.04843132,-0.15623643,0.05911132,0.03381178,0.00619505,-0.01682517,0.71922217,0.06756666,-0.68228912,0.11240896
1759198451965,-0.12621532,0.14730074,0.20984087,0.00239206,0.00236302,-0.04721403,0.71927520,0.06758017,-0.68227577,0.11214220
1759198451976,0.07226195,-0.11201013,0.03032724,-0.00768691,-0.00265732,-0.00282541,0.71926780,0.06753828,-0.68229026,0.11212680
1759198451987,-0.14649126,0.10407744,0.05010089,-0.01678715,0.00445146,-0.01016687,0.71930951,0.06744343,-0.68226510,0.11206936
1759198451999,0.05542165,-0.04547056,-0.00020422,-0.02980622,-0.00494171,-0.00547604,0.71930341,0.06726906,-0.68229401,0.11203733
1759198452009,-0.01172572,-0.06631311,0.02271668,-0.04156428,-0.00652223,0.00795386,0.71928497,0.06705293,-0.68232793,0.11207869
1759198452011,0.74928174,2.37085194,-2.73629818,-0.11439099,-0.06857330,-0.01623667,0.71923051,0.06693282,-0.68239993,0.11206164
1759198452043,-0.07262930,-0.13378615,0.20075268,-0.00820122,-0.00832974,0.00271850,0.71910945,0.06680160,-0.68253321,0.11210513
1759198452064,-0.08013717,0.05943191,0.11867649,-0.00442668,-0.01007080,-0.00897562,0.71902730,0.06675468,-0.68263996,0.11200999
1759198452088,0.03676869,-0.12247673,-0.12172406,-0.01440763,-0.00066073,-0.00295501,0.71904133,0.06658178,-0.68264789,0.11197453
1759198452099,-0.00124584,-0.24010945,-0.09086268,-0.00286802,0.01947831,0.02852484,0.71911932,0.06656615,-0.68254173,0.11212999
1759198452132,0.01586403,0.11083933,0.02027441,0.00899104,0.00838087,0.00328869,0.71922768,0.06671361,-0.68240428,0.11218393
1759198452143,-0.11748734,-0.80816803,0.09497497,0.02564491,0.02324623,0.00825000,0.71933063,0.06685722,-0.68227410,0.11223013
1759198452166,0.00081868,0.15725462,0.04167775,-0.01973053,0.00367393,-0.01416583,0.71941790,0.06662834,-0.68223149,0.11206580
1759198452177,0.05864427,0.94170968,0.18327437,0.01185124,0.00280855,0.00621467,0.71942092,0.06668819,-0.68221730,0.11209719
1759198452209,0.03729165,-0.08479350,-0.07805389,0.01567095,-0.00600427,-0.00298050,0.71931194,0.06694363,-0.68231517,0.11204860
1759198452211,1.37183914,8.89185222,10.44176791,0.10034712,-0.14391603,-0.03361640,0.71915722,0.06705401,-0.68247348,0.11201163
1759198452232,-0.21381369,-0.69928253,-1.15890548,0.00224434,-0.01152934,0.00061626,0.71903911,0.06707758,-0.68259454,0.11201810
1759198452265,0.01990468,-0.08943979,-0.00801179,-0.00215201,-0.00481921,0.00258710,0.71896075,0.06704228,-0.68267357,0.11206053
1759198452288,0.00412875,-0.01041930,0.07356460,0.00136731,-0.00663274,0.00662903,0.71887608,0.06705780,-0.68274886,0.11213577
1759198452299,-0.00930015,-0.16029690,0.16951074,0.01127922,-0.00674472,0.00229019,0.71883036,0.06712379,-0.68278831,0.11214916
1759198452310,0.02985500,-0.07502075,-0.02539345,0.01880306,-0.00019867,0.00400948,0.71881647,0.06722532,-0.68278938,0.11217081
1759198452332,0.01849133,-0.04561691,-0.04084979,0.00652491,0.00176055,0.00545076,0.71881877,0.06729644,-0.68277019,0.11223023
1759198452355,0.00732822,-0.06276245,0.04121118,0.00884012,0.00436589,0.00569210,0.71884647,0.06739722,-0.68272042,0.11229512
1759198452366,0.06294883,-0.12648935,0.35112024,0.00404660,0.00273714,0.00578481,0.71885358,0.06741907,-0.68270564,0.11232636
1759198452377,0.02513760,0.34508664,-0.43970923,0.01781956,-0.00110748,-0.00890722,0.71884605,0.06751975,-0.68271190,0.11227603
1759198452388,0.00816886,0.07912121,0.07795423,0.00983981,0.00520053,-0.00948397,0.71887709,0.06757535,-0.68268252,0.11222244
1759198452399,0.12719817,0.10342163,-0.13256793,0.01155459,-0.00444022,-0.00322925,0.71885094,0.06763832,-0.68270672,0.11220485
1759198452433,-0.05162924,-0.04398058,-0.02302523,0.00409062,-0.00095086,-0.00198572,0.71883426,0.06770807,-0.68272293,0.11217099
1759198452455,0.04893028,0.08318959,0.04476636,-0.00692632,-0.00274081,-0.01381173,0.71883643,0.06763395,-0.68275226,0.11202320
1759198452465,0.08335960,-0.20203326,0.02854176,-0.03467730,-0.00422820,-0.03158755,0.71885848,0.06745016,-0.68277466,0.11185579
1759198452477,0.18438332,-0.21590921,-0.10001408,-0.04046338,-0.00807858,-0.03653149,0.71886934,0.06720536,-0.68282354,0.11163477
1759198452499,-0.12857575,0.02265572,-0.03039960,-0.00631030,-0.00621921,-0.01657935,0.71883900,0.06713563,-0.68289226,0.11145157
1759198452510,0.09268310,-0.01275800,-0.04988280,-0.01698765,-0.00912885,-0.02868288,0.71882473,0.06704390,-0.68294156,0.11129668
1759198452522,0.06008038,-0.00291910,-0.01340823,0.00136969,-0.00363836,-0.00054593,0.71880460,0.06705177,-0.68296248,0.11129355
1759198452533,-0.19241845,-0.20613002,-0.22641869,-0.01256152,-0.01256568,-0.00600876,0.71875000,0.06698206,-0.68303222,0.11126020
1759198452543,-0.08148907,-0.07837016,0.03783224,-0.00863785,-0.00074297,-0.00360655,0.71875332,0.06693844,-0.68303597,0.11124198
1759198452566,-0.03728230,0.14643960,0.07351239,-0.01051870,-0.00358155,-0.00479155,0.71873404,0.06681800,-0.68307698,0.11118712
1759198452577,0.23646562,-0.07887883,-0.19323676,-0.03393480,-0.00696633,-0.00708669,0.71872110,0.06663305,-0.68311495,0.11114850
1759198452589,-0.10007018,0.10071765,0.06590840,-0.01523525,0.00376494,-0.00086397,0.71875184,0.06654164,-0.68309236,0.11114331
1759198452598,0.02432843,0.13651123,-0.16090689,-0.00083795,0.01238296,0.00199267,0.71880837,0.06653754,-0.68303168,0.11115308
1759198452658,-0.02290986,0.00322266,0.06070609,0.00179685,0.00182998,0.00113535,0.71885014,0.06659126,-0.68297696,0.11118703
1759198452699,-0.02063641,0.07139568,-0.09753603,-0.00542626,0.01546211,0.01510013,0.71911160,0.06648084,-0.68266231,0.11149431
1759198452735,0.02219142,-0.04454727,0.04770005,-0.00305924,0.01756224,0.03285065,0.71932180,0.06642654,-0.68235058,0.11207741
1759198452756,-0.27591215,-0.12585235,-0.08734004,0.05271338,0.02207070,-0.00413779,0.71950035,0.06699057,-0.68211442,0.11203314
1759198452788,0.14731818,0.05261054,0.15890176,-0.02109056,0.00135908,-0.01465096,0.71958904,0.06665207,-0.68209261,0.11179799
1759198452810,0.05823348,0.07817018,0.07860472,-0.02484718,-0.01784363,-0.01169033,0.71944754,0.06637750,-0.68228978,0.11166881
1759198452833,-0.02887566,-0.06665604,-0.06131867,0.01330926,-0.01613175,-0.00002653,0.71925664,0.06653123,-0.68247610,0.11166851
1759198452866,-0.00858270,-0.05978940,-0.03050546,-0.00260564,-0.00313710,-0.00197770,0.71921741,0.06648914,-0.68252677,0.11163657
1759198452867,-0.49982900,-19.36469763,-3.75916968,-0.24106408,0.02868391,-0.04832336,0.71926299,0.06629629,-0.68250382,0.11159791
1759198452889,0.09359474,1.40624927,0.27658266,0.00024952,0.00654014,0.01350319,0.71930752,0.06629901,-0.68243253,0.11174509
1759198452901,-0.01198813,0.00241442,-0.05425839,-0.00213767,0.01384404,0.00847582,0.71937900,0.06628629,-0.68235016,0.11179552
1759198452912,0.00716663,-0.02604816,0.06135762,0.00186338,0.00156145,-0.00239253,0.71938850,0.06629682,-0.68234134,0.11178200
1759198452934,-0.07750864,-0.01958513,0.04899333,-0.00597579,0.00099071,0.00016894,0.71940409,0.06623318,-0.68233079,0.11178380
1759198452945,-0.26457374,-0.14160566,0.04814742,-0.02871443,-0.00615595,-0.01492348,0.71939898,0.06606664,-0.68236649,0.11169725
1759198452966,0.10410883,0.11524661,0.00996935,-0.00203907,0.00104589,0.00513106,0.71940304,0.06604502,-0.68235541,0.11175164
1759198452978,0.24287428,0.48371152,0.21656858,0.01562397,-0.01821154,0.01165015,0.71928093,0.06613798,-0.68246376,0.11182096
1759198452989,0.05856475,-0.01899984,-0.11558788,0.02631240,-0.02725342,-0.02473284,0.71914894,0.06628007,-0.68261093,0.11168740
1759198453012,-0.04141481,-0.08164426,-0.03179155,0.00637337,-0.01008508,-0.00529803,0.71904340,0.06635209,-0.68272489,0.11162753
1759198453023,0.14934415,0.54269173,0.17181717,0.01598686,-0.02083592,-0.01419940,0.71893381,0.06644402,-0.68284470,0.11154588
1759198453034,-0.42708452,-0.78499082,-0.01612731,-0.00348137,-0.00198309,0.01832799,0.71890957,0.06642487,-0.68285561,0.11164669
1759198453045,-0.18772787,-0.23169364,-0.05503154,0.00614414,-0.00364225,0.01224698,0.71887755,0.06645805,-0.68287528,0.11171282
1759198453056,0.04036018,-0.02917450,-0.02565827,0.01154950,0.00649346,-0.00446660,0.71891057,0.06652388,-0.68283826,0.11168736
1759198453068,0.43537139,0.38582389,-0.22188170,0.01292981,-0.00333352,-0.01263347,0.71889701,0.06659693,-0.68285710,0.11161598
1759198453090,-0.04003755,-0.04775926,0.02395491,0.00436717,0.00470499,-0.00157429,0.71894548,0.06664606,-0.68280417,0.11159827
1759198453091,8.99456165,1.92500927,2.53076907,0.13211237,0.07962977,-0.08290267,0.71900265,0.06674515,-0.68274444,0.11153609
1759198453135,-0.30892746,-0.07291297,-0.10267934,-0.00022044,0.00216272,0.00032708,0.71904676,0.06674034,-0.68269730,0.11154323
1759198453145,-0.50835918,-0.34017982,0.78104046,0.00114078,0.00328381,-0.00749921,0.71906805,0.06674616,-0.68268055,0.11150498
1759198453178,0.15085985,0.11488351,-0.19610571,0.00156666,-0.01013099,0.00287995,0.71890209,0.06677162,-0.68284518,0.11155178
1759198453201,0.01421429,0.04259932,-0.01039783,0.00380563,-0.00835978,0.00685080,0.71879259,0.06681614,-0.68294299,0.11163193
1759198453213,0.08136715,0.14942203,0.08184931,-0.00202626,-0.02706294,0.01565009,0.71863321,0.06680459,-0.68309725,0.11172114
1759198453234,-0.06971303,-0.06260255,-0.10058902,-0.00491329,-0.00433244,0.00116751,0.71859170,0.06675153,-0.68314404,0.11173375
1759198453245,-0.29145522,-0.04940371,-0.17379671,0.00135481,0.00770549,-0.00490741,0.71863549,0.06675898,-0.68310166,0.11170676
1759198453257,0.11382571,0.00782604,-0.01458470,0.00653727,0.00678712,-0.00362407,0.71867201,0.06679624,-0.68306297,0.11168610
1759198453291,0.06803136,-0.03223209,0.05697308,-0.00014348,0.00363186,0.00024296,0.71873061,0.06679379,-0.68300086,0.11169025
1759198453301,-0.01723227,-0.14022009,-0.06152155,-0.02192674,0.00950150,-0.02112977,0.71880378,0.06668196,-0.68295241,0.11158249
1759198453324,0.00199251,0.02435180,0.03630288,-0.00656679,0.00565622,-0.00043580,0.71887245,0.06660743,-0.68288821,0.11157755
1759198453335,-0.34051923,-0.16826968,0.04670806,0.00136374,0.00016196,0.00162641,0.71887121,0.06661493,-0.68288732,0.11158649
1759198453347,-0.08440717,-0.16172779,0.08946953,0.00945549,-0.00180296,0.01392493,0.71884294,0.06667119,-0.68289805,0.11166934
1759198453367,0.09859789,0.17590497,-0.02044320,-0.00144949,0.00108594,0.00099411,0.71885315,0.06665655,-0.68288708,0.11167939
1759198453379,0.22828476,0.18376447,-0.03516866,0.00857603,-0.00344646,0.00490387,0.71882441,0.06670758,-0.68290758,0.11170856
1759198453389,-0.02760402,0.00906353,0.06586166,-0.00442909,-0.00775413,0.00210974,0.71878617,0.06668433,-0.68294829,0.11171964
1759198453401,-0.02466710,0.00391379,-0.04885720,0.00521416,-0.00362677,0.00096975,0.71876209,0.06671509,-0.68296969,0.11172536
1759198453422,0.00245459,-0.00659278,-0.03167141,0.00019813,-0.00463354,-0.00219183,0.71871883,0.06671719,-0.68301881,0.11170213
1759198453424,-8.55350256,9.06495984,4.72581667,0.04910102,-0.05066139,0.05917307,0.71866312,0.06676138,-0.68306440,0.11175538
1759198453445,0.66618995,-0.80837199,-0.43283791,0.00539862,-0.00246554,0.00196022,0.71863083,0.06681672,-0.68308967,0.11177548
1759198453468,0.01433419,-0.00267610,0.00658668,0.00819248,-0.00008019,0.00366724,0.71861406,0.06691421,-0.68309063,0.11181912
1759198453478,-0.09440813,0.61459841,0.33530336,0.06682915,-0.00975037,0.07993097,0.71848121,0.06723165,-0.68313694,0.11219879
1759198453489,0.14933266,-0.45895943,-0.09805689,0.00123689,-0.00011450,0.01987017,0.71846224,0.06723870,-0.68313760,0.11231205
1759198453500,0.04455873,0.03048073,0.07331103,0.02315769,0.00782436,0.01736565,0.71847629,0.06736606,-0.68309456,0.11240756
1759198453512,0.02132615,0.17502398,-0.07731498,0.04230733,0.00137822,0.01751381,0.71844521,0.06760933,-0.68308664,0.11250826
1759198453524,0.03186101,-0.02559164,-0.00388104,0.03274445,0.00117309,-0.01010443,0.71844278,0.06781398,-0.68307930,0.11244511
1759198453534,-0.46699013,-0.14806289,-0.25269069,0.03446846,-0.01839559,-0.04286874,0.71837114,0.06798977,-0.68317312,0.11222648
1759198453603,0.05667943,-0.02485969,0.00787904,0.00073227,0.00016286,-0.00149072,0.71838209,0.06801496,-0.68316752,0.11217520
1759198453623,-0.37381958,0.22314303,0.32952506,0.00918459,-0.03732205,0.00958308,0.71800709,0.06810589,-0.68353701,0.11227007
1759198453645,0.03426309,-0.36851297,-0.52743816,0.01427655,0.00012445,0.01872129,0.71796125,0.06826293,-0.68353564,0.11247601
1759198453679,0.15225109,0.04314787,0.07938660,-0.00014590,0.00997058,0.01514704,0.71808173,0.06826047,-0.68336714,0.11273199
1759198453702,0.07117003,0.07033179,-0.04607077,0.02583976,0.02306277,0.03112594,0.71824801,0.06855504,-0.68310422,0.11308683
1759198453724,-0.08597485,0.07474164,0.01115523,-0.00642629,0.02013671,0.00516637,0.71845830,0.06848371,-0.68288070,0.11314417
1759198453745,-0.04376764,-0.07400722,0.01516813,0.00449600,0.00020991,0.01846430,0.71842439,0.06853226,-0.68287844,0.11334359
1759198453758,-0.13745460,0.01030817,-0.02865893,0.01248898,0.00171012,-0.00688442,0.71843366,0.06860845,-0.68286800,0.11330159
1759198453768,0.36024580,0.16254516,0.37955452,0.01106879,-0.00083119,-0.01860262,0.71843903,0.06866324,-0.68287212,0.11320951
1759198453780,0.15456524,0.04134405,-0.04025843,0.00553950,-0.01992044,-0.01225586,0.71833293,0.06869675,-0.68299264,0.11313536
1759198453791,0.00152656,-0.03284857,0.08240147,0.00274248,-0.00600173,-0.00543833,0.71830328,0.06871266,-0.68302745,0.11310382
1759198453801,0.02236970,0.02888769,0.03747088,-0.00070649,-0.00978428,0.00138857,0.71825553,0.06870909,-0.68307686,0.11311083
1759198453812,-0.00038530,-0.05988509,-0.01516819,-0.00524157,-0.01689585,0.00442265,0.71816607,0.06868026,-0.68316979,0.11313516
1759198453824,-0.00921521,0.01172526,0.03599690,0.00272056,-0.01488025,-0.00630661,0.71808687,0.06869631,-0.68325758,0.11309795
1759198453835,-0.33978084,-0.21183686,0.13223131,0.01994251,-0.02687760,-0.00598961,0.71794352,0.06880400,-0.68340272,0.11306560
1759198453846,0.00883454,-0.05898200,0.00575477,0.01296916,-0.03191003,0.00455514,0.71776240,0.06887663,-0.68358141,0.11309111
1759198453857,-0.09500047,0.02203299,0.01886756,0.01074208,-0.00572829,-0.00590542,0.71773100,0.06893732,-0.68361378,0.11305775
1759198453868,0.42094465,0.04244773,-0.20446453,0.02017571,-0.01274175,-0.00972006,0.71766451,0.06904425,-0.68368131,0.11300623
1759198453902,0.00973731,0.02160698,-0.03129267,0.00479196,-0.00351320,0.00198722,0.71759465,0.06912548,-0.68374086,0.11303991
1759198453913,0.50782588,-0.01870604,-0.03572519,0.05489428,0.00211484,0.01436902,0.71756525,0.06941642,-0.68372965,0.11311607
1759198453925,-0.24855618,-0.12302090,-0.04573096,0.01664571,0.00634817,0.00188734,0.71759070,0.06951879,-0.68369061,0.11312768
1759198453958,-0.08520964,0.01900319,0.02291833,0.00092545,0.00318745,-0.00262017,0.71764581,0.06953397,-0.68363833,0.11308471
1759198453969,0.29671964,-0.08879122,-0.16377460,-0.01012621,0.00499566,-0.01324466,0.71768885,0.06947827,-0.68361086,0.11301186
1759198453992,-0.05920516,0.10728119,0.04204796,-0.01228580,0.00210931,-0.00289792,0.71773086,0.06933699,-0.68358660,0.11297853
1759198454002,0.45979800,-0.02718490,-0.24881052,-0.03826557,-0.00414755,-0.00986665,0.71773733,0.06914566,-0.68360734,0.11292920
1759198454014,-0.07037875,-0.16765511,0.15012912,-0.03127163,0.00125101,-0.00682915,0.71776924,0.06895646,-0.68359977,0.11288788
1759198454035,-0.21242985,0.10766182,0.02956668,-0.01714397,-0.00400322,-0.01089722,0.71776435,0.06877217,-0.68364281,0.11277074
1759198454048,0.00497689,0.00062823,0.02309255,-0.02506591,-0.00021631,-0.01350212,0.71779174,0.06861300,-0.68364418,0.11268500
1759198454058,-0.02589899,0.02285106,-0.00570798,-0.02507615,0.00569548,-0.03219675,0.71785545,0.06848887,-0.68361599,0.11252563
1759198454068,0.27396102,-0.33533091,-0.06100947,-0.00003922,-0.00037388,0.00664151,0.71784813,0.06848867,-0.68361795,0.11256049
1759198454080,-0.10251031,0.10205001,0.06627093,-0.00619891,0.00416681,-0.00241569,0.71787702,0.06845240,-0.68359357,0.11254636
1759198454092,-0.03020784,0.03295475,0.02405542,-0.00240185,0.00772508,-0.00765447,0.71793192,0.06843739,-0.68354529,0.11249852
1759198454102,0.04113490,-0.03341435,-0.05551846,-0.01092966,0.00096079,-0.00843976,0.71794798,0.06838383,-0.68354058,0.11245717
1759198454114,-0.02223386,-0.04166080,0.07828633,-0.00345330,0.00445955,-0.00217925,0.71797650,0.06836381,-0.68351472,0.11244453
1759198454136,-0.06014608,0.05734335,-0.00569038,-0.00141688,0.00079666,-0.00667689,0.71799782,0.06834822,-0.68350596,0.11237108
1759198454146,0.10874186,-0.45706582,1.36991102,-0.01085885,-0.00213875,-0.04094755,0.71802536,0.06829284,-0.68351686,0.11216225
1759198454157,-0.13479528,0.32644535,-0.56569217,0.00888967,0.00008500,-0.01083399,0.71803060,0.06834307,-0.68351638,0.11210104
1759198454168,0.01968643,0.23699275,-0.59508493,0.00902687,-0.01497383,-0.01191718,0.71795968,0.06839136,-0.68359649,0.11203728
1759198454180,-0.03766898,0.06820685,0.04891534,0.00435741,-0.00773337,0.00196426,0.71791319,0.06841642,-0.68364096,0.11204858
1759198454202,0.00003208,-0.04043168,-0.03361954,0.00450208,-0.00274906,0.00996730,0.71786209,0.06846639,-0.68367147,0.11215921
1759198454214,-0.01789898,0.19997540,0.17383460,-0.00030707,-0.01881345,0.00310583,0.71775275,0.06846456,-0.68378341,0.11217769
