UnixTime(ms),Ax,Ay,Az,Gx,Gy,Gz,QuatW,QuatX,QuatY,QuatZ
1761620456776,0.00000000,0.00000000,0.00000000,0.00000000,0.00000000,0.00000000,0.99658239,0.07422235,0.02927801,0.02138627
1761620456784,0.64074993,0.28801151,-2.86102295,-0.04230155,0.08945952,0.00946578,0.99658359,0.07405314,0.02963585,0.02142413
1761620456795,-0.01297681,-0.26201753,1.09191938,-0.02849398,0.05590186,-0.00229281,0.99658638,0.07389215,0.02995169,0.02141118
1761620456807,0.17924805,-0.10905423,0.16431071,0.00126143,0.04960350,-0.01553067,0.99657927,0.07389928,0.03023195,0.02132343
1761620456818,0.08541188,0.05272224,-0.04494300,-0.00284041,0.03528920,-0.00645137,0.99657521,0.07388337,0.03042957,0.02128730
1761620456829,0.01140395,-0.01045362,0.00760263,-0.01663361,0.02178755,-0.00203999,0.99657862,0.07379022,0.03055158,0.02127588
1761620456840,0.18411602,-0.02882439,0.02954125,-0.01238180,0.03000832,0.00755100,0.99657767,0.07372027,0.03072113,0.02131854
1761620456851,-0.04130988,-0.00845625,-0.06021555,0.00049297,0.01279877,0.00628192,0.99657450,0.07372303,0.03079280,0.02135372
1761620456863,-0.09123160,0.07341293,-0.34211850,0.00697110,0.02142552,-0.00569619,0.99656858,0.07376207,0.03091279,0.02132182
1761620456874,-0.20098721,0.03399453,-0.34809331,0.00080929,0.01337716,0.00402754,0.99656541,0.07376664,0.03098837,0.02134458
1761620456885,0.09555422,0.01512353,0.05719554,0.00562606,0.00745858,0.00672663,0.99656101,0.07379786,0.03102976,0.02138191
1761620456896,0.16129911,-0.05267210,0.49978752,0.00578457,0.00299608,0.00229330,0.99655781,0.07383026,0.03104654,0.02139475
1761620456908,0.24328426,-0.06592909,0.26609216,-0.01010106,0.00482683,-0.00005561,0.99656116,0.07377369,0.03107357,0.02139444
1761620456919,-0.06541754,-0.11360389,0.02120568,-0.02024724,0.00229446,0.00246624,0.99656892,0.07365929,0.03108653,0.02140838
1761620456930,0.03734334,-0.11418894,0.05228068,-0.03204524,0.00611350,0.00950185,0.99658006,0.07347824,0.03112108,0.02146206
1761620456941,-0.05377627,0.04238052,-0.01778592,-0.04669825,0.00516362,-0.00385555,0.99659853,0.07322140,0.03114948,0.02144086
1761620456952,-0.06318846,0.01199242,-0.00175914,-0.01421105,0.01389763,0.01123436,0.99660056,0.07314253,0.03122661,0.02150321
1761620456963,-0.07671125,0.03275853,0.02109559,-0.02018272,0.01706142,0.00763722,0.99660493,0.07302950,0.03132215,0.02154597
1761620456975,-0.28129743,0.09218193,-0.02280790,-0.03161572,0.02993006,0.00630273,0.99661184,0.07285245,0.03148976,0.02158127
1761620456986,-0.04561580,0.01401736,-0.01520527,-0.02149638,0.04071737,0.01081994,0.99661209,0.07273207,0.03171778,0.02164186
1761620456997,0.01759287,-0.03252922,0.05840833,-0.03097069,0.05153123,0.00907840,0.99661436,0.07256174,0.03200120,0.02169179
1761620457008,-0.01266584,-0.15018199,0.09077184,-0.03950800,0.06639216,0.01431793,0.99661667,0.07234247,0.03236967,0.02177126
1761620457019,-0.08075229,-0.03083700,0.01993123,-0.04675077,0.06832135,0.01854997,0.99662086,0.07208066,0.03275227,0.02187514
1761620457030,-0.07115241,-0.06415730,0.01193653,-0.03741993,0.07425282,0.00814731,0.99662125,0.07186924,0.03317180,0.02192117
1761620457041,0.00336400,-0.06237639,0.01076479,-0.02632630,0.08446338,0.01030302,0.99661474,0.07172181,0.03364480,0.02197887
1761620457053,-0.11118694,0.11772379,0.10133493,-0.04176485,0.07987519,-0.00236247,0.99661660,0.07149211,0.03408411,0.02196587
1761620457064,0.14341331,0.08412573,-0.00069115,-0.02103280,0.10079593,0.01046222,0.99660429,0.07137432,0.03464857,0.02202446
1761620457075,0.05496013,0.13287455,0.07163817,-0.01377749,0.09700893,0.01931101,0.99658867,0.07129855,0.03518212,0.02213067
1761620457086,-0.15422801,0.01445622,-0.03646068,0.02109783,0.11065900,0.01867826,0.99655551,0.07141775,0.03580734,0.02223620
1761620457099,-0.15456982,0.08306362,0.18225006,0.00113216,0.11276537,0.02817050,0.99652500,0.07142494,0.03652340,0.02241509
1761620457108,0.01971645,0.02076747,0.01385250,0.00177026,0.13834678,0.00557720,0.99649977,0.07143326,0.03717363,0.02244130
1761620457119,0.06648260,0.11202258,-0.02377845,0.03121764,0.08106217,-0.01171447,0.99647166,0.07160808,0.03762758,0.02237570
1761620457131,0.14906863,0.12492575,0.04499011,0.05256863,0.05053494,-0.01780663,0.99644224,0.07189983,0.03790805,0.02227687
1761620457143,0.20718961,0.08411107,0.01154719,0.02417620,0.01393284,0.00438611,0.99642739,0.07205093,0.03799513,0.02230428
1761620457153,0.49657794,0.15939402,-0.00238319,0.01265613,-0.01870206,0.04014595,0.99642198,0.07211295,0.03790349,0.02250100
1761620457164,-0.36872771,-0.34313671,-0.35189331,0.02207951,-0.02409774,0.05040890,0.99641173,0.07223659,0.03776854,0.02278329
1761620457176,-0.00095367,-0.11801720,0.06692069,0.00604673,-0.02656914,0.04478618,0.99640883,0.07227439,0.03760248,0.02306320
1761620457186,0.44435202,-0.28747569,0.00462191,-0.03594470,-0.04585904,0.04731520,0.99642449,0.07210005,0.03738007,0.02329268
1761620457197,0.39670698,0.03695812,0.36538696,-0.03839334,-0.06612860,0.01421605,0.99645174,0.07188697,0.03701305,0.02337158
1761620457209,0.27344748,0.01041188,0.21686054,-0.01151291,-0.08280865,-0.00883546,0.99647487,0.07182192,0.03654518,0.02332166
1761620457221,-0.14855411,0.15021493,-0.06070810,0.00731838,-0.08124194,-0.04092075,0.99649618,0.07186803,0.03603336,0.02306386
1761620457231,0.51212349,0.19698584,0.08369757,0.02215952,-0.10334782,-0.05499682,0.99651223,0.07197329,0.03554246,0.02280262
1761620457243,-0.38092319,0.05049945,0.08737276,0.01285255,-0.05751368,-0.04594379,0.99652603,0.07205554,0.03517437,0.02250858
1761620457253,0.35959399,0.02318201,0.19143853,0.01411536,-0.07248192,-0.06291019,0.99654012,0.07212330,0.03482646,0.02220662
1761620457264,-0.31567474,0.04903939,-0.25795839,-0.00241457,-0.04249232,-0.04218834,0.99655437,0.07211002,0.03459275,0.02197458
1761620457275,-0.08555021,0.02235667,0.07645201,-0.00346779,-0.02159001,-0.03392253,0.99656422,0.07209042,0.03447077,0.02178292
1761620457287,-0.19982142,-0.01688779,0.01782918,-0.00239668,-0.02787543,-0.02161076,0.99657321,0.07207700,0.03431466,0.02166190
1761620457298,-0.23188031,-0.13162059,0.15965530,0.01475263,-0.00428917,-0.01904074,0.99657037,0.07215962,0.03429064,0.02155527
1761620457309,-0.18246320,0.00487044,0.15965530,-0.00099969,0.00991967,-0.01823944,0.99657107,0.07215402,0.03434619,0.02145313
1761620457321,-0.23607611,0.04073300,-0.02617127,0.01078844,0.01123777,-0.02769943,0.99656753,0.07222037,0.03441531,0.02128278
1761620457334,-0.05503700,0.00813887,0.01433896,0.02768738,0.02948992,-0.01820906,0.99655062,0.07239757,0.03460404,0.02116624
1761620457342,-0.02048910,0.05794573,0.47497451,0.04464787,0.05275024,-0.02672050,0.99653255,0.07257616,0.03481504,0.02105936
1761620457353,-0.32199376,-0.04663340,-0.14609693,0.01153793,0.05859021,-0.03601892,0.99652067,0.07264019,0.03514022,0.02085945
1761620457364,-0.05191061,-0.23403511,0.04548487,0.01233278,0.06231543,-0.03635975,0.99650739,0.07270987,0.03549230,0.02065402
1761620457377,-0.09744020,-0.10436953,-0.09830441,0.01821956,0.05786877,-0.02554308,0.99648943,0.07282375,0.03585398,0.02049437
1761620457387,-0.12936765,-0.07255519,0.17635627,0.03431435,0.08313663,-0.01895927,0.99646429,0.07299189,0.03626135,0.02040147
1761620457399,-0.07980754,0.31663560,-0.07036794,0.02057482,0.06939713,-0.00977606,0.99644004,0.07312151,0.03669855,0.02033989
1761620457409,-0.15577709,0.14948748,0.30487744,0.04513289,0.08723748,-0.00703755,0.99640897,0.07334040,0.03712165,0.02030575
1761620457420,-0.00826884,0.03385119,-0.13057719,0.03509779,0.06983335,-0.00128383,0.99637999,0.07353695,0.03751272,0.02029856
1761620457431,0.00992238,-0.01674511,0.08078646,0.03287218,0.05861246,-0.00164791,0.99635462,0.07371775,0.03783509,0.02028950
1761620457443,0.00057712,-0.10319971,-0.00488858,0.01771503,0.04967287,0.00034383,0.99633648,0.07381784,0.03811574,0.02029144
1761620457455,0.06166679,-0.15437710,-0.05790696,0.00814232,0.05114858,0.00447139,0.99631999,0.07386832,0.03843286,0.02031917
1761620457465,-0.85523052,0.34533681,0.08859942,-0.02958167,0.03956044,0.00836000,0.99632244,0.07372041,0.03863066,0.02036097
1761620457477,0.07604773,-0.18130340,-0.19430438,-0.02396515,0.03200910,0.00352821,0.99632519,0.07357542,0.03882432,0.02038231
1761620457487,-0.23030053,0.05114300,0.28279202,-0.01323416,0.04121718,0.00296339,0.99632172,0.07350925,0.03903041,0.02039713
1761620457500,0.66528320,-0.16071796,0.02441406,-0.00595033,0.02425639,0.00712974,0.99631760,0.07347206,0.03918201,0.02044169
1761620457510,-0.04148295,0.10010129,0.21666171,0.00336979,0.02544951,0.01888481,0.99630867,0.07349043,0.03932071,0.02054461
1761620457522,0.13101407,0.04069090,-0.08483014,0.00460156,0.00867075,0.02096772,0.99630203,0.07351781,0.03937230,0.02066937
1761620457532,-0.25674831,0.08902464,0.51485149,0.00871076,0.01189436,0.02159503,0.99629492,0.07355744,0.03942642,0.02076763
1761620457543,0.19854569,-0.09495524,-0.24971726,0.00313317,0.00480559,0.01899697,0.99629034,0.07357499,0.03945333,0.02087401
1761620457554,-0.06082107,-0.15240904,0.04561580,-0.01624418,-0.00006950,0.01831363,0.99629491,0.07348402,0.03945294,0.02097657
1761620457566,-0.33451586,-0.15190601,-0.28157901,-0.05059656,-0.00970232,0.01171987,0.99631923,0.07316526,0.03939182,0.02105040
1761620457576,-0.41705874,-0.13782143,0.29127912,-0.01890890,-0.01069823,-0.01022962,0.99632916,0.07307261,0.03933939,0.02100028
1761620457587,0.15205267,0.27652033,-0.23459554,-0.00269876,-0.02047877,-0.00016249,0.99633481,0.07305749,0.03922471,0.02099937
1761620457600,0.58600252,0.14949078,0.29823550,0.01697921,-0.03023554,-0.00711300,0.99633536,0.07316022,0.03904179,0.02095633
1761620457611,0.12127840,0.09128052,0.14720277,0.03019796,-0.04230870,0.00386698,0.99633163,0.07333386,0.03879851,0.02097857
1761620457621,0.03281207,0.07722171,0.57118914,0.00075499,-0.02215749,0.01410344,0.99633412,0.07333756,0.03868994,0.02104767
1761620457633,0.01806142,-0.03520518,-0.25329590,-0.00104461,-0.02080459,0.00727703,0.99633868,0.07333103,0.03855991,0.02109316
1761620457645,-0.08629740,0.08802280,0.04291388,0.00037450,-0.01319633,0.00149880,0.99634125,0.07333316,0.03848469,0.02110170
1761620457654,-0.06220208,-0.03206851,0.58699070,0.00808632,-0.02261803,0.00054851,0.99634250,0.07337117,0.03837839,0.02110428
1761620457666,0.02193658,-0.04263995,-0.33724559,0.01642766,-0.01424771,-0.00425670,0.99633924,0.07346480,0.03829718,0.02108001
1761620457678,-0.08723028,0.02673518,-0.14838141,0.01467058,-0.02153082,-0.00963743,0.99633892,0.07355430,0.03816584,0.02102123
1761620457689,-0.00987100,-0.04887566,0.19062256,0.02741106,-0.01235143,-0.00916504,0.99633110,0.07371191,0.03809482,0.02096853
1761620457700,-0.14887054,0.05178494,0.21769728,0.00097737,-0.01230318,0.00419892,0.99633269,0.07371694,0.03803146,0.02099015
1761620457711,-0.04200805,-0.14182395,-0.39482753,0.00213552,-0.01560416,0.01021938,0.99633398,0.07372933,0.03794095,0.02104942
1761620457721,0.02168364,-0.10882518,0.64438587,-0.01968356,-0.01492549,0.02528480,0.99634134,0.07363189,0.03786707,0.02117458
1761620457733,0.00220758,-0.14538353,-0.53001975,-0.02744547,-0.01864633,0.02522363,0.99635451,0.07346722,0.03775519,0.02132592
1761620457744,-0.11203990,0.19092680,0.25329918,-0.03071477,-0.01633001,0.00099448,0.99637038,0.07329676,0.03766456,0.02133144
1761620457755,-0.11613358,0.07943535,-0.08459799,-0.00099443,-0.02843186,0.00835723,0.99637541,0.07329158,0.03751672,0.02137490
1761620457766,-0.24577877,0.31524465,-0.53778924,0.00562870,-0.03317197,0.00990648,0.99637906,0.07332479,0.03732100,0.02143335
1761620457777,0.03790679,-0.08916546,0.08271879,0.03500031,-0.02230632,0.02341441,0.99636713,0.07351030,0.03720278,0.02155745
1761620457788,0.08881375,-0.14554987,0.00937107,0.05246574,-0.03146364,0.01024403,0.99635059,0.07380673,0.03702501,0.02161533
1761620457799,0.33635772,-0.00376737,0.57791469,0.01137835,-0.02760688,0.01964188,0.99634922,0.07386988,0.03687179,0.02172434
1761620457811,0.00774023,0.24218469,0.20124610,0.00441767,-0.03112815,0.01465915,0.99635200,0.07389439,0.03669903,0.02180570
1761620457823,-0.02547002,-0.09511728,-0.42779416,0.02628163,-0.03825850,0.00681270,0.99634772,0.07405603,0.03646374,0.02184759
1761620457833,-0.13460797,-0.41064256,0.54329633,0.03674300,-0.04344102,-0.00023411,0.99634194,0.07424158,0.03624436,0.02184641
1761620457844,0.19209822,0.13981718,-0.02574357,-0.01262625,-0.05016378,0.00335271,0.99635698,0.07417087,0.03596345,0.02186519
1761620457857,0.09367883,0.04010144,-0.35516582,-0.01802863,-0.04282404,0.00311948,0.99637540,0.07405278,0.03568295,0.02188562
1761620457875,0.05349419,-0.08199831,0.42478868,-0.00449771,-0.06651463,-0.00578736,0.99640109,0.07401185,0.03507766,0.02183295
1761620457886,0.25318198,0.21260082,0.35665057,-0.01944011,-0.05604063,0.01077900,0.99641773,0.07390979,0.03478345,0.02188954
1761620457897,-0.26449329,-0.12485924,-0.49557477,0.00645730,-0.05431170,0.01603735,0.99642385,0.07394725,0.03446844,0.02198256
1761620457923,0.07863775,0.02515464,-0.57087166,-0.00362394,-0.02485518,0.00166561,0.99643800,0.07390014,0.03414533,0.02200421
1761620457929,-3.36844774,0.22793977,19.40672093,-0.02884565,-0.19352888,-0.03696999,0.99646232,0.07382658,0.03365183,0.02190994
1761620457939,1.28239196,-0.21945889,-7.34771262,-0.02803800,-0.05895104,-0.01012904,0.99648457,0.07368078,0.03334528,0.02185727
1761620457950,0.00484745,-0.01480717,-0.09623093,0.00731352,-0.05306860,-0.01390447,0.99649322,0.07372210,0.03304544,0.02177871
1761620457968,0.10985424,0.04967128,-0.81589661,0.00285816,-0.02964322,-0.01148452,0.99650218,0.07374725,0.03278458,0.02167765
1761620457973,-0.22953809,-2.25689916,11.77041217,0.05339625,-0.11036914,0.00441212,0.99650114,0.07387541,0.03251970,0.02168823
1761620457984,0.11530660,0.65938985,-3.75823504,0.02459525,-0.03487388,-0.00705134,0.99649813,0.07401314,0.03232440,0.02164875
1761620457995,-0.08630843,0.01247565,-0.17763890,0.03285717,-0.03960825,-0.00296673,0.99649181,0.07420207,0.03209666,0.02163169
1761620458007,-0.03226287,0.37876128,0.08270634,-0.00965473,-0.02759845,0.01217464,0.99649959,0.07414607,0.03193659,0.02170230
1761620458019,-0.14773529,0.07157142,0.03916399,0.00264043,-0.03707423,-0.01055174,0.99650658,0.07416125,0.03172341,0.02164163
1761620458030,-0.09735050,-0.13092740,0.02884459,0.01730169,-0.02713273,0.00757100,0.99650318,0.07426074,0.03156740,0.02168516
1761620458042,-0.04687246,-0.07459031,-0.20191214,0.01352009,-0.02681164,-0.00917614,0.99650341,0.07433848,0.03141323,0.02163240
1761620458053,-0.12258952,0.02597140,0.28123477,0.00133553,-0.02737221,-0.00995480,0.99650902,0.07434616,0.03125584,0.02157516
1761620458064,0.23217781,-0.08824736,0.24956470,-0.00342154,-0.02857756,-0.01367862,0.99651711,0.07432700,0.03109580,0.02149856
1761620458076,0.28621678,0.03007512,-0.13679479,0.01368437,-0.01116498,0.00906628,0.99651194,0.07440842,0.03102937,0.02155250
1761620458087,-0.55539895,0.03929331,0.27015880,0.00960949,-0.01604868,-0.00642066,0.99651151,0.07446031,0.03094271,0.02151783
1761620458098,-0.08500098,0.07126731,-0.39789428,0.01963902,-0.02041740,0.00942256,0.99650559,0.07457225,0.03082633,0.02157154
1761620458109,0.09369912,0.06252999,0.14538369,0.01127232,-0.00940930,0.01088231,0.99650117,0.07463538,0.03077364,0.02163248
1761620458121,-0.03751006,-0.08298891,0.08415589,0.00439686,-0.01224781,0.00488518,0.99650084,0.07466022,0.03070444,0.02166008
1761620458165,0.15623240,-0.00729568,-0.61751742,0.00236487,-0.00311786,0.00207917,0.99649802,0.07471296,0.03063491,0.02170645
1761620458209,-0.14831570,0.01075233,0.45639600,0.01259219,-0.00867720,0.00232569,0.99648191,0.07499061,0.03044358,0.02175773
1761620458211,-141.97617390,21.17899407,426.63478739,0.04744179,-0.04997330,0.07359640,0.99647844,0.07503568,0.03039610,0.02182765
1761620458240,9.24744617,-1.38091719,-28.04218928,0.00486813,0.00241312,-0.00165106,0.99647262,0.07510578,0.03043085,0.02180387
1761620458274,0.09392024,-0.00525789,-0.29689687,0.00261651,0.00209575,0.00655579,0.99646575,0.07515013,0.03046638,0.02191499
1761620458307,-0.13890943,-0.03605628,-0.05514822,0.00936853,0.00770048,0.00914445,0.99644668,0.07530612,0.03059459,0.02206725
1761620458312,-18.58822904,1.02845187,38.09044071,0.05125257,-0.02909502,-0.00653669,0.99643987,0.07542913,0.03052476,0.02205156
1761620458340,3.26594744,-0.14615776,-6.29489343,0.00392155,-0.01273968,-0.00212950,0.99644183,0.07548422,0.03034577,0.02202164
1761620458377,0.14885914,-0.02811617,-0.31650930,0.00046030,-0.00976592,0.00127422,0.99644608,0.07549260,0.03016803,0.02204483
1761620458410,-0.14582797,0.03240642,0.37140259,-0.00342009,-0.02750638,0.00297944,0.99646295,0.07543600,0.02971280,0.02209414
1761620458412,-77.31287393,12.36514523,162.25627526,0.08733375,-0.24466413,0.05005494,0.99646241,0.07553643,0.02943143,0.02215170
1761620458453,4.43814989,-0.72834869,-9.44428504,0.00342779,-0.00749826,0.00587327,0.99645895,0.07560619,0.02927884,0.02227122
1761620458457,-17.01515401,3.60476065,32.09479341,-0.18751362,-0.02189771,0.13814344,0.99648358,0.07521241,0.02923286,0.02256132
1761620458489,2.14461801,-0.48941128,-4.32197416,0.01229648,-0.01254670,-0.00192008,0.99647532,0.07540792,0.02903337,0.02253080
1761620458507,-0.18676598,0.36632885,0.36277754,0.00895696,-0.02186585,-0.01777376,0.99647866,0.07549167,0.02882892,0.02236461
1761620458517,-1.58308679,-0.33391515,2.67726859,0.10649870,-0.03723485,-0.04896567,0.99644961,0.07601352,0.02864647,0.02212468
1761620458549,0.75101620,-0.07909850,-1.13454681,0.00795492,-0.00711244,-0.00890333,0.99644639,0.07613761,0.02853552,0.02198579
1761620458551,-29.48341207,5.86080500,39.02117411,0.14542235,-0.12624193,-0.03193263,0.99643616,0.07635575,0.02834615,0.02193789
1761620458584,2.69007636,-0.50893432,-3.77226158,0.00965724,-0.01002479,-0.00240566,0.99642960,0.07651268,0.02818325,0.02189880
1761620458586,-60.75081210,7.40084216,24.23957584,0.32724998,-0.20750288,0.21759791,0.99640304,0.07687265,0.02795500,0.02213815
1761620458602,7.95058949,-1.05924377,-2.79841457,0.01218147,-0.01355111,0.00678903,0.99639727,0.07697132,0.02784523,0.02219314
1761620458638,0.25121436,-0.02953085,-0.23972677,0.00361327,-0.00526818,0.00568413,0.99639261,0.07703636,0.02775041,0.02229546
1761620458677,-0.11131046,-0.01340296,0.10912128,-0.00991748,-0.00689527,0.01751700,0.99640355,0.07684347,0.02761629,0.02263616
1761620458679,-134.57572031,-62.45289918,69.40077883,-1.13057228,-0.52360743,0.23307327,0.99648491,0.07588248,0.02717123,0.02283428
1761620458711,7.18073460,3.25148511,-3.79169844,-0.02490474,-0.02565582,-0.00440091,0.99652829,0.07548027,0.02675689,0.02276320
1761620458735,-0.02025321,-0.04715067,0.03309004,-0.02383705,-0.03794271,0.01177323,0.99655829,0.07519899,0.02630916,0.02290213
1761620458744,-0.15380717,-0.35963355,0.42325659,-0.08882004,-0.07237962,-0.04233726,0.99660128,0.07479930,0.02598345,0.02271161
1761620458769,0.19814915,0.14770436,-0.28533061,-0.02450863,-0.03479496,-0.00762056,0.99663720,0.07449662,0.02555374,0.02261749
1761620458776,0.14633959,-2.08728361,0.79304786,-0.09912720,-0.11162480,-0.00049020,0.99667254,0.07415463,0.02516863,0.02261580
1761620458792,0.03471572,0.73824454,-0.34289518,-0.02556134,-0.04155939,0.00321729,0.99669649,0.07394119,0.02482161,0.02264267
1761620458804,-0.23391329,0.22148623,0.09062866,-0.01196942,-0.06054476,0.00508637,0.99671044,0.07386758,0.02444926,0.02267395
1761620458823,0.06536160,0.09718514,-0.06069996,-0.00934517,-0.02588028,-0.00000696,0.99672289,0.07377974,0.02420598,0.02267388
1761620458848,0.01099138,0.00112497,-0.02920811,-0.00304683,-0.03196931,0.01240838,0.99673158,0.07374256,0.02381596,0.02282527
1761620458849,-48.81001184,-21.25104845,39.40416876,-0.31958358,-0.93207524,0.08023503,0.99676002,0.07353483,0.02321011,0.02287742
1761620458870,2.84797440,1.26814463,-2.39566650,-0.00896580,-0.03634743,0.00672646,0.99677422,0.07344025,0.02282664,0.02294838
1761620458903,0.06151613,0.03747131,-0.03374058,0.00424429,-0.01772734,0.00629952,0.99677333,0.07350922,0.02253857,0.02305075
1761620458911,-2.03934824,0.32588673,0.69669763,0.01401589,-0.07429092,0.05300573,0.99677076,0.07356948,0.02221912,0.02327867
1761620458947,0.51568371,-0.07085244,-0.16026342,-0.00209983,-0.00560793,0.00095013,0.99677539,0.07353169,0.02211818,0.02329578
1761620458980,-0.08723080,0.01681358,0.01331797,0.01201244,-0.01032281,0.00094983,0.99676439,0.07372569,0.02195147,0.02331112
1761620458990,-1.23957504,0.43184055,-1.21601687,0.15490741,0.01031040,0.02777413,0.99669991,0.07453121,0.02200508,0.02345554
1761620459012,0.63052847,-0.06791550,0.44637172,0.06474252,-0.00379563,-0.00816776,0.99664943,0.07524337,0.02196333,0.02336570
1761620459025,0.17106351,0.31032439,0.15563640,0.10852044,-0.00987775,-0.02224308,0.99660223,0.07592705,0.02190110,0.02322557
1761620459047,0.07708225,-0.06675072,0.02217435,0.06072309,-0.00180671,-0.01909954,0.99655559,0.07660715,0.02188086,0.02301165
1761620459059,0.20946812,0.10338552,0.02173990,0.06222552,0.01491639,-0.02082284,0.99652842,0.07697117,0.02196813,0.02288984
1761620459091,-0.01752990,-0.14527855,-0.02222777,0.01301983,0.00081660,-0.00741314,0.99651478,0.07717884,0.02198115,0.02277160
1761620459092,23.50791165,40.60772487,-13.08622126,0.72920800,-0.05744004,-0.26509164,0.99646781,0.07787158,0.02192658,0.02251976
1761620459136,-1.03156804,-1.78065122,0.54969666,0.02621049,-0.00505186,-0.00882154,0.99643000,0.07843904,0.02181721,0.02232877
1761620459146,1.32492532,0.96905513,-0.89955416,0.06951717,-0.03179530,-0.02758746,0.99640745,0.07881443,0.02164551,0.02217980
1761620459170,-0.41959772,-0.55669683,0.14749465,0.00704622,-0.01329103,-0.00140542,0.99640470,0.07889582,0.02149200,0.02216357
1761620459180,0.56461609,-0.34060411,-0.96723926,0.01295407,-0.02370523,0.00159837,0.99640180,0.07896383,0.02136755,0.02217196
1761620459213,-0.24332894,0.10881972,0.29437173,0.00380169,-0.01241942,-0.00859151,0.99640434,0.07902656,0.02116263,0.02203020
1761620459215,35.44703616,2.77728545,-62.03699602,0.04018295,-0.12891398,-0.03183922,0.99640457,0.07906272,0.02104661,0.02200155
1761620459246,-2.04152113,-0.20030936,3.59156193,-0.00800340,-0.00597199,0.00917788,0.99641326,0.07893787,0.02095344,0.02214472
1761620459269,0.00158021,-0.08624823,-0.03583294,-0.04393472,-0.00152919,0.02031006,0.99644906,0.07842163,0.02093548,0.02238336
1761620459292,0.12916030,-0.16529923,-0.35577878,-0.06155613,-0.00566785,0.02999092,0.99649724,0.07772605,0.02087143,0.02272226
1761620459303,0.51744032,-0.37391867,-1.55007266,-0.08515439,0.01130284,0.02298600,0.99652859,0.07727047,0.02093190,0.02284524
1761620459336,-0.28124565,0.24644610,0.74768859,-0.01019767,0.00460766,0.00947538,0.99653642,0.07710221,0.02100793,0.02300158
1761620459370,0.08801935,-0.04030919,-0.14613722,-0.03329302,0.01327931,0.01680274,0.99656901,0.07652957,0.02123633,0.02329059
1761620459382,1.73481483,-1.57061784,-4.65758530,-0.15471710,0.02233564,0.01340059,0.99663074,0.07566316,0.02136141,0.02336563
1761620459413,-0.56618324,0.55846798,1.50727710,-0.02000149,0.00485860,-0.00066130,0.99665335,0.07534613,0.02143842,0.02335515
1761620459436,0.06070922,0.03385864,-0.09871991,-0.04098722,-0.00545435,-0.00245292,0.99669120,0.07487068,0.02137515,0.02332669
1761620459469,-0.00784428,0.03523692,0.10678680,-0.01883217,-0.00555209,-0.00346569,0.99671755,0.07456277,0.02128437,0.02327003
1761620459481,2.97035770,-0.68595881,-3.76495233,-0.03042186,-0.07148127,-0.02075575,0.99674337,0.07437872,0.02085191,0.02314446
1761620459504,-1.31175102,0.40008951,1.70786504,-0.02395006,-0.03092445,-0.01323272,0.99677478,0.07410330,0.02049628,0.02299228
1761620459537,-0.18581427,-0.07602963,0.19374039,-0.02497504,-0.01714887,-0.00146281,0.99681189,0.07368871,0.02021161,0.02296800
1761620459569,0.07284994,-0.07561188,-0.03125676,-0.03508409,-0.01787197,0.00071048,0.99685799,0.07313614,0.01993012,0.02297919
1761620459582,1.58520107,-0.16415434,-3.63828468,-0.09565489,-0.06382269,-0.02481382,0.99691576,0.07250960,0.01951209,0.02281666
1761620459603,-0.95832893,0.03890265,1.78892170,-0.06198083,-0.02584360,-0.00146385,0.99696901,0.07185260,0.01923814,0.02280114
1761620459635,-0.08390008,0.06564161,0.33078930,-0.05111232,0.00526416,0.01663292,0.99702002,0.07103225,0.01932263,0.02306810
1761620459647,1.22407582,-0.47501993,-2.14213802,-0.13406078,0.00765240,0.04438466,0.99706909,0.07024129,0.01936778,0.02332997
1761620459660,-0.40002673,0.83435520,0.56893596,-0.06559546,0.00311786,-0.01417627,0.99709982,0.06982804,0.01938743,0.02324066
1761620459680,-0.37117805,-0.06628223,0.46336186,-0.02063480,0.00442190,-0.00679709,0.99711519,0.06961859,0.01943231,0.02317167
1761620459692,0.43600781,-0.26084016,-0.23763560,-0.04317145,0.00577660,-0.00253361,0.99713292,0.06935957,0.01946697,0.02315647
1761620459704,-0.22335056,-0.12606352,0.76119665,-0.04733170,0.00978598,0.00548206,0.99715102,0.06907084,0.01952666,0.02318991
1761620459725,-0.22408741,0.27914155,0.41414161,-0.02937060,0.00177951,-0.00797918,0.99717391,0.06876245,0.01954535,0.02310613
1761620459736,0.41100646,0.12470157,-0.74626920,-0.03893130,-0.02701013,-0.00639385,0.99719254,0.06854638,0.01939544,0.02307064
1761620459749,0.07853967,0.04562403,0.06048066,-0.00062662,-0.00931841,-0.00103005,0.99719406,0.06854253,0.01933813,0.02306431
1761620459760,0.08325472,-0.24896034,-0.42306990,0.00778734,-0.02748800,0.00199984,0.99719378,0.06858575,0.01918557,0.02307540
1761620459769,0.50141875,0.19949958,-0.00858808,0.00987717,-0.01809474,-0.00914540,0.99719319,0.06863415,0.01909691,0.02303059
1761620459782,-0.52333148,0.01114736,0.24990700,0.00892086,-0.02963309,-0.01425222,0.99719486,0.06868767,0.01891911,0.02294508
1761620459805,-0.19668761,-0.03043383,0.43048470,0.00145500,-0.00853138,0.00624300,0.99719390,0.06870462,0.01881972,0.02301781
1761620459815,2.43787838,0.43289410,-3.33817488,0.07175588,-0.06246091,-0.00959940,0.99717589,0.06906699,0.01850429,0.02296933
1761620459837,-1.09464928,-0.17327561,1.46194641,0.00949727,-0.01288477,-0.00090796,0.99717146,0.06917241,0.01836127,0.02295925
1761620459848,1.82093340,0.66720170,-2.11298411,0.02427115,-0.04361795,-0.01574915,0.99716851,0.06930833,0.01811701,0.02287106
1761620459858,-0.84400177,-0.89658158,0.63283103,0.04003242,-0.03582266,-0.01285259,0.99715929,0.06950849,0.01793790,0.02280680
1761620459880,-0.71781726,0.13716765,0.79367772,-0.01823626,-0.01195325,-0.01360587,0.99717902,0.06930789,0.01780641,0.02265713
1761620459882,46.44827409,10.79131934,-80.30371232,-0.27068317,-0.29036496,-0.10671585,0.99720536,0.06903721,0.01751605,0.02255042
1761620459903,-4.21245637,-1.10811289,7.53905080,-0.01061395,-0.01560841,-0.00712116,0.99721756,0.06892629,0.01735294,0.02247600
1761620459916,0.32313836,-0.01543665,-0.31926251,-0.01258165,-0.01613553,0.00964846,0.99722348,0.06884640,0.01725048,0.02253727
1761620459926,0.06352671,0.02482120,-0.56880296,0.00138753,-0.02782897,0.01804709,0.99722335,0.06885354,0.01710716,0.02263021
1761620459947,-0.31181977,-0.11338697,0.55957030,0.00285860,-0.00373335,0.00574432,0.99722064,0.06888284,0.01706889,0.02268909
1761620459948,144.18801449,-13.83747767,-202.70362083,-0.27487080,-0.25203636,0.12604033,0.99723389,0.06870418,0.01690507,0.02277102
1761620459970,-8.56521074,0.73385706,11.94419997,-0.01963571,-0.00131565,0.00969697,0.99724638,0.06849113,0.01689079,0.02287623
1761620459981,0.72372164,0.03095851,-1.51415025,-0.03039635,-0.01903074,-0.00740910,0.99726081,0.06832091,0.01678422,0.02283474
1761620459993,0.13719531,-0.04836676,0.29323389,-0.00372983,0.00894049,-0.01061798,0.99726291,0.06829835,0.01683831,0.02277050
1761620460014,-0.53823035,0.24238215,0.84615381,-0.00577539,-0.00878882,-0.00686061,0.99727033,0.06823713,0.01674515,0.02269778
1761620460017,49.68806093,-1.53983795,-66.58391815,0.00785691,-0.09202055,-0.14634106,0.99727594,0.06824734,0.01662552,0.02250753
1761620460059,-3.16022969,0.07609566,4.26026511,-0.01010783,-0.00315291,-0.00560902,0.99729424,0.06803457,0.01655915,0.02238946
1761620460082,1.17331247,-0.10586512,-1.50445156,-0.06043396,-0.04814397,-0.03356458,0.99735848,0.06734562,0.01601031,0.02200683
1761620460145,-0.39639008,0.04510137,0.48429223,-0.00474124,-0.02155166,-0.00901041,0.99738561,0.06719533,0.01532713,0.02172120
1761620460155,10.52105538,-2.43170612,-8.67116763,-0.21948923,-0.41440871,-0.04513129,0.99749667,0.06606496,0.01319292,0.02148877
1761620460203,-2.17465404,0.42586748,1.78372730,-0.02564958,-0.03467797,-0.00242481,0.99754829,0.06545963,0.01237452,0.02143154
1761620460221,0.69545235,-0.29881162,-0.36847370,-0.08327901,-0.02419755,-0.00443227,0.99760246,0.06468513,0.01214948,0.02139032
1761620460253,-0.44225805,0.07178632,0.49365104,-0.06688278,-0.01643782,-0.02114575,0.99768164,0.06361501,0.01188648,0.02105199
1761620460287,-0.07924943,0.14186718,-0.00634202,-0.03533674,-0.02187147,-0.00483479,0.99772585,0.06301428,0.01151466,0.02096980
1761620460299,1.37622967,0.11778594,-0.37377635,-0.04335592,-0.10302315,-0.02024256,0.99775216,0.06274981,0.01088622,0.02084632
1761620460330,-0.46664974,-0.04379584,0.36457038,-0.04214959,-0.04498871,0.00025660,0.99779924,0.06211125,0.01020464,0.02085021
1761620460342,1.33550688,-0.49348999,0.76750155,-0.11998463,-0.11663794,-0.05592250,0.99785814,0.06138534,0.00949898,0.02051188
1761620460377,-0.61499916,0.19898348,-0.22029585,-0.00416066,-0.02258559,-0.01199394,0.99787070,0.06131190,0.00910035,0.02030018
1761620460398,0.70357233,-0.09054331,0.22843163,-0.03209153,-0.05392950,-0.02000534,0.99790074,0.06097334,0.00853139,0.02008913
1761620460419,-0.47036008,0.03461664,0.09075886,-0.02170897,-0.01315758,-0.01697807,0.99791974,0.06074105,0.00839061,0.01990746
1761620460431,0.08641262,-0.27510641,1.16629599,-0.04009224,-0.01715990,-0.03254115,0.99793813,0.06051253,0.00829279,0.01972198
1761620460453,-0.37182437,0.10833628,-0.45344864,0.01301675,0.00632139,-0.02671406,0.99793465,0.06065441,0.00836170,0.01943079
1761620460464,0.01023311,-0.30956040,0.33876967,-0.00485773,0.01564363,-0.00434611,0.99793607,0.06062672,0.00845087,0.01940602
1761620460476,-0.03479498,0.22322195,-0.18088664,0.00533789,0.02898586,-0.00439279,0.99793317,0.06065848,0.00862333,0.01937988
1761620460492,-0.14270226,0.13089336,-0.31599005,0.02287300,0.01682090,-0.00266882,0.99792105,0.06084489,0.00876042,0.01935813
1761620460520,-0.02081307,0.06964248,-0.13510382,0.00738877,0.02024622,-0.00277835,0.99791305,0.06094723,0.00904083,0.01931965
1761620460522,-26.39914343,-5.12487574,158.85850009,-0.18975501,0.34785292,-0.40251471,0.99792513,0.06080491,0.00930172,0.01901777
1761620460540,2.00471204,0.44903918,-12.67917296,0.01306083,0.02666081,-0.01244622,0.99791778,0.06092311,0.00954300,0.01890513
1761620460555,-0.05982950,0.12725885,-0.02665931,0.03552373,0.04248386,-0.00563697,0.99789893,0.06119309,0.00986588,0.01886229
1761620460565,-0.22049237,0.14420284,0.43415571,0.09050945,0.06678555,0.00224930,0.99786593,0.06166827,0.01021650,0.01887410
1761620460572,-0.03385826,0.22193451,1.21567275,0.15023062,0.10968161,0.01542023,0.99783097,0.06215652,0.01057297,0.01892421
1761620460591,0.26585004,-0.18951220,-0.93549118,0.02806510,0.02665093,-0.00035072,0.99781117,0.06243015,0.01083282,0.01892079
1761620460594,-6.28664180,-3.62698207,28.41099840,0.20505041,0.20024696,0.12487393,0.99779113,0.06266596,0.01106310,0.01906440
1761620460608,0.84254469,0.37962697,-4.21401108,-0.01279020,0.01811707,0.00819884,0.99779421,0.06257707,0.01118901,0.01912138
1761620460615,-0.19005300,-0.36802296,2.66762417,-0.06121694,0.03724442,0.01209185,0.99780566,0.06235669,0.01132309,0.01916491
1761620460630,0.13846356,-0.18339687,-0.89478811,-0.03210485,0.00276262,0.01583684,0.99781865,0.06210627,0.01134464,0.01928844
1761620460637,-0.62405247,1.09718094,3.64348678,-0.04989279,0.00613323,0.02914811,0.99782630,0.06195160,0.01136366,0.01937880
1761620460655,0.11806134,-0.02702903,-1.67318075,0.01239292,0.01003403,-0.00300724,0.99781857,0.06206748,0.01145747,0.01935068
1761620460659,-4.30675765,1.58967043,13.67426286,-0.01921746,0.13787985,0.00315410,0.99781771,0.06203192,0.01171255,0.01935651
1761620460673,1.28054473,-0.43325233,-3.09056983,0.01203328,0.01538568,0.01901499,0.99780867,0.06211556,0.01181948,0.01948867
1761620460687,-0.27807220,-0.16117230,-0.44169138,0.07579350,0.04497777,-0.02628230,0.99777602,0.06263474,0.01212758,0.01930864
1761620460704,-0.00244867,-0.14691009,0.11385750,0.01243749,0.03630731,-0.00423870,0.99776605,0.06274295,0.01244345,0.01927176
1761620460707,-10.17572885,-1.42423058,37.22492054,-0.15920947,0.37546534,-0.06283149,0.99777472,0.06252801,0.01295033,0.01918694
1761620460715,2.02017748,1.33715785,-10.87539726,0.00223085,0.10047561,-0.06762823,0.99777404,0.06253683,0.01334721,0.01891980
1761620460727,0.56051906,-0.10037362,-0.68606606,0.00807970,0.07848257,-0.02258936,0.99776686,0.06258732,0.01383773,0.01877862
1761620460740,-0.22277832,-0.20122528,-0.07324219,0.02335929,0.08263117,-0.00753366,0.99775128,0.06273332,0.01435417,0.01873154
1761620460748,-0.04329483,-0.34864799,1.40919405,-0.00709014,0.13171208,0.00316410,0.99774471,0.06270319,0.01491395,0.01874498
1761620460759,-0.10847143,0.73007748,-0.39733318,-0.01265713,0.09036161,-0.02958287,0.99774457,0.06263167,0.01542449,0.01857784
1761620460771,0.23362843,0.13487050,-0.22252454,0.05045304,0.07085186,-0.00324901,0.99772028,0.06292178,0.01583189,0.01855916
1761620460786,0.08542652,-0.15885523,-0.32282476,0.08450153,0.04867328,-0.02108086,0.99767805,0.06354286,0.01618964,0.01840421
1761620460797,-0.58723788,-0.03713290,0.25557865,0.10069814,0.07981843,-0.04109555,0.99763743,0.06412691,0.01665258,0.01816586
1761620460807,-0.54976634,-0.38888285,0.42872380,0.03829678,0.09082806,-0.01145937,0.99761865,0.06431648,0.01710218,0.01810914
1761620460819,0.33614741,0.55599162,-0.04972655,-0.00532611,0.10577091,-0.01598911,0.99761142,0.06428479,0.01773152,0.01801400
1761620460830,0.29605548,-0.42347296,-0.09883423,0.04019618,0.10278047,0.00722278,0.99758577,0.06450989,0.01830709,0.01805445
1761620460841,-0.52078038,0.27036865,-0.18246320,0.02606123,0.07605451,-0.00054810,0.99756847,0.06465583,0.01873300,0.01805138
1761620460853,0.06016471,-0.04431431,-0.08299182,0.05204333,0.08540708,0.01460840,0.99753657,0.06497070,0.01924971,0.01813976
1761620460864,0.11745559,0.16636935,0.36973847,0.02997498,0.12303519,0.04005525,0.99750979,0.06512807,0.01989564,0.01835005
1761620460875,0.11334594,0.24089402,-0.69928079,0.06050935,0.12627220,0.01979285,0.99747086,0.06546994,0.02060908,0.01846188
1761620460886,-0.04395623,-0.02890506,0.14717196,0.06384103,0.09743171,0.04825648,0.99743230,0.06581468,0.02113521,0.01872246
1761620460897,-0.04031642,-0.54435027,0.10468123,0.08596882,0.10927859,0.05097432,0.99738458,0.06627032,0.02171439,0.01899263
1761620460908,0.30879537,-0.15903905,0.44032896,0.03277002,0.10640005,0.08021934,0.99735118,0.06645055,0.02229959,0.01943383
1761620460920,-0.11979769,-0.35042207,-0.31045286,0.02452554,0.07575320,0.04612361,0.99732610,0.06659526,0.02274653,0.01970596
1761620460950,0.42912137,0.12671610,-0.44760094,0.00063136,0.03034180,0.01758683,0.99730940,0.06660491,0.02321076,0.01997504
1761620460972,-0.47145528,-0.05566293,0.82856372,0.00534311,0.04289354,0.04592737,0.99728460,0.06666262,0.02367401,0.02047106
1761620460982,-0.99568928,0.29622146,2.34383384,0.01602145,0.00438611,0.09318116,0.99726858,0.06674513,0.02369660,0.02095094
1761620460994,1.34189956,-0.09134490,-2.39500477,0.01175547,-0.04996184,0.04578160,0.99726518,0.06681449,0.02340183,0.02122105
1761620461005,0.72676020,-0.36865422,0.04175005,0.01448248,-0.05596968,0.07280029,0.99725829,0.06689559,0.02308840,0.02162873
1761620461015,0.15795476,0.02177785,0.02857312,-0.01960814,-0.07526367,0.05654577,0.99726760,0.06679461,0.02270079,0.02191994
1761620461026,0.49106996,0.12664373,-0.12977868,-0.03795513,-0.07103266,0.04627573,0.99728475,0.06658585,0.02231011,0.02217446
1761620461038,0.04765870,-0.03745404,-0.30248232,-0.01793790,-0.09162319,0.04668155,0.99729749,0.06648092,0.02177411,0.02244755
1761620461050,0.53992081,0.08011728,0.42496993,-0.04650663,-0.09630471,0.06141357,0.99731958,0.06620885,0.02121073,0.02280682
1761620461060,0.16801170,-0.19075115,0.18985876,-0.06612217,-0.14342560,0.06525987,0.99735040,0.06586171,0.02045775,0.02314943
1761620461062,51.60861208,8.75569509,56.69462350,-0.42472624,-0.81297721,0.42993240,0.99738294,0.06545822,0.01968542,0.02355787
1761620461071,-9.16103125,-0.92371152,-10.94415750,-0.09566618,-0.17933364,0.06007657,0.99742192,0.06500859,0.01884255,0.02384023
1761620461083,-0.13118586,-0.10251802,-0.42445340,-0.06161381,-0.18178890,0.02041985,0.99746032,0.06466355,0.01782453,0.02395458
1761620461094,0.34981456,-0.18148679,0.04128113,-0.06907615,-0.22875617,-0.04099269,0.99751149,0.06428709,0.01657781,0.02373117
1761620461105,0.11795700,0.32074164,0.08181276,-0.09958157,-0.23091284,-0.02950465,0.99757237,0.06372445,0.01527315,0.02356447
1761620461116,-0.40243496,-0.01892301,-0.37360551,-0.05253847,-0.25604952,-0.08938648,0.99762374,0.06343024,0.01383928,0.02306390
1761620461128,-0.56121896,0.10828495,-0.22451010,-0.03268246,-0.21917074,-0.10470293,0.99766897,0.06322924,0.01249138,0.02241998
1761620461139,0.66595366,0.06794394,0.57727931,-0.05734569,-0.21733927,-0.06985083,0.99770943,0.06293104,0.01136121,0.02205676
1761620461149,0.21000609,0.02083942,0.28088915,-0.07587154,-0.21811393,-0.04802058,0.99775320,0.06252513,0.01019430,0.02179985
1761620461161,-0.92112652,-0.22674732,0.17962109,-0.02282748,-0.21471510,-0.03766438,0.99777735,0.06239730,0.00899190,0.02158893
1761620461172,-1.09203338,-0.33506396,-0.16322030,-0.01258886,-0.25820018,-0.04952914,0.99780065,0.06232365,0.00748143,0.02129918
1761620461184,0.29233136,-0.11273870,0.27889414,0.00482769,-0.20264004,-0.03956578,0.99781162,0.06235093,0.00633651,0.02107563
1761620461194,0.91069667,0.26403312,-0.41664683,-0.04188960,-0.21877713,-0.05635723,0.99783842,0.06212891,0.00517699,0.02077694
1761620461205,-0.22320044,-0.21986379,0.04929720,-0.05612593,-0.20348144,-0.04851222,0.99786803,0.06182303,0.00406802,0.02051255
1761620461216,0.27692756,0.51510032,-0.37726364,-0.05600613,-0.18510249,-0.02805200,0.99789362,0.06151779,0.00305921,0.02035966
1761620461227,-0.29436916,0.37827156,-0.04867943,-0.00072781,-0.20122421,-0.03049126,0.99789990,0.06151390,0.00198266,0.02019654
1761620461239,-0.12122123,-0.17227489,-0.28473771,0.06652114,-0.16767938,-0.02374231,0.99787975,0.06190970,0.00098497,0.02005527
1761620461251,-0.65796070,-0.41938908,-0.42496832,0.03014180,-0.17670790,-0.03110292,0.99787273,0.06209055,-0.00007528,0.01986865
1761620461262,-0.43161235,0.41379015,1.41246436,0.05151571,-0.13770313,-0.04496035,0.99785974,0.06237131,-0.00082576,0.01962362
1761620461272,-0.60888025,0.71124688,-0.40663440,-0.03808814,-0.14858584,0.01112773,0.99787011,0.06217135,-0.00160584,0.01968204
1761620461283,0.29375991,-0.71980850,-0.41208149,0.12844009,-0.11497631,0.02259754,0.99782305,0.06286493,-0.00222671,0.01980407
1761620461294,0.53846577,-0.83913840,-0.43507259,0.07731198,-0.11718272,0.02639889,0.99779019,0.06330947,-0.00290051,0.01995586
1761620461305,-0.78661854,0.59113383,0.35501494,-0.04474729,-0.11314585,-0.02108732,0.99780608,0.06306336,-0.00352281,0.01983988
1761620461317,0.13222939,0.01890772,-0.13185595,-0.06062874,-0.07879948,0.00052764,0.99782594,0.06272081,-0.00396803,0.01984286
1761620461328,1.08784936,0.24715601,0.02327886,-0.00418176,-0.06216977,0.02041721,0.99782369,0.06269739,-0.00431618,0.01995720
1761620461339,-1.29555372,-0.45427046,-0.29484472,-0.00941458,-0.04198567,0.00421921,0.99782544,0.06264608,-0.00454500,0.01998019
1761620461351,-0.09296578,-0.00642988,-0.28051388,0.05317430,-0.03972994,-0.00779368,0.99780484,0.06297044,-0.00478736,0.01993265
1761620461361,-0.33615215,-0.19603553,-0.01953499,-0.02475404,-0.03887165,0.02068769,0.99780971,0.06284420,-0.00498560,0.02003816
1761620461372,-0.06134282,0.06326211,-0.05873407,-0.08312096,-0.01084056,-0.00250772,0.99783890,0.06237872,-0.00504631,0.02002411
1761620461384,-0.14425515,-0.12678663,-0.20847944,-0.04160012,0.00306834,0.01646385,0.99785201,0.06213952,-0.00502867,0.02011878
1761620461395,-0.00942366,-0.09392336,0.41978118,-0.04257241,0.04471431,0.02665622,0.99786480,0.06190537,-0.00478274,0.02026539
1761620461405,-0.24566005,-0.34191397,-0.09816402,-0.05442498,0.03653998,0.03951804,0.99787875,0.06162780,-0.00459638,0.02046693
1761620461416,0.10956978,0.01976318,-0.00355445,-0.07971737,0.05867808,0.01444592,0.99790553,0.06118936,-0.00427365,0.02054638
1761620461427,-0.07750790,0.05132908,-0.18133259,-0.06756517,0.05225876,0.00208925,0.99792941,0.06081437,-0.00398362,0.02055798
1761620461438,0.04239667,0.01373108,-0.21451754,-0.01060266,0.07214292,0.00310622,0.99793420,0.06075500,-0.00357962,0.02057537
1761620461451,0.13108148,0.26476557,-0.09207784,-0.01113170,0.05487017,-0.00461190,0.99794010,0.06068654,-0.00324217,0.02054701
1761620461462,-0.73600849,0.20788916,-0.37569313,0.02769978,0.06175448,-0.00330399,0.99793174,0.06084858,-0.00288090,0.02052768
1761620461483,0.38451206,0.08232781,-0.07530226,-0.01109015,0.03931933,0.00271513,0.99793939,0.06073158,-0.00246608,0.02055633
1761620461495,-1.39620828,-0.14964300,0.00107813,-0.02196536,0.07363787,0.00193817,0.99794773,0.06060638,-0.00204635,0.02056738
1761620461526,0.80872121,-0.03307519,0.01484959,-0.00960240,0.02733076,0.00083902,0.99795717,0.06045898,-0.00162682,0.02058025
1761620461554,-0.39326628,-0.13149221,0.20589693,-0.02598772,0.08015997,0.00516990,0.99797945,0.06008476,-0.00047252,0.02065470
1761620461574,-0.14841726,0.09661222,0.11453288,-0.02987957,0.09547442,0.02042412,0.99799281,0.05979343,0.00045836,0.02085384
1761620461585,0.58362881,0.24936850,-0.75102320,-0.01028660,0.06810896,0.01349605,0.99799443,0.05973583,0.00083977,0.02092941
1761620461595,-0.37868772,0.15172803,0.69124627,0.02846498,0.10422047,0.00571007,0.99798453,0.05988100,0.00137129,0.02095854
1761620461619,0.48279725,-0.00552270,-0.26090525,0.00863917,0.03211579,0.01156228,0.99797494,0.05998294,0.00175026,0.02109497
1761620461630,-0.49484427,0.01733979,0.24308077,-0.01917138,0.06695220,0.01274224,0.99797897,0.05988037,0.00210845,0.02116314
1761620461640,0.07396805,-0.00015880,0.00320936,0.01728524,0.06787755,-0.00746545,0.99797337,0.05997371,0.00247499,0.02112283
1761620461652,0.25255165,0.02938951,-0.11244496,0.02103479,0.04059972,0.01426613,0.99796392,0.06009256,0.00270438,0.02120343
1761620461662,-0.12378074,-0.22116142,-0.39078582,0.02109489,0.04340917,0.01433956,0.99795500,0.06020331,0.00293228,0.02127871
1761620461674,-0.06599822,-0.14881870,-0.15938346,-0.00248034,0.02074644,0.01180739,0.99795402,0.06018855,0.00305572,0.02134897
1761620461685,-0.01394767,-0.17752521,-0.00542791,0.00508293,0.02664548,-0.01311337,0.99795342,0.06021600,0.00319961,0.02127816
1761620461695,0.21184615,-0.03870664,0.24800258,-0.03285004,0.03455319,0.03127726,0.99795952,0.06004846,0.00337583,0.02143767
1761620461707,0.31597487,0.23864034,0.27669384,-0.04629397,0.01965386,0.02367236,0.99797207,0.05978459,0.00348786,0.02157260
1761620461719,0.04188588,0.09784474,-0.08791888,-0.01777476,0.02514541,0.01233012,0.99797642,0.05967527,0.00364250,0.02164843
1761620461730,-0.03899239,-0.09991903,-0.04372369,0.00491032,0.02190606,0.02079832,0.99797191,0.05970203,0.00376189,0.02176178
1761620461731,-3.85599593,-5.81805726,2.84534206,-0.07515164,0.14273726,-0.02549767,0.99797619,0.05963064,0.00389749,0.02173756
1761620461741,0.85753923,1.12861265,-0.69616715,-0.03527601,0.01579225,0.00453690,0.99798562,0.05945955,0.00397408,0.02175956
1761620461752,0.11082017,0.03086761,0.07213401,-0.03750809,0.01468384,-0.00799339,0.99799817,0.05925888,0.00405264,0.02171680
1761620461762,-0.25735485,0.20296960,-1.05360893,-0.03297222,0.00157741,0.00929139,0.99800681,0.05909567,0.00406045,0.02176279
1761620461773,0.05892746,0.03794218,0.10860426,-0.05897174,-0.02808161,-0.02025775,0.99803001,0.05875658,0.00389898,0.02164631
1761620461784,0.07898786,-0.08403891,0.02513415,-0.06726823,-0.02977994,-0.03981689,0.99805634,0.05839670,0.00373966,0.02143329
1761620461795,0.37531194,-0.05459511,0.78546324,-0.05071432,-0.02661822,-0.00524115,0.99807441,0.05810763,0.00358793,0.02140342
1761620461807,0.09890026,0.03997660,0.02005205,-0.02668258,-0.04390533,-0.00502250,0.99808482,0.05795420,0.00333548,0.02137454
1761620461819,-0.04456490,0.00398306,-0.02002785,-0.02496523,-0.03892334,0.01530838,0.99809223,0.05780566,0.00310388,0.02146562
1761620461829,0.19848212,0.10719463,0.15727489,-0.02542801,-0.05325059,-0.00203131,0.99810085,0.05767470,0.00282964,0.02145516
1761620461840,-0.15014107,0.06915543,-0.12871589,0.01287196,-0.04952812,-0.01170048,0.99809894,0.05774293,0.00256714,0.02139315
1761620461851,0.01993898,0.06270940,0.14846652,0.00652006,-0.05386237,-0.00445766,0.99809809,0.05777944,0.00226551,0.02136818
1761620461875,-0.10451054,-0.07433104,-0.13533168,0.00408161,-0.03733373,-0.00970316,0.99809865,0.05782760,0.00182498,0.02125369
1761620461885,0.15205621,-0.02670453,0.21818086,-0.01633480,-0.06276429,-0.02249051,0.99810652,0.05774348,0.00150174,0.02113786
1761620461886,5.81284053,-3.61054958,16.30713165,-0.06885079,-0.30756000,0.20584545,0.99810655,0.05769528,0.00128645,0.02128195
1761620461898,-0.89804546,0.40711196,-1.88313978,-0.01275491,-0.02103784,0.00795707,0.99810996,0.05762194,0.00116548,0.02132771
1761620461908,-0.09031784,0.08097917,0.18892769,-0.01860023,-0.04343468,0.00292404,0.99811529,0.05752801,0.00094613,0.02134247
1761620461919,-0.08743028,-0.08816244,-0.12224432,0.01554425,-0.00822756,0.02098387,0.99810779,0.05761506,0.00090006,0.02145998
1761620461930,-0.11866866,-0.12526183,-0.02162527,0.00800005,-0.02362614,0.03022533,0.99810205,0.05765706,0.00077602,0.02161866
1761620461941,-0.10250880,-0.04005728,-0.00815374,-0.01501655,-0.00901648,-0.00767830,0.99810818,0.05756846,0.00072283,0.02157336
1761620461952,-0.03499504,0.03401214,0.21101979,-0.03168035,0.01123897,0.00014090,0.99811824,0.05739263,0.00078520,0.02157414
1761620461963,0.25998170,-0.25087323,-0.57940673,0.00191642,-0.00460831,0.02107573,0.99811520,0.05740298,0.00076032,0.02168795
1761620461974,-0.08418457,-0.00146542,0.10041989,-0.02339223,0.02508965,0.00176752,0.99812207,0.05727783,0.00089455,0.02169741
1761620461985,0.05414345,0.01991333,0.13327617,-0.02322657,0.02964634,-0.01926054,0.99813128,0.05715357,0.00105315,0.02159437
1761620461996,-0.31079802,0.15124022,0.49256573,-0.04089922,0.02653773,-0.00583618,0.99814454,0.05693067,0.00119779,0.02156256
1761620462007,-0.09923420,0.17753408,-0.06166793,-0.00709794,0.01902122,0.00636999,0.99814592,0.05689021,0.00130621,0.02159887
1761620462019,0.06635387,0.02921385,0.05507371,-0.01317878,0.01215353,0.00990066,0.99814912,0.05680916,0.00138095,0.02165976
1761620462029,-0.09684059,0.01658572,0.29749987,0.00383855,0.00836251,-0.00682390,0.99814871,0.05682836,0.00142276,0.02162564
1761620462041,0.11428468,0.01683996,-0.10512574,-0.00721502,0.01089413,0.01046593,0.99814971,0.05678543,0.00148758,0.02168791
1761620462053,-0.10780363,-0.02931565,0.00890789,0.00737839,0.00303207,0.01175781,0.99814579,0.05682785,0.00150502,0.02175552
1761620462064,-0.03374782,-0.26709408,0.04348478,0.01563006,0.01497772,0.00644280,0.99814005,0.05691304,0.00158665,0.02179063
1761620462075,-0.09990201,0.00080297,0.00390563,0.00240526,0.00527475,0.01117388,0.99813785,0.05692663,0.00161645,0.02185376
1761620462096,0.16200493,0.08961607,-0.23253387,0.00308395,0.00286157,0.00275046,0.99813524,0.05695993,0.00164735,0.02188347
1761620462107,-0.48239699,0.17716208,0.74812414,0.02562510,0.02606050,0.00216263,0.99812684,0.05709831,0.00178808,0.02189515
1761620462119,0.28791757,-0.01719915,-0.30440624,0.04851829,0.04475395,0.03191099,0.99810577,0.05738457,0.00205213,0.02208342
1761620462130,-0.29382360,0.01834623,0.11461725,0.02340298,0.04194541,0.01434746,0.99809611,0.05751328,0.00228283,0.02216233
1761620462132,-37.81846980,3.93414997,43.88391974,0.12106339,0.36198668,0.12304844,0.99808763,0.05761013,0.00257242,0.02226077
1761620462142,5.62336947,-0.61184290,-6.55708360,0.01516292,0.05673025,0.01864384,0.99807988,0.05769125,0.00287592,0.02236052
1761620462153,-0.16617666,-0.06242674,0.18429699,0.01887356,0.07834213,-0.00311126,0.99807293,0.05779506,0.00330681,0.02234340
1761620462163,0.04872981,-0.26353665,-0.43612237,0.01351258,0.08154043,0.02092668,0.99806554,0.05785992,0.00369820,0.02244385
1761620462174,0.22060506,0.17234054,-0.18804174,-0.01554400,0.03376030,-0.00033746,0.99806999,0.05777132,0.00389063,0.02244193
1761620462186,0.09988072,0.06049813,0.09551608,0.00958167,0.03891407,-0.01672906,0.99806806,0.05782641,0.00411439,0.02234574
1761620462223,0.12917652,0.03819626,-0.11539578,0.00714986,0.01510090,0.00235998,0.99805813,0.05795976,0.00439602,0.02238975
1761620462242,-0.31627918,0.20434000,0.75318851,0.04190741,0.03247985,-0.00721495,0.99803494,0.05835997,0.00470620,0.02232085
1761620462254,0.13917023,-0.16106966,0.03184312,0.03544944,0.00488459,0.02608384,0.99801910,0.05856913,0.00473502,0.02247474
1761620462275,0.20496847,-0.10182821,-0.70549743,0.01751859,0.00325087,0.00547676,0.99800700,0.05875044,0.00476867,0.02253143
1761620462276,-5.66983185,-4.19137750,15.88535770,0.24406421,-0.08674438,0.26555726,0.99799200,0.05893349,0.00470361,0.02273059
1761620462298,0.45113420,0.18295628,-1.18147646,-0.00548400,-0.00937598,0.01989360,0.99799106,0.05887454,0.00460282,0.02294445
1761620462308,-0.27627163,-0.24174467,0.93024239,-0.02423640,-0.00040906,0.00163397,0.99799816,0.05875093,0.00460073,0.02295278
1761620462319,-0.03282906,0.00139914,-0.09432229,-0.02841019,-0.01103515,0.01153308,0.99800595,0.05859894,0.00454170,0.02301448
1761620462331,0.12793085,0.14401504,-0.25864406,-0.02054152,-0.00362917,0.00906411,0.99801222,0.05847158,0.00451919,0.02307068
1761620462342,-0.05003857,-0.01253948,0.02679944,-0.01946274,-0.00354349,-0.00325343,0.99801893,0.05836551,0.00449988,0.02305295
1761620462354,0.06645207,-0.01316941,0.01436977,-0.01652307,0.00043161,-0.00197670,0.99802478,0.05826967,0.00450239,0.02304149
1761620462365,-0.09921545,0.06826842,-0.16678888,-0.04053913,-0.00353483,0.01884697,0.99803595,0.05803657,0.00448206,0.02314986
1761620462374,-0.03111366,-0.13050117,-0.04707798,-0.03393765,0.01354885,0.01719648,0.99804297,0.05787876,0.00454506,0.02322982
1761620462376,-9.17655520,-9.16073218,7.96503971,0.04308625,-0.05700068,0.01054546,0.99804061,0.05791970,0.00449091,0.02323984
1761620462386,1.75684228,1.73081009,-1.61980809,-0.01898735,0.00279733,0.00610823,0.99804538,0.05782381,0.00450504,0.02327068
1761620462399,0.16878845,0.09948352,0.14470774,-0.01542814,-0.00453914,0.00357387,0.99805078,0.05772353,0.00447553,0.02329391
1761620462452,0.02229332,0.02956548,-0.09562552,-0.00591068,-0.00230967,-0.00225792,0.99806145,0.05756749,0.00441456,0.02323431
1761620462464,0.37452345,-0.29903252,2.34775044,-0.10190709,-0.14747606,-0.06976719,0.99810892,0.05696623,0.00354445,0.02282268
1761620462487,-0.22610129,0.15110926,-1.18811963,-0.01029832,-0.02632101,0.01907433,0.99811161,0.05684986,0.00324702,0.02303822
1761620462509,0.04813534,-0.13389467,0.18819950,-0.01765259,-0.01239506,-0.00138586,0.99812344,0.05665568,0.00311068,0.02302298
1761620462530,-0.07382530,0.04113650,-0.14569899,-0.00502205,0.00209030,0.00046848,0.99812634,0.05660120,0.00313336,0.02302806
1761620462542,0.00352250,-0.01004644,0.36195310,-0.03295374,-0.00709559,0.00975216,0.99813590,0.05641171,0.00309256,0.02308413
1761620462554,0.14759259,0.07247782,-0.05471345,-0.01064186,0.00077194,0.00790993,0.99813844,0.05634680,0.00309727,0.02313238
1761620462565,-0.01956467,0.02451726,-0.36741390,-0.00792201,-0.00683120,0.00337164,0.99814068,0.05630124,0.00305799,0.02315177
1761620462577,0.01644857,0.08035008,-0.14666641,0.00038742,0.01360070,0.00470097,0.99813973,0.05630338,0.00313279,0.02317763
1761620462586,-0.10143627,-0.04221093,-0.21847812,0.03261922,0.00279545,-0.00080138,0.99813056,0.05646647,0.00314677,0.02317362
1761620462598,0.02920249,0.18061692,0.25064852,0.02307689,0.01277547,-0.00039077,0.99812300,0.05659686,0.00321895,0.02317141
1761620462608,-0.07597550,0.04675029,0.15929976,0.01833167,0.01587181,-0.00969362,0.99811844,0.05669310,0.00330228,0.02312052
1761620462621,0.02175858,-0.04178782,-0.09374205,0.02479327,0.01973012,-0.01162807,0.99811071,0.05685177,0.00342855,0.02304610
1761620462632,-0.17379825,0.13636113,-0.05105862,0.05511400,0.04478775,-0.00296776,0.99809355,0.05714388,0.00366592,0.02303037
1761620462654,0.08745371,-0.08543260,-0.05803985,0.00735576,0.02212995,-0.00387753,0.99808900,0.05722442,0.00390825,0.02298791
1761620462666,-0.39118035,0.04141206,-0.07438732,0.00845036,0.07365364,-0.02462739,0.99808764,0.05727555,0.00435385,0.02283892
1761620462676,0.28238578,-0.27809989,-0.55651063,0.00893806,0.05132123,-0.00665352,0.99808447,0.05732337,0.00462842,0.02280332
1761620462687,0.06754933,0.19051500,-0.05165537,-0.01615203,0.05393115,0.00549716,0.99808741,0.05723615,0.00491965,0.02283300
1761620462698,-0.01284410,0.07843749,0.19295339,0.01405746,0.03690607,0.00885958,0.99808083,0.05731346,0.00512263,0.02288173
1761620462709,-0.06305285,0.05800369,0.03152642,0.03438920,0.04211887,-0.00462450,0.99806932,0.05750260,0.00535429,0.02285630
1761620462720,0.00984426,0.16865518,0.04626804,0.00981853,0.05524854,0.00175525,0.99806445,0.05755513,0.00564987,0.02286569
1761620462731,0.05936449,-0.16388404,-0.02927369,0.01383121,0.03550192,-0.00452327,0.99805942,0.05763259,0.00584868,0.02284036
1761620462743,0.13208777,0.00919728,0.05100634,-0.01345879,0.04075029,0.01130508,0.99806102,0.05755385,0.00608707,0.02290649
1761620462754,-0.05936427,0.01661094,-0.07488742,-0.00127493,0.03114599,0.00581420,0.99805958,0.05754659,0.00626460,0.02293963
1761620462765,-0.03062809,0.01399147,-0.44432028,0.02877130,0.03487665,-0.00516127,0.99804960,0.05770914,0.00646165,0.02291047
1761620462776,-0.17384419,0.08145239,-0.80568476,0.02955385,0.03555841,-0.00567916,0.99804008,0.05786430,0.00664833,0.02288066
1761620462778,0.01030164,2.05773916,-26.89586489,0.04370363,0.13934504,0.06376317,0.99803440,0.05791456,0.00680858,0.02295398
1761620462815,0.09119248,-0.20460951,2.09558068,-0.00997804,-0.00043882,-0.00106091,0.99804542,0.05773296,0.00680059,0.02293468
1761620462844,0.05366066,-0.01551089,-0.24818843,0.00019900,0.00650682,-0.02476511,0.99805274,0.05773583,0.00689429,0.02257806
1761620462854,0.92458717,-0.72234712,-2.23248002,-0.07961170,-0.04560894,0.01128573,0.99807688,0.05732184,0.00665712,0.02263674
1761620462876,-0.16517248,0.27988180,0.65049232,-0.03438803,-0.02619439,0.00896444,0.99809875,0.05693326,0.00636113,0.02273804
1761620462899,-0.15728258,0.04427385,0.42746004,-0.00417839,-0.00783633,-0.00453919,0.99810327,0.05688500,0.00627062,0.02268561
1761620462910,0.30337898,-0.23780468,-0.55733630,-0.01304679,-0.04108666,0.01868051,0.99810621,0.05681781,0.00605902,0.02278182
1761620462921,-0.21062514,-0.00649817,0.24681881,-0.02359671,-0.02682725,-0.02763596,0.99811857,0.05668095,0.00590342,0.02262153
1761620462933,-0.04961148,-0.04352078,0.13465972,-0.03273270,-0.01743445,-0.01090743,0.99813136,0.05649110,0.00580230,0.02255827
1761620462943,0.03237867,0.00740919,-0.09092870,-0.03566212,-0.02363710,-0.01146689,0.99814329,0.05631457,0.00568530,0.02250151
1761620462955,-0.06803245,0.08218842,0.21429492,-0.02413625,-0.02098598,-0.00676918,0.99815267,0.05617579,0.00556463,0.02246258
1761620462965,0.02295946,0.00164914,-0.29059138,-0.01251419,-0.02853991,-0.01771020,0.99815959,0.05610696,0.00540766,0.02236518
1761620462977,0.19144813,-0.02821290,-0.07892916,0.00003222,-0.02908384,0.00137681,0.99816028,0.05610714,0.00524479,0.02237289
1761620462987,0.06388629,0.12324107,0.11654228,-0.01361743,-0.02999732,0.00751906,0.99816430,0.05603429,0.00508431,0.02241311
1761620462998,-0.08726907,0.04655622,0.02126148,-0.00604080,-0.03508154,-0.00901072,0.99816806,0.05600257,0.00490013,0.02236581
1761620463000,10.28146707,-0.59307840,-29.13732292,-0.05370382,-0.19559742,-0.09883032,0.99817391,0.05595155,0.00471431,0.02227192
1761620463010,-2.09992733,0.07612841,5.69144068,-0.01247816,-0.03241148,0.01959991,0.99817593,0.05589041,0.00455549,0.02236796
1761620463021,-0.01970401,0.13497878,-0.02798774,-0.00749121,-0.03217025,0.00289625,0.99817867,0.05584921,0.00437856,0.02238389
1761620463032,-0.10609129,-0.00675166,-0.05722709,0.04854693,-0.03291030,-0.00378526,0.99816469,0.05612107,0.00419426,0.02236269
1761620463043,0.02350630,-0.00634962,0.09189130,0.02072681,-0.02033417,0.02388459,0.99815554,0.05623818,0.00407937,0.02249764
1761620463054,0.11145846,0.10699127,0.01115980,-0.03242766,-0.02911416,-0.01587245,0.99816818,0.05605983,0.00391924,0.02241034
1761620463065,0.46821383,-0.05784946,-0.40882512,0.00632446,-0.01054093,-0.02161661,0.99816912,0.05609493,0.00386074,0.02229037
1761620463076,-0.21943207,0.03552236,-0.19600830,0.03000417,-0.03476383,-0.00021197,0.99816074,0.05625695,0.00367302,0.02228922
1761620463088,-0.03657528,-0.01685438,0.31292185,-0.01548412,-0.00073357,-0.00344018,0.99816630,0.05616637,0.00366873,0.02226910
1761620463098,-0.52311598,-0.06008187,0.27624819,-0.03626453,-0.01609892,-0.02254773,0.99818007,0.05597416,0.00358340,0.02214960
1761620463110,0.02471439,-0.00746465,0.19161594,-0.03404525,-0.00532931,0.02094489,0.99818875,0.05577160,0.00355169,0.02227422
1761620463121,-0.09966057,0.02655876,-0.22439945,-0.02465254,-0.00097682,0.01133582,0.99819483,0.05563847,0.00354642,0.02233543
1761620463133,-0.08272980,-0.01191055,0.13120656,0.00165488,0.00691307,0.00413315,0.99819360,0.05564815,0.00358686,0.02235961
1761620463154,-0.00935548,0.01178525,0.18239260,-0.00248434,0.00799419,0.01801328,0.99819041,0.05562132,0.00367320,0.02255415
1761620463156,10.14810750,6.57353237,-72.58881603,0.09170869,0.13964571,0.14867695,0.99818411,0.05568552,0.00377095,0.02265823
1761620463165,-0.93838216,-0.99687589,9.29445189,0.00357469,-0.00111916,0.01215855,0.99818179,0.05570303,0.00376546,0.02271780
1761620463177,-0.08418141,-0.00691490,0.19145257,-0.01648021,-0.01469084,-0.00528329,0.99818830,0.05560498,0.00367805,0.02268637
1761620463188,0.09973065,-0.11300395,0.14756065,-0.02570093,-0.01566178,0.00008155,0.99819610,0.05547005,0.00359583,0.02268680
1761620463200,-0.10313787,-0.03511457,0.35909259,-0.00188460,-0.01249643,0.01368269,0.99819516,0.05545912,0.00352335,0.02276616
1761620463212,-0.08952115,0.14919895,-0.01598592,-0.00991901,-0.01581513,0.00705708,0.99819783,0.05539960,0.00342846,0.02280850
1761620463222,0.10816375,0.09125243,-0.18791161,-0.00392919,-0.02543712,0.02294074,0.99819670,0.05537956,0.00329873,0.02292550
1761620463233,0.06172733,-0.13451931,0.08374197,0.01463992,-0.02427585,0.01316021,0.99819078,0.05546301,0.00316036,0.02300051
1761620463244,0.06245481,-0.16228260,-0.02478477,-0.00259027,-0.03512844,0.00786939,0.99819117,0.05544889,0.00296891,0.02304340
1761620463256,0.01239948,-0.01525867,0.05132364,-0.04555713,-0.04053624,-0.01384808,0.99820848,0.05518238,0.00273177,0.02296239
1761620463266,1.05109892,-0.05901203,-0.17122776,-0.02572362,-0.00911667,0.00460873,0.99821551,0.05504734,0.00268391,0.02298658
1761620463276,0.05591516,-0.04921631,-0.22470823,0.01228372,-0.02088498,-0.01348024,0.99821391,0.05510998,0.00257739,0.02291783
1761620463287,-0.40652087,-0.01500862,0.25452951,-0.00671768,-0.03307519,-0.03425702,0.99822072,0.05507304,0.00239548,0.02272942
1761620463299,-0.54421031,-0.09350375,0.19186282,-0.03588738,-0.04143056,-0.00316458,0.99823272,0.05487207,0.00216347,0.02271170
1761620463311,-0.01215507,0.11423734,0.24124042,-0.04317803,-0.04072821,-0.01210612,0.99824921,0.05461084,0.00191706,0.02263846
1761620463322,-0.01288610,0.02478469,-0.09166701,-0.03398044,-0.03860942,0.01146361,0.99825887,0.05441375,0.00169313,0.02270495
1761620463333,-0.06947408,0.12221431,0.01695334,-0.02516555,-0.02256773,0.00057260,0.99826646,0.05427660,0.00157014,0.02270807
1761620463344,-0.04512591,0.12186992,-0.04462918,-0.01628186,-0.03301651,0.01318200,0.99826985,0.05418949,0.00139350,0.02277859
1761620463355,0.05269949,0.01586001,0.02519803,0.00655022,-0.01927394,-0.01709561,0.99827019,0.05422650,0.00128460,0.02268200
1761620463366,0.25972161,-0.02377175,-0.23298610,-0.00881829,-0.02852190,-0.01500457,0.99827480,0.05417888,0.00113058,0.02260097
1761620463376,-0.09911581,-0.02939873,-0.04228941,-0.00238909,-0.00858876,0.00210079,0.99827528,0.05416634,0.00108549,0.02261200
1761620463388,-0.20843346,0.03047199,0.23264934,-0.02363640,-0.00706664,-0.01230820,0.99828397,0.05403516,0.00104627,0.02254369
1761620463399,-0.20868282,-0.08010525,0.29568541,0.00408354,-0.00275292,-0.01665479,0.99828490,0.05405925,0.00103003,0.02244543
1761620463410,0.04801797,0.10375745,0.12486058,-0.01111074,0.00240073,0.00076662,0.99828804,0.05399925,0.00104299,0.02244957
1761620463421,-0.02225317,0.01498327,-0.01010531,0.00887003,0.01171689,0.00237499,0.99828501,0.05404848,0.00110802,0.02246275
1761620463432,-0.15291741,-0.03117702,-0.07137619,0.01834138,0.01484043,0.00439894,0.99827901,0.05414752,0.00118816,0.02248651
1761620463443,0.08686263,-0.08812748,0.10040804,0.02157630,0.03231002,-0.00242862,0.99827259,0.05426727,0.00136748,0.02247303
1761620463455,-0.01271102,-0.10196677,-0.04485878,0.00788420,0.01918463,0.00212298,0.99826961,0.05431379,0.00148067,0.02248555
1761620463466,0.15763475,-0.00325230,-0.07871344,-0.02711843,0.01464176,-0.00106842,0.99827758,0.05416735,0.00155973,0.02247978
1761620463478,0.02989884,-0.11932322,-0.01973904,-0.01321260,0.01011750,0.00330108,0.99828124,0.05409006,0.00161892,0.02249909
1761620463490,-0.10143594,0.10848421,0.14658662,-0.02178074,0.01504895,-0.00459926,0.99828885,0.05395828,0.00170997,0.02247127
1761620463519,-0.06386149,0.06041432,0.07964325,-0.00667324,0.00807206,0.00144637,0.99829344,0.05386052,0.00182822,0.02249246
1761620463521,3.40172048,-5.81609511,8.79437443,-0.06742286,0.11796959,-0.06727943,0.99829959,0.05377624,0.00197569,0.02240836
1761620463532,-0.78106715,1.34607977,-1.88843278,-0.00496214,0.00416149,0.00280072,0.99830067,0.05374895,0.00199857,0.02242376
1761620463535,3.63097688,-3.79691523,4.83474692,0.03588115,0.06035600,0.01066368,0.99829803,0.05379021,0.00206798,0.02243603
1761620463545,-0.74235857,0.70971518,-0.86293560,0.00211428,0.02107276,-0.00737257,0.99829807,0.05380036,0.00216913,0.02240064
1761620463556,0.05393698,-0.07067301,-0.07220136,-0.00482545,0.02919111,-0.00237324,0.99829952,0.05377189,0.00234136,0.02238664
1761620463566,0.19608852,-0.23326876,-0.10924279,-0.01238571,0.03225597,0.01256667,0.99830110,0.05370811,0.00250748,0.02245135
1761620463578,-0.00527756,0.08259329,0.00420728,-0.00815589,0.01882864,0.00057142,0.99830321,0.05366243,0.00261292,0.02245455
1761620463589,-0.07722294,-0.00392610,0.22339110,-0.00837173,0.02712290,0.00344612,0.99830485,0.05361681,0.00276074,0.02247333
1761620463600,-0.17953374,0.11358395,0.23875058,-0.02580764,0.00692904,-0.00890445,0.99831361,0.05347228,0.00279954,0.02242347
1761620463611,-0.02971697,-0.05496992,-0.00145129,0.00040264,0.01505688,-0.00677503,0.99831410,0.05347452,0.00288311,0.02238587
1761620463622,0.03962883,0.04574014,0.12083545,-0.01970520,0.01845671,-0.00998800,0.99832113,0.05336121,0.00298923,0.02232844
1761620463634,-0.05715155,0.01001674,0.05163123,-0.01305905,0.02839920,-0.01773138,0.99832682,0.05328743,0.00314969,0.02222826
1761620463644,-0.05752704,0.05736318,0.13097640,-0.02296779,0.03004645,0.01946897,0.99833045,0.05316685,0.00330743,0.02233047
1761620463656,0.17384266,0.18317382,-0.12601990,-0.01186719,0.03067064,0.01545766,0.99833150,0.05309802,0.00348532,0.02242012
1761620463667,0.26993038,0.05573611,-0.17422806,0.02350481,0.03080090,0.00922135,0.99832232,0.05323552,0.00366551,0.02247407
1761620463678,-0.03021465,-0.03940112,0.09967568,-0.00146369,0.01677358,0.00136212,0.99832224,0.05322776,0.00375441,0.02248129
1761620463688,-0.25040428,0.03866218,0.20678652,-0.02347189,0.03868059,-0.02862856,0.99833139,0.05310454,0.00395748,0.02233099
1761620463700,-0.20625099,0.02363046,0.03973643,-0.00387437,0.03351772,0.00846285,0.99833068,0.05308129,0.00415859,0.02238176
1761620463712,0.04386782,-0.04829263,-0.00060093,0.03648684,0.02522052,-0.00848438,0.99831998,0.05329109,0.00430360,0.02233298
1761620463723,0.06294402,0.05513487,0.24540200,0.01269904,0.00328664,-0.04838964,0.99832203,0.05335903,0.00432119,0.02207409
1761620463734,-0.03693186,0.13540173,-0.01199612,-0.03485821,0.00272104,-0.02052656,0.99833526,0.05315860,0.00433683,0.02195607
1761620463746,0.12131912,-0.06817919,0.01143509,0.01012119,0.01226445,0.00920353,0.99833056,0.05321831,0.00440919,0.02201037
1761620463757,0.00761443,0.17107948,0.23377645,0.00102715,0.01495532,-0.00778804,0.99833084,0.05322396,0.00449145,0.02196753
1761620463768,0.25303497,-0.15930387,0.05203461,0.02776233,0.01174843,0.01182765,0.99832060,0.05338221,0.00455841,0.02203495
1761620463779,0.05834819,0.02603732,0.07725087,0.07926056,0.00383579,0.02675015,0.99829604,0.05378247,0.00457779,0.02217004
1761620463790,-0.19239931,0.05537432,-0.08807011,0.04370847,0.00066542,-0.01066075,0.99828413,0.05402724,0.00458151,0.02211034
1761620463800,-0.21542204,-0.04150902,-0.02777050,0.02643042,-0.00810163,-0.00579857,0.99827760,0.05416335,0.00453979,0.02208047
1761620463811,-0.05988992,0.03916029,-0.03553650,0.01259109,0.00404105,-0.01329774,0.99827538,0.05423198,0.00456181,0.02200800
1761620463822,-0.02490037,0.00107184,-0.06151856,0.00518871,-0.00014896,0.00607279,0.99827305,0.05426103,0.00456098,0.02204201
1761620463833,-0.07888781,0.06827924,0.02520676,0.02551370,0.02078770,0.00317404,0.99826427,0.05440519,0.00467843,0.02205994
1761620463844,0.00690999,0.06437756,-0.00593319,0.03666352,0.00141283,0.01129719,0.99825207,0.05460317,0.00468606,0.02212095
1761620463855,0.02006890,0.02346009,-0.15208580,0.03028639,0.03746975,0.00158947,0.99824176,0.05476974,0.00489214,0.02212969
1761620463866,0.30573927,-0.24762484,-0.11202231,0.04788692,0.02008293,0.00050509,0.99822653,0.05503552,0.00500360,0.02213249
1761620463878,0.05143026,-0.10420884,-0.02326240,0.01066560,0.02529161,0.01092005,0.99822087,0.05509844,0.00515282,0.02219692
1761620463890,-0.20667444,0.01905477,0.08240550,-0.02039369,0.00914106,-0.02025767,0.99822972,0.05498016,0.00520584,0.02207943
1761620463900,-0.30360312,0.00324470,0.12759981,-0.00376713,0.03442297,0.01523474,0.99822802,0.05495963,0.00539345,0.02216246
1761620463912,0.07615456,-0.05241768,-0.13569125,0.03032793,0.01796809,0.02599142,0.99821427,0.05513705,0.00549856,0.02231451
1761620463935,-0.00295220,0.01891721,-0.29273965,0.01020179,0.00225798,-0.01490524,0.99821156,0.05525029,0.00552362,0.02214906
1761620463946,0.03289600,-0.17609034,0.89786722,0.00542770,0.01243645,0.01010132,0.99820826,0.05528041,0.00559264,0.02220512
1761620463957,-0.01618924,0.08356843,-0.38023423,0.00345828,-0.00834467,0.00602170,0.99820673,0.05529943,0.00554675,0.02223824
1761620463968,0.21397957,0.05214715,-0.07326174,-0.00162317,-0.01189964,0.00267821,0.99820726,0.05529034,0.00548011,0.02225324
1761620463979,0.01069647,-0.11984263,-0.09880156,0.00514464,-0.01355738,0.01890030,0.99820378,0.05531864,0.00540555,0.02235719
1761620463989,-0.10351621,0.06715811,0.00295328,0.00158736,-0.02125709,0.00600034,0.99820320,0.05532713,0.00529182,0.02238929
1761620464000,0.07706279,-0.06057483,0.27699811,-0.00833222,-0.00487882,0.00247704,0.99820553,0.05528214,0.00526547,0.02240267
1761620464003,-0.37610613,-3.34126346,14.68449137,-0.01233326,-0.02353264,0.00773132,0.99820639,0.05526549,0.00523371,0.02241310
1761620464012,0.12711820,1.02519030,-4.07657675,-0.01894188,-0.01196531,0.01612180,0.99820990,0.05517646,0.00517747,0.02248888
1761620464024,0.01136666,-0.07356906,0.01515554,-0.01089654,-0.01520926,0.01019919,0.99821255,0.05511217,0.00508773,0.02254905
1761620464035,-0.01802648,0.05532408,0.11509738,-0.01912715,-0.00057967,-0.01447956,0.99822010,0.05500793,0.00508457,0.02247014
1761620464047,-0.06889038,0.06286674,-0.22022814,-0.00409908,0.00158787,-0.00569659,0.99822211,0.05498415,0.00509378,0.02243710
1761620464058,-0.01197735,0.02921250,0.05638361,0.01510215,0.00473599,-0.00512751,0.99821799,0.05506797,0.00512007,0.02240864
1761620464068,-0.06349237,0.18954747,-0.01194241,0.03268215,0.00427977,-0.01209757,0.99821021,0.05523138,0.00514147,0.02234815
1761620464080,0.07410770,0.03480327,-0.08342253,0.00820631,0.01672466,-0.00708376,0.99820795,0.05527980,0.00524014,0.02230636
1761620464091,-0.13321822,-0.13379351,-0.00132137,0.00677349,0.00290822,-0.01213897,0.99820726,0.05531908,0.00525701,0.02223595
1761620464102,-0.00512187,0.00609479,0.16170470,-0.00432914,0.01402951,-0.01900281,0.99821037,0.05529614,0.00533137,0.02213524
1761620464113,0.09930867,-0.05338297,-0.12325959,0.00890727,0.00534839,-0.00837084,0.99820850,0.05534557,0.00536105,0.02208878
1761620464134,-0.01479283,0.01846935,-0.30917671,0.00246117,0.00044561,-0.00679425,0.99820862,0.05537191,0.00536582,0.02201608
1761620464136,-2.54425319,1.73741486,75.19075345,0.05087760,0.06692810,-0.15903553,0.99820884,0.05540752,0.00541267,0.02190476
1761620464146,0.24751289,-0.22010184,-9.31326758,0.00914273,-0.00051255,-0.00217831,0.99820640,0.05545644,0.00540993,0.02189310
1761620464158,0.06644401,0.02215929,-0.06870317,0.01373703,-0.00102812,-0.00141908,0.99820203,0.05553886,0.00540376,0.02188459
1761620464168,0.14687549,-0.03126332,0.58822148,0.01579807,0.01313201,0.00666378,0.99819688,0.05561311,0.00546548,0.02191591
1761620464179,-0.05459338,-0.04387564,-0.34923586,0.02675678,-0.00020224,0.01144957,0.99818711,0.05576295,0.00546435,0.02198003
1761620464190,-0.08196523,0.06429230,-0.05752636,0.02194651,0.00798911,-0.00172214,0.99818008,0.05588804,0.00550988,0.02197021
1761620464202,-0.17244803,-0.01708428,-0.12474964,0.01532573,0.00455927,0.00340521,0.99817462,0.05597540,0.00553587,0.02198962
1761620464212,0.04920920,-0.04311082,0.18718794,0.00639070,0.01456216,-0.00464521,0.99817290,0.05600799,0.00561014,0.02196593
1761620464255,0.02440906,0.00827948,-0.23779864,-0.00138867,0.00379404,0.00020644,0.99817400,0.05597834,0.00569114,0.02197034
1761620464284,-0.08454944,-0.02243612,0.40034600,-0.00238142,0.02493053,-0.01229559,0.99817777,0.05594334,0.00605762,0.02178959
1761620464302,0.02783772,-0.23388453,0.25200985,0.04428132,0.06527868,-0.00110398,0.99815169,0.05634408,0.00664839,0.02177960
1761620464314,-0.47517436,0.48030285,0.25141335,-0.01538860,0.03964431,-0.00265845,0.99815573,0.05624944,0.00689220,0.02176325
1761620464335,0.25744486,0.03185561,-0.67788357,0.03392239,0.01242304,-0.00015994,0.99813542,0.05659375,0.00701830,0.02176163
1761620464346,-0.22227741,0.13280205,0.52793450,0.03315045,0.00195529,-0.00911677,0.99812634,0.05677111,0.00702876,0.02171285
1761620464357,0.09261831,-0.01981975,0.27704107,-0.00222657,0.00046355,-0.01240406,0.99812864,0.05675808,0.00703147,0.02164029
1761620464369,0.15543861,0.03555016,-0.42634271,0.01045854,0.01275350,0.00071698,0.99812440,0.05682136,0.00710863,0.02164463
1761620464381,-0.04559607,0.00519062,-0.11724703,0.00413383,0.01794039,0.00515009,0.99812152,0.05684637,0.00721717,0.02167578
1761620464391,-0.24334004,0.07364982,0.30356661,0.00336516,0.02834455,0.02432912,0.99811683,0.05686336,0.00736031,0.02179865
1761620464402,-0.07281746,-0.16129982,-0.11437342,0.04127411,0.02911631,0.03804927,0.99809877,0.05708211,0.00751463,0.02200031
1761620464413,-0.05221262,0.03911450,-0.00885986,0.03780205,0.02576127,-0.00869589,0.99808694,0.05728814,0.00765502,0.02195291
1761620464424,-0.11237640,-0.00125420,-0.03210754,0.01729543,0.01883842,0.00083411,0.99808063,0.05738240,0.00775769,0.02195746
1761620464435,-0.00227236,-0.03311291,-0.05141220,0.01384881,0.01427291,-0.00359167,0.99807603,0.05745926,0.00783691,0.02193753
1761620464446,0.09013572,0.03888270,0.02842426,0.02648055,0.02638043,0.00173374,0.99806610,0.05760755,0.00798464,0.02194724
1761620464457,-0.07487526,-0.08082275,-0.23180366,0.03107017,0.01820108,0.01454959,0.99805365,0.05777843,0.00808474,0.02202726
1761620464468,-0.05544823,-0.11418495,-0.29434002,0.02423769,0.02135562,0.02022322,0.99804240,0.05791295,0.00820327,0.02213950
1761620464479,0.05595230,-0.01623973,-0.17588052,0.02535179,0.03264179,0.00802054,0.99803183,0.05805239,0.00838280,0.02218361
1761620464490,-0.02448729,-0.01559316,0.25169836,-0.00268349,0.02449151,0.03235576,0.99802754,0.05803749,0.00851873,0.02236318
1761620464502,0.13695832,-0.07727999,0.02924332,0.01658865,0.01545623,0.01033415,0.99801983,0.05813371,0.00860837,0.02242312
1761620464513,0.01659807,0.22751784,0.05632155,-0.00871589,0.02447409,0.00475840,0.99802090,0.05808359,0.00874910,0.02245048
1761620464524,-0.03051537,0.01177151,-0.22342158,0.08178003,0.02677038,-0.01565263,0.99799666,0.05850885,0.00888830,0.02236909
1761620464583,0.09925503,-0.03283749,-0.08493097,0.00960807,0.00605327,0.00421334,0.99797557,0.05879277,0.00906718,0.02249359
1761620464592,-1.96902026,-0.43541846,1.42274741,-0.03966107,0.06905892,-0.05471587,0.99798929,0.05860636,0.00939175,0.02223643
1761620464632,0.46294989,0.06280206,-0.34738225,-0.01212823,0.00066680,0.00488381,0.99800108,0.05836622,0.00940496,0.02233313
1761620464658,-0.04570321,-0.10234906,-0.02065012,-0.03071690,-0.00587630,-0.01481657,0.99802958,0.05796383,0.00932798,0.02213903
1761620464670,-0.08615333,-0.10575492,-0.15563440,-0.11126404,0.00943483,-0.01668680,0.99806882,0.05731294,0.00938317,0.02204141
1761620464693,0.01217226,0.19857243,-0.00417606,-0.00484074,0.01437866,-0.00011645,0.99807045,0.05725799,0.00954637,0.02204009
1761620464714,0.09553538,0.07269649,0.05318020,0.00728735,0.00681555,-0.00118302,0.99806555,0.05733597,0.00961930,0.02202743
1761620464724,-0.05313766,-0.02290905,0.02894217,0.01238737,0.01257470,-0.00436796,0.99806176,0.05739976,0.00968406,0.02200494
1761620464736,0.06037819,-0.01975105,0.16231253,-0.00938210,0.01721622,-0.00753395,0.99806477,0.05734722,0.00978047,0.02196275
1761620464746,-0.04629793,-0.20136588,-0.20504393,0.00707404,-0.00568157,-0.00594437,0.99806356,0.05738578,0.00974950,0.02193035
1761620464758,0.14880192,0.24523504,-0.07386453,-0.01097715,0.00286723,-0.01213985,0.99806861,0.05732211,0.00976613,0.02185994
1761620464769,0.12785465,0.21177833,-0.23782903,-0.00394468,0.00898525,-0.00593437,0.99807004,0.05730100,0.00981420,0.02182819
1761620464780,-0.13938275,-0.03504847,-0.05716343,0.00703587,0.00311139,-0.00326887,0.99806806,0.05733935,0.00983116,0.02181038
1761620464791,0.04995647,0.17139527,0.04651242,-0.00143118,0.01058394,-0.00599818,0.99806866,0.05733141,0.00988990,0.02177709
1761620464792,-5.32615829,7.09640534,-5.13821572,0.05253264,0.04991913,0.02443611,0.99806543,0.05737343,0.00992984,0.02179664
1761620464803,0.61455845,-1.24111020,0.95570111,0.01103022,0.01195932,0.00804858,0.99806036,0.05743355,0.00999501,0.02184050
1761620464815,-0.01278940,0.00495676,0.04850085,0.02058119,0.01790133,-0.00611345,0.99805303,0.05755601,0.01010153,0.02180413
1761620464826,-0.01259964,-0.03106434,-0.10758691,0.02747150,0.01277318,-0.00327348,0.99804423,0.05770298,0.01016986,0.02178661
1761620464836,-0.16684804,0.02528502,-0.00109216,0.01276889,0.01748792,-0.01168432,0.99804082,0.05776874,0.01025993,0.02172644
1761620464847,0.01209881,-0.13497269,-0.04448756,0.01149757,0.00312525,-0.00874127,0.99803800,0.05783255,0.01027727,0.02167792
1761620464858,0.54929823,-0.19338281,-0.08144326,-0.00147442,0.00178816,-0.00580870,0.99803906,0.05782444,0.01028711,0.02164598
1761620464869,0.22310273,-0.10594334,-0.06192690,-0.00914956,-0.00947844,-0.01042931,0.99804384,0.05777320,0.01023403,0.02158757
1761620464880,0.05487274,-0.01772274,-0.14319434,0.00991595,-0.01434784,-0.00282838,0.99804180,0.05782824,0.01015440,0.02157187
1761620464892,-0.43071315,0.22129131,0.14191582,0.00668187,-0.02357583,-0.00226525,0.99804124,0.05786565,0.01002237,0.02155919
1761620464903,-0.20146978,0.00237582,0.00760263,0.00957058,-0.03193119,-0.00519773,0.99804054,0.05791925,0.00984356,0.02153008
1761620464914,0.11289801,0.15250679,0.08783435,-0.01580320,-0.02682759,-0.00442146,0.99804736,0.05783470,0.00970003,0.02150643
1761620464925,0.01275615,-0.08752117,0.01282473,-0.00589645,-0.02492416,0.00901780,0.99804957,0.05780109,0.00955796,0.02155783
1761620464936,-0.05407586,0.08654371,-0.03921908,-0.00478553,-0.02903130,-0.00332716,0.99805297,0.05777501,0.00939974,0.02153970
1761620464947,-0.09102235,-0.07431694,-0.15763258,0.01307075,-0.01415073,0.00435205,0.99804895,0.05784821,0.00932050,0.02156407
1761620464958,0.03006252,-0.09766593,0.06496268,0.01073934,-0.01559927,-0.00043571,0.99804635,0.05790781,0.00923392,0.02156165
1761620464970,0.06716177,0.08017409,0.06719112,0.00041296,-0.02095516,-0.00464261,0.99804798,0.05791031,0.00910714,0.02153356
1761620464992,0.01200154,-0.03514116,0.08705592,0.01719443,-0.00858309,0.00087065,0.99803763,0.05809945,0.00901273,0.02154314
1761620464994,-6.64414513,-1.73598110,-26.07352001,-0.02807563,-0.11083207,-0.06519388,0.99804126,0.05807418,0.00891298,0.02148446
1761620465003,1.02672928,0.17053802,4.66944437,-0.03224661,-0.00969732,-0.01328594,0.99805126,0.05793068,0.00886983,0.02142534
1761620465015,-0.00577175,0.06691920,0.13328889,-0.05139105,-0.02074541,-0.00796476,0.99807090,0.05762748,0.00874743,0.02137835
1761620465027,0.01901088,0.01752704,-0.03235392,-0.01288705,-0.01228774,0.01961824,0.99807341,0.05755209,0.00867555,0.02149312
1761620465037,-0.02314159,-0.09034356,-0.08081420,-0.00063403,-0.01161166,0.00894631,0.99807312,0.05754873,0.00861400,0.02154053
1761620465048,-0.13324375,0.08646995,-0.03078288,-0.01664111,-0.00703333,0.01664667,0.99807674,0.05745720,0.00857532,0.02163209
1761620465059,0.20036394,-0.10414312,-0.13975022,-0.01488586,-0.00574237,0.03421221,0.99807764,0.05737384,0.00854316,0.02182368
1761620465071,0.11232007,-0.08383563,-0.02942406,-0.00644730,0.00520889,0.00566719,0.99807880,0.05733677,0.00857311,0.02185626
1761620465082,-0.11785349,0.04821819,-0.06993134,-0.02374197,0.00710431,0.02203144,0.99808334,0.05720500,0.00861254,0.02197854
1761620465093,-0.05931332,-0.08034329,0.24777764,-0.01248636,0.01384385,0.01582866,0.99808476,0.05713320,0.00869215,0.02206955
1761620465103,-0.07879457,-0.05679128,-0.07341821,-0.04921656,-0.00205847,0.02860881,0.99809540,0.05689450,0.00868216,0.02220830
1761620465149,0.05976081,0.06306722,0.14190276,-0.00382655,-0.00202061,0.00206671,0.99809975,0.05680668,0.00863579,0.02225574
1761620465160,-0.70123111,-0.58118046,-2.00509775,-0.03772234,0.03409049,0.04706753,0.99810401,0.05660298,0.00881988,0.02250990
1761620465171,0.58481773,0.74244103,1.19479123,-0.03170320,0.01297889,0.01026866,0.99811205,0.05642703,0.00889191,0.02256689
1761620465192,0.07093943,0.00371064,0.31554152,0.00899649,0.01061307,0.02118098,0.99810060,0.05652194,0.00900388,0.02279035
1761620465202,-0.12548805,-0.14408667,-0.36055778,-0.01199726,0.01283469,-0.01553669,0.99810541,0.05645896,0.00907126,0.02270878
1761620465215,0.13075504,-0.02388762,0.17470026,-0.00681045,0.00310630,-0.01806747,0.99811013,0.05641707,0.00909036,0.02259767
1761620465226,0.13546641,0.00966363,0.03007804,-0.00624256,-0.00245625,-0.01812577,0.99811468,0.05638087,0.00907612,0.02249254
1761620465237,0.11149942,0.07468378,0.02709082,-0.01081113,-0.01427285,-0.01178725,0.99812025,0.05632086,0.00899690,0.02242712
1761620465248,-0.07413843,0.09469119,-0.01966712,-0.01212989,-0.01842213,-0.02603430,0.99812799,0.05625536,0.00889742,0.02228653
1761620465259,-0.04009872,-0.00698939,-0.04278630,0.00094604,-0.01108867,-0.01562959,0.99813017,0.05626061,0.00883588,0.02219979
1761620465270,0.62898967,0.13837847,0.13580623,0.01476418,-0.00545731,-0.00938278,0.99812703,0.05634108,0.00880614,0.02214865
1761620465272,25.93348881,7.02849496,-17.44734586,0.18456858,-0.08970659,-0.02990881,0.99811985,0.05648873,0.00873437,0.02212473
1761620465282,-4.02507697,-0.91361918,2.74657498,0.00917244,-0.00347295,-0.00621007,0.99811802,0.05653643,0.00871632,0.02209243
1761620465294,-0.32874211,-0.23420834,-0.19419732,0.03270815,-0.01553285,-0.00171168,0.99810817,0.05672777,0.00862545,0.02208242
1761620465305,-0.14517902,-0.01311281,0.04386133,0.00076579,-0.01922922,-0.00329976,0.99810925,0.05673202,0.00851873,0.02206411
1761620465316,-0.05958697,-0.12777313,-0.08836806,0.00214232,-0.01651987,-0.00557005,0.99811003,0.05674370,0.00842869,0.02203375
1761620465327,-0.04319646,0.05925673,0.00857458,-0.00061499,-0.00941622,-0.01107227,0.99811189,0.05674050,0.00837973,0.02197617
1761620465338,-0.01812936,-0.06732717,0.04386135,0.00569863,-0.00276210,-0.00190538,0.99811044,0.05677241,0.00836426,0.02196550
1761620465349,0.06657050,0.08843768,-0.01290911,-0.00335038,0.00260511,-0.00042623,0.99811147,0.05675298,0.00837937,0.02196303
1761620465360,0.14324876,-0.12457366,-0.19171919,0.00895226,0.00195290,-0.00043994,0.99810876,0.05679998,0.00838962,0.02196072
1761620465371,-0.11688675,-0.02863580,0.02476868,-0.01371111,0.01390036,-0.00274877,0.99811270,0.05672525,0.00846538,0.02194574
1761620465382,-0.00397663,-0.06497204,-0.03493757,-0.01218430,0.01245787,-0.00628241,0.99811672,0.05665763,0.00853452,0.02191087
1761620465393,-0.05604866,-0.11104283,0.03411365,-0.00741286,0.00695214,0.00646558,0.99811796,0.05661575,0.00857380,0.02194740
1761620465404,-0.05077707,-0.00923026,-0.11215595,-0.00840914,0.00431861,0.00262560,0.99812006,0.05656950,0.00859755,0.02196185
1761620465415,0.00983338,-0.03823496,0.08194486,-0.01429269,0.01243406,0.00419505,0.99812356,0.05648732,0.00866905,0.02198597
1761620465427,-0.08119480,-0.00161729,0.05452027,-0.03104477,-0.00002499,0.00942763,0.99813276,0.05630260,0.00866890,0.02204206
1761620465438,0.07200370,-0.09146709,-0.05144980,-0.03459958,0.00382866,0.00888196,0.99814230,0.05611057,0.00869015,0.02209136
1761620465450,0.04257129,-0.00653082,-0.00774023,-0.03723210,0.01102944,-0.00076916,0.99815346,0.05590393,0.00875136,0.02208709
1761620465460,0.13897943,-0.00271327,0.15743998,-0.03345264,0.02735125,0.00393235,0.99816171,0.05572496,0.00889769,0.02210813
1761620465472,0.03229051,0.07482240,0.15863750,-0.02295505,0.00791310,0.00901538,0.99816756,0.05559182,0.00894359,0.02216041
1761620465482,0.18451371,-0.17776360,-0.06116215,-0.02102102,0.02012543,0.00813050,0.99817168,0.05548462,0.00904623,0.02220188
1761620465493,-0.05524851,0.10683271,-0.23042107,-0.02105172,0.00833916,-0.00335091,0.99817810,0.05536883,0.00909209,0.02218345
1761620465504,-0.17924805,0.08648379,-0.03578171,-0.03927036,-0.00071218,-0.02582504,0.99819365,0.05514695,0.00908807,0.02203754
1761620465516,0.02499450,-0.04422657,-0.01352327,-0.04571434,0.01475220,-0.00648122,0.99820781,0.05489095,0.00917068,0.02200124
1761620465526,0.17316357,0.06846142,-0.06593099,-0.01426881,-0.00928363,0.01631415,0.99821050,0.05481533,0.00912148,0.02208771
1761620465537,0.17703871,0.14372081,0.08253380,-0.01633781,-0.00775403,-0.01021171,0.99821706,0.05472547,0.00907883,0.02203154
1761620465548,-0.10208263,-0.02912759,-0.02626364,-0.00147656,-0.02168126,-0.00709718,0.99821949,0.05471720,0.00895742,0.02199180
1761620465560,0.19224447,-0.02869745,0.04404284,-0.01615754,-0.00787183,0.01072040,0.99822366,0.05462349,0.00891176,0.02205398
1761620465572,0.08859192,-0.02236946,0.00000000,-0.01076774,-0.01797405,-0.00092756,0.99822812,0.05456104,0.00880751,0.02204860
1761620465583,0.17211418,-0.01036689,0.08561426,-0.01970406,-0.01255220,0.00316683,0.99823471,0.05444478,0.00873345,0.02206728
1761620465594,-0.05663966,0.20260422,-0.08832200,-0.03885825,-0.03110914,-0.00254634,0.99824740,0.05424272,0.00857168,0.02205404
1761620465605,-0.20013188,-0.02797170,-0.06660772,0.01012330,-0.02084531,-0.02238343,0.99824806,0.05429789,0.00845808,0.02193205
1761620465616,-0.07317000,-0.00577481,0.09301719,0.00619051,-0.01015331,-0.01882837,0.99824899,0.05433349,0.00839970,0.02182379
1761620465627,0.05003106,-0.06439947,-0.00411214,0.00300344,0.00379847,-0.02173564,0.99825052,0.05435000,0.00842059,0.02170424
1761620465639,-0.08858665,0.06937625,0.06383449,-0.01783519,-0.00559120,-0.01091066,0.99825810,0.05424210,0.00838676,0.02163823
1761620465650,0.30783262,0.06974481,-0.04522605,-0.00106919,0.00486786,-0.02383017,0.99826082,0.05423665,0.00841159,0.02151670
1761620465688,-0.17719732,-0.00528148,0.11101362,0.00229442,-0.00327904,-0.00820191,0.99826235,0.05428128,0.00834781,0.02135717
1761620465707,0.84892686,0.04502668,-0.53759201,-0.02975991,-0.04913497,-0.04478653,0.99828961,0.05400748,0.00789577,0.02094514
1761620465718,-0.37963584,-0.14224723,0.44260548,-0.06461087,-0.04837009,0.00422625,0.99831073,0.05364566,0.00762489,0.02096880
1761620465727,-0.29347091,-0.02837309,0.07821488,-0.00871548,-0.04233194,-0.01331445,0.99831580,0.05360426,0.00742382,0.02090556
1761620465738,-0.26132429,0.00196335,-0.10698817,0.01283206,-0.03283941,-0.01009367,0.99831455,0.05367163,0.00725141,0.02085257
1761620465749,-0.05108555,0.06066236,0.31491698,-0.00081246,-0.03464045,-0.02068695,0.99831856,0.05366712,0.00705916,0.02073776
1761620465760,-0.10927929,-0.00368306,-0.04246516,-0.01354333,-0.03405978,-0.01702587,0.99832594,0.05359128,0.00686842,0.02064241
1761620465772,0.09943127,-0.00050491,0.01617274,0.00385513,-0.01663837,-0.01693768,0.99832744,0.05361383,0.00677109,0.02054333
1761620465782,0.18344591,-0.05480939,-0.11610798,0.00108475,-0.02735376,0.00338118,0.99832773,0.05361937,0.00663158,0.02056057
1761620465794,-0.13674007,0.01538204,0.00818103,0.00352562,-0.02704076,0.01056051,0.99832635,0.05364052,0.00646934,0.02062393
1761620465796,47.91414018,-3.08405542,-25.81222057,0.00420449,-0.20627749,0.07839866,0.99832601,0.05364325,0.00633526,0.02067489
1761620465806,-6.38273503,0.47362170,3.39146847,-0.00916882,-0.04524644,-0.00780142,0.99833073,0.05359695,0.00610676,0.02063549
1761620465817,0.04840751,-0.07224647,0.02013410,0.01258793,-0.03096839,0.00629126,0.99832717,0.05366933,0.00592870,0.02067167
1761620465827,0.07973142,-0.25221056,0.02933515,-0.00753870,-0.01152941,0.01593158,0.99832792,0.05362975,0.00586817,0.02075531
1761620465838,-0.15067606,0.05326406,0.10045070,-0.05252002,-0.02146308,-0.00157077,0.99834396,0.05334614,0.00575227,0.02074683
1761620465850,0.03378948,0.01882400,0.00197105,0.00187493,-0.00917490,-0.00723253,0.99834454,0.05335664,0.00570089,0.02070633
1761620465861,0.06709224,0.09343631,0.07063031,-0.00422130,-0.00430303,-0.00403571,0.99834644,0.05333258,0.00567636,0.02068332
1761620465872,0.10263308,0.06907427,0.03786881,-0.01885113,-0.00256084,-0.01834241,0.99835400,0.05323079,0.00566253,0.02058427
1761620465883,0.09723134,0.01682948,0.11822678,-0.03203683,-0.00176715,-0.03094939,0.99836740,0.05304818,0.00565246,0.02040786
1761620465894,-0.08697421,0.06809768,-0.03290916,-0.02424384,-0.02539703,-0.02060674,0.99837756,0.05291484,0.00551277,0.02029452
1761620465905,-0.18915854,-0.04414931,-0.02364482,-0.00680358,-0.01218642,-0.02047549,0.99838220,0.05287742,0.00544575,0.02018191
1761620465917,0.05399673,0.05435169,0.09809115,-0.01109807,0.00185168,0.00751022,0.99838479,0.05280972,0.00545704,0.02022772
1761620465929,-0.10317261,-0.02104606,-0.12897315,0.01123393,-0.02330285,-0.00239497,0.99838238,0.05287431,0.00532305,0.02021395
1761620465940,0.13737140,0.07620735,0.14273314,0.00899563,-0.02082049,0.00401766,0.99837978,0.05292649,0.00520229,0.02023725
1761620465950,0.10546313,-0.12609350,0.07567322,0.01414213,-0.05206286,-0.00683260,0.99837807,0.05299578,0.00494719,0.02020377
1761620465962,-0.09883423,0.10214341,-0.16399966,0.00140733,-0.03409176,-0.03593719,0.99838264,0.05300366,0.00475627,0.02000253
1761620465972,-0.16339718,0.00048923,-0.02833606,0.01340439,-0.04013005,-0.00646309,0.99838052,0.05307538,0.00454158,0.01996795
1761620465983,0.05238130,-0.00277058,0.03362184,0.01373564,-0.01465830,-0.00364651,0.99837732,0.05314955,0.00446242,0.01994826
1761620465995,-0.02992438,-0.02484880,0.17429640,0.01240218,-0.02431982,0.00619769,0.99837339,0.05322148,0.00432137,0.01998420
1761620466006,-0.11576166,0.07973066,-0.01489437,0.01531528,-0.02061198,0.00498368,0.99836854,0.05331108,0.00420079,0.02001336
1761620466017,0.01042925,-0.00765492,-0.01825932,0.03966926,-0.00775923,0.00108608,0.99835672,0.05353323,0.00415733,0.02001944
1761620466028,-0.03409819,-0.05907254,-0.00859759,0.03520219,-0.00332251,0.01177599,0.99834604,0.05371100,0.00414056,0.02007891
1761620466039,-0.15551525,-0.09171382,-0.02265735,0.03095406,-0.00014894,-0.01065001,0.99833790,0.05388434,0.00413972,0.02001927
1761620466050,0.00141648,-0.08478934,0.15729316,0.01182644,0.01143892,0.00875350,0.99833295,0.05395234,0.00420550,0.02006960
1761620466062,-0.13475833,-0.25642190,-0.16067339,0.00406180,-0.00789762,0.00800068,0.99833086,0.05397671,0.00415811,0.02011761
1761620466083,-0.02379765,0.05760152,-0.00971555,-0.00435851,-0.00143454,0.00222074,0.99833292,0.05393117,0.00414312,0.02014081
1761620466095,0.22998293,-0.55381979,0.22445547,-0.02015365,-0.00367898,0.00651250,0.99833855,0.05381427,0.00412178,0.02017858
1761620466107,-0.06049450,0.48195579,-0.07344102,-0.00664851,0.01005265,-0.00115952,0.99834057,0.05377472,0.00418159,0.02017169
1761620466117,0.04720221,0.02888623,0.13336171,-0.01927052,0.02204811,0.01285632,0.99834426,0.05367065,0.00430065,0.02024111
1761620466129,-0.16894741,0.07522119,-0.08700791,-0.02680444,0.01741310,0.00193762,0.99835167,0.05352055,0.00439817,0.02025196
1761620466141,-0.07141833,0.06537805,0.11509518,-0.02947400,0.01551692,-0.00323018,0.99836120,0.05334223,0.00449204,0.02023242
1761620466152,0.04872265,-0.00754574,0.11392503,-0.02990082,0.05835834,-0.00771451,0.99836933,0.05317778,0.00481302,0.02018999
1761620466174,-0.03124240,0.09153130,-0.13365978,-0.01821733,0.02329948,0.00682135,0.99837727,0.05297557,0.00507164,0.02026570
1761620466183,-0.07887193,0.09035823,0.35243674,-0.01445951,0.04811134,-0.00873853,0.99838046,0.05290905,0.00529295,0.02022551
1761620466213,0.03531359,-0.02281641,-0.13517297,0.00230360,0.00813803,0.00057039,0.99837780,0.05294361,0.00541502,0.02023406
1761620466241,0.03275457,0.04578363,0.24373270,0.00841003,0.02091079,-0.00438134,0.99837119,0.05306093,0.00570673,0.02017294
1761620466251,0.38968593,0.67320579,1.55246607,0.06732442,0.05039299,-0.00411936,0.99835237,0.05339418,0.00595617,0.02015255
1761620466263,-0.35923338,-0.20374484,-1.03816440,0.01236859,0.03223611,-0.00171294,0.99834744,0.05346839,0.00614959,0.02014228
1761620466285,-0.02824242,-0.22374063,-0.41542631,0.04066297,0.01134927,-0.00439869,0.99832358,0.05391569,0.00627443,0.02009389
1761620466295,0.21239253,0.16697711,0.45306047,0.04812286,0.02606989,0.00051098,0.99830926,0.05416352,0.00640869,0.02009652
1761620466306,-0.02694053,0.04632399,0.27466561,0.01154230,0.01940641,-0.02094723,0.99830742,0.05422758,0.00651640,0.01998026
1761620466317,0.01736277,0.11658495,-0.19773696,0.03989406,0.02035599,-0.01195170,0.99829584,0.05445099,0.00663039,0.01991333
1761620466328,0.06088364,-0.04754481,-0.05635752,0.05957417,0.01763303,-0.02395366,0.99828018,0.05477269,0.00672561,0.01978398
1761620466339,-0.09242127,-0.06143244,0.06302879,0.00735026,0.00796230,-0.03382697,0.99828129,0.05481164,0.00676781,0.01960470
1761620466350,-0.01305358,-0.18093236,0.02510303,-0.00986427,0.01420397,-0.01610398,0.99828555,0.05475640,0.00684735,0.01951452
1761620466362,0.02157671,-0.02791505,-0.21047470,-0.02290560,0.01008842,-0.01427444,0.99829440,0.05461782,0.00690839,0.01942816
1761620466374,0.07341247,-0.00016393,-0.27284815,-0.01217530,0.00481027,0.00450485,0.99829751,0.05454842,0.00693581,0.01945384
1761620466375,23.72661798,5.67943380,12.61663658,0.05342569,0.10562791,-0.08763490,0.99829614,0.05458582,0.00700974,0.01939249
1761620466386,-2.91169041,-0.70047773,-1.54366882,-0.00327327,0.00218373,-0.00306447,0.99829737,0.05456782,0.00702176,0.01937564
1761620466396,0.01819561,-0.11369500,0.64141523,0.00183706,-0.00895213,0.00180111,0.99829699,0.05457737,0.00697520,0.01938500
1761620466408,-0.01198877,-0.08741201,-0.04503098,0.00090378,-0.00764229,-0.00343425,0.99829738,0.05458243,0.00693241,0.01936577
1761620466419,-0.01900658,0.00760263,-0.08362897,-0.00391727,-0.00690763,0.00726199,0.99829806,0.05456050,0.00689372,0.01940644
1761620466430,-0.08820779,0.06618804,0.01068795,-0.00557233,-0.00901342,-0.00739790,0.99830099,0.05452846,0.00684190,0.01936390
1761620466440,0.01969545,0.09230945,0.01700028,-0.00061915,-0.00300398,0.00535239,0.99830075,0.05452536,0.00682688,0.01939066
1761620466452,0.03566289,-0.04913917,-0.06206464,0.00810507,-0.00252663,0.00175476,0.99829815,0.05457115,0.00681260,0.01940058
1761620466463,0.05591444,0.05707601,-0.23274955,0.00789309,-0.00594524,-0.00559659,0.99829648,0.05461772,0.00677753,0.01936756
1761620466475,0.12832819,0.06269795,0.10114350,0.00481526,0.00145057,-0.00150822,0.99829510,0.05464493,0.00678572,0.01935904
1761620466485,-0.06264349,-0.02255123,-0.14091030,0.01879017,-0.00242918,-0.00241408,0.99828998,0.05474452,0.00677285,0.01934624
1761620466496,-0.22132690,0.02454878,0.13654942,0.00637824,0.00687873,-0.00192397,0.99828799,0.05477992,0.00681102,0.01933556
1761620466508,-0.00387012,-0.01288023,-0.10836329,0.00729426,0.00367286,0.00629217,0.99828495,0.05482040,0.00683141,0.01937048
1761620466519,-0.01715729,-0.10055349,-0.10266980,0.03061165,0.00135712,0.00364594,0.99827507,0.05499182,0.00683901,0.01939090
1761620466530,0.14165779,-0.12434091,0.19521049,0.00672084,0.01030090,-0.00774212,0.99827347,0.05502879,0.00689566,0.01934832
1761620466541,-0.07932263,-0.08559653,-0.06522811,-0.02031402,-0.01097777,-0.03053936,0.99828373,0.05491198,0.00683254,0.01917272
1761620466552,0.07390200,0.03680409,0.01128275,-0.01954254,-0.01810279,-0.03182676,0.99829321,0.05480938,0.00673750,0.01900563
1761620466563,0.07070449,0.11949597,-0.26457164,-0.01497361,-0.01670002,-0.01644969,0.99830018,0.05472553,0.00664398,0.01891351
1761620466575,-0.02883213,0.04157115,-0.01767810,-0.00291965,-0.01431007,-0.00566478,0.99830233,0.05470816,0.00655884,0.01887980
1761620466586,0.09493985,0.11905529,-0.09551320,0.01075213,-0.01344658,-0.00449870,0.99830006,0.05476676,0.00648555,0.01885529
1761620466595,0.10386003,-0.25990670,0.21018840,0.02486461,-0.03393741,0.00284708,0.99829430,0.05488611,0.00632265,0.01886895
1761620466607,-0.15699270,0.06019032,0.02208414,-0.00510181,-0.02354122,-0.00292217,0.99829707,0.05485677,0.00618729,0.01885215
1761620466618,0.07403724,-0.12991171,-0.03974631,0.00213109,-0.02553497,0.00672095,0.99829658,0.05486882,0.00604302,0.01889012
1761620466630,-0.08596933,0.16197564,0.03534129,-0.02785457,-0.02718280,-0.00605931,0.99830732,0.05470308,0.00588128,0.01885407
1761620466641,0.12163504,-0.06465794,-0.03132773,-0.00249892,-0.02257386,-0.00144933,0.99830895,0.05468934,0.00575712,0.01884610
1761620466652,0.01488236,-0.01408305,-0.01780254,0.00612179,-0.00550945,-0.00343614,0.99830762,0.05472331,0.00572655,0.01882703
1761620466664,-0.15179176,0.02859786,-0.08873031,-0.00270373,-0.02311449,0.00082144,0.99830918,0.05470736,0.00559017,0.01883188
1761620466718,-0.05191627,0.00693696,-0.02355823,-0.00082603,-0.00115380,-0.00238702,0.99831181,0.05468485,0.00555873,0.01876683
1761620466761,0.06994585,0.00815428,0.00796075,0.00000757,0.01039021,-0.02402805,0.99832004,0.05468501,0.00578004,0.01825503
1761620466789,0.01610534,0.13530019,-0.05531836,0.02255412,-0.01108390,-0.01321609,0.99830708,0.05499739,0.00562653,0.01807199
1761620466818,0.02374549,-0.02408481,-0.03030374,0.03330745,-0.01981747,-0.00835460,0.99828380,0.05548701,0.00533521,0.01794918
1761620466830,0.32285574,0.04498444,-0.30401514,0.04612864,-0.02089166,-0.02028056,0.99827133,0.05576147,0.00521091,0.01782851
1761620466852,-0.25459514,-0.13927140,0.07616215,0.01008178,0.00138258,-0.01991765,0.99826895,0.05587187,0.00522605,0.01761041
1761620466874,0.00274354,0.00374441,-0.01903249,0.00492020,-0.00280036,-0.00648526,0.99826732,0.05592648,0.00519496,0.01753842
1761620466885,0.24262494,0.04924197,-0.33239541,-0.01279790,-0.00158562,-0.03284658,0.99827421,0.05585865,0.00518656,0.01736434
1761620466899,-0.16317377,-0.09441002,0.09876530,-0.01283092,-0.00793242,-0.00263689,0.99828008,0.05576499,0.00512865,0.01734509
1761620466909,-0.04890170,0.02799393,-0.14133204,-0.00891825,-0.00647734,0.00167674,0.99828254,0.05572129,0.00509691,0.01735330
1761620466919,-0.13272931,-0.12653567,-0.28552112,0.01957699,-0.01013902,-0.00014092,0.99827755,0.05581526,0.00504825,0.01735263
1761620466930,-0.00398664,0.10763457,0.25278228,-0.01067204,-0.00174193,-0.00578138,0.99828164,0.05575336,0.00503814,0.01731909
1761620466941,-0.02899367,-0.07042122,-0.18005135,-0.01806119,0.00211077,-0.00496114,0.99828754,0.05565493,0.00504965,0.01729206
1761620466952,-0.14575075,-0.03852697,-0.17830944,0.00428773,-0.01268344,-0.01081175,0.99828761,0.05567872,0.00497925,0.01723205
1761620466963,-0.07096996,0.08816437,-0.01725433,-0.00282039,-0.00023300,-0.02862682,0.99829118,0.05566321,0.00497797,0.01707460
1761620466974,-0.09608446,-0.16368397,-0.09900464,-0.00725877,-0.00894596,-0.01649193,0.99829524,0.05562292,0.00492832,0.01698307
1761620466986,0.04966832,0.05458323,0.22601038,-0.05277918,0.00402597,-0.00333466,0.99831157,0.05533264,0.00495046,0.01696473
1761620466997,-0.13127883,-0.05954672,-0.01351150,-0.06536700,0.00737934,0.02423175,0.99832943,0.05496332,0.00499216,0.01710164
1761620467008,0.03061582,-0.05631917,0.01349653,-0.03994895,0.01354513,0.04090407,0.99833718,0.05474559,0.00506598,0.01732457
1761620467019,-0.10431564,0.08850009,0.12483791,-0.02511189,0.03366313,-0.00087887,0.99834393,0.05460622,0.00525281,0.01731969
1761620467030,-0.06931410,0.02604951,-0.09945066,-0.00933929,0.02345329,0.01948934,0.99834419,0.05455392,0.00538415,0.01742883
1761620467041,-0.04455344,0.06531707,-0.05818156,0.00816514,0.00769647,-0.00417739,0.99834182,0.05460046,0.00542802,0.01740502
1761620467052,0.02738999,0.09636444,0.07604418,0.00556481,0.02542761,-0.00162837,0.99833955,0.05463079,0.00556660,0.01739615
1761620467063,-0.06710211,-0.03370810,-0.00773699,0.01434194,0.02146854,0.01228914,0.99833339,0.05470967,0.00568467,0.01746374
1761620467074,-0.02659826,0.11480615,0.10857438,0.01587155,0.03961283,0.02082543,0.99832525,0.05479776,0.00590453,0.01757932
1761620467086,0.03493102,-0.06447737,-0.11479291,0.00702259,0.02037738,0.03489812,0.99831895,0.05483709,0.00601864,0.01777475
1761620467097,-0.02856662,-0.06270344,0.00786237,0.00288857,0.02993832,0.01826421,0.99831514,0.05485355,0.00618929,0.01787885
1761620467108,0.05188464,-0.11157198,0.13644726,0.00605060,0.03101567,0.01414302,0.99831077,0.05488743,0.00636297,0.01795805
1761620467120,0.04075330,-0.09144103,-0.01664202,-0.00652140,0.03519278,0.01334966,0.99831014,0.05485026,0.00656357,0.01803415
1761620467131,0.02508088,-0.05371791,0.06407801,-0.03669238,0.02885903,0.00330259,0.99832026,0.05463928,0.00672951,0.01805314
1761620467142,0.03438835,0.20144603,0.04020092,-0.02181888,0.01813468,-0.00423669,0.99832674,0.05451600,0.00683197,0.01802920
1761620467153,0.04311787,-0.02376211,-0.15286600,0.02142988,0.01072340,0.02325409,0.99831766,0.05463280,0.00689042,0.01815593
1761620467166,0.22415021,0.10153307,-0.20158400,0.01638230,0.01287452,-0.00036082,0.99831153,0.05473519,0.00697088,0.01815368
1761620467176,0.04987040,0.03994547,-0.05466698,-0.03165371,0.01083779,-0.01049655,0.99832114,0.05457059,0.00702724,0.01809910
1761620467187,0.09777140,-0.15223478,-0.00408061,-0.01498942,-0.00460535,-0.00060883,0.99832571,0.05449114,0.00700283,0.01809587
1761620467198,-0.22318478,-0.08972439,0.45104989,-0.02794245,-0.02650354,0.00153918,0.99833544,0.05432908,0.00684911,0.01810480
1761620467209,0.22302078,-0.15272771,0.10902263,-0.02577047,-0.00614592,0.00781811,0.99834234,0.05419249,0.00681654,0.01814623
1761620467221,-0.08590097,0.05393663,-0.01715391,-0.04724839,-0.04939038,0.02291810,0.99835679,0.05391609,0.00652760,0.01828030
1761620467230,0.10215362,-0.12196454,-0.05094414,0.00402828,-0.02849223,0.01069441,0.99835569,0.05393543,0.00639084,0.01833164
1761620467241,0.08687234,0.18711887,0.09811464,-0.00966211,-0.03715914,0.01836758,0.99835794,0.05388325,0.00619018,0.01843082
1761620467253,0.00217002,0.20185685,0.18668861,-0.02813322,-0.03428043,0.00210598,0.99836764,0.05372149,0.00599307,0.01844293
1761620467263,-0.50935826,-0.40984178,0.16067732,0.02480876,-0.03558237,0.00027639,0.99836147,0.05385669,0.00579914,0.01844444
1761620467299,0.08033373,0.08937989,0.03233443,-0.00310142,-0.00099120,0.00271780,0.99836367,0.05380102,0.00578135,0.01849322
1761620467309,-0.12793581,-0.19878751,-0.35756146,0.00046490,-0.01671307,-0.00444290,0.99836444,0.05380335,0.00569779,0.01847101
1761620467312,-1.59210314,0.71556581,-2.65350523,0.06941600,-0.00875575,-0.02671172,0.99835980,0.05390400,0.00568509,0.01843228
1761620467331,0.32912650,0.02380072,0.52124601,0.00964978,0.00619885,-0.00497571,0.99835538,0.05399567,0.00574398,0.01838501
1761620467342,-0.04047240,0.03527176,-0.14161117,0.01708676,0.01014376,-0.00557518,0.99835058,0.05408880,0.00579926,0.01835462
1761620467353,-0.03539758,-0.05287841,0.07595658,0.01251522,0.00168166,-0.00661054,0.99834740,0.05415888,0.00580868,0.01831760
1761620467355,0.55879354,-1.01946560,-6.75874097,0.00537941,0.05327176,0.00878272,0.99834679,0.05416318,0.00585130,0.01832463
1761620467365,-0.05899225,0.27138190,0.87757993,-0.00651025,0.01526573,-0.00336616,0.99834847,0.05412966,0.00592992,0.01830729
1761620467376,-0.00951772,0.07994978,0.03634040,-0.01420939,0.01691424,0.01143141,0.99835090,0.05405435,0.00601956,0.01836788
1761620467388,0.02196690,-0.05343860,0.07537266,-0.00018144,-0.00082012,0.00788880,0.99835008,0.05405321,0.00601444,0.01841718
1761620467399,0.07959919,0.05051011,0.19005182,-0.00539275,0.02018754,-0.00581440,0.99835156,0.05402436,0.00612244,0.01838608
1761620467410,-0.08503532,-0.05401406,-0.07702360,0.01344029,0.00800731,0.00159288,0.99834729,0.05409560,0.00616488,0.01839452
1761620467421,0.07404338,-0.04152675,-0.00153344,0.01804806,0.00836071,0.00536694,0.99834102,0.05419576,0.00621128,0.01842431
1761620467443,0.01257788,0.02057512,0.05418164,0.00473120,0.00899709,0.00520620,0.99833647,0.05424828,0.00631115,0.01848210
1761620467454,-0.15610797,0.03867201,-0.08449829,0.02335960,0.01201558,0.00805728,0.99832846,0.05437325,0.00637543,0.01852520
1761620467465,-0.09226186,-0.07580152,0.08100002,0.00537435,0.01842954,-0.00386168,0.99832656,0.05440335,0.00647864,0.01850358
1761620467476,-0.34810654,-0.10346288,-0.01415227,0.00542230,0.02042771,0.02114638,0.99832187,0.05443426,0.00659508,0.01862411
1761620467478,-34.66160544,-6.27690741,-0.61461288,0.03271038,0.14837328,0.03173229,0.99831952,0.05445715,0.00669894,0.01864632
1761620467498,2.59570383,0.43065123,0.07568653,-0.00372392,0.01029152,-0.00100026,0.99832103,0.05442010,0.00680134,0.01863637
1761620467499,-20.32801268,-10.83954229,0.75186384,-0.26713592,0.26019443,-0.03502443,0.99833107,0.05421975,0.00699648,0.01861010
1761620467510,2.96234061,1.55455897,0.02276801,-0.04268499,0.04995638,0.03404330,0.99833813,0.05399138,0.00726375,0.01879223
1761620467521,-0.14462732,0.05352182,-0.40577871,0.02690788,0.02890570,0.03689991,0.99832451,0.05414610,0.00742996,0.01900441
1761620467531,0.13234694,0.20438566,-0.14608566,0.10393832,0.01184428,0.01568512,0.99829395,0.05467099,0.00748977,0.01908362
1761620467542,0.00390179,0.04176007,0.16840105,-0.02307299,0.01452187,-0.02530248,0.99830294,0.05454409,0.00756964,0.01894445
1761620467554,-0.02134753,-0.15398888,-0.00613742,-0.02020913,0.02691615,0.02089449,0.99830578,0.05442890,0.00772306,0.01906355
1761620467565,-0.00366911,-0.03904159,-0.28619035,-0.01282652,0.02181315,-0.00118537,0.99830892,0.05435579,0.00784740,0.01905680
1761620467577,0.07825288,0.03175211,0.04531347,0.02904255,0.03394496,-0.01938302,0.99830001,0.05453004,0.00805107,0.01894050
1761620467589,-0.13245477,0.03052668,-0.11920929,0.00715689,0.00438085,-0.03321739,0.99830121,0.05457298,0.00807735,0.01874119
1761620467600,0.06433517,0.08050344,0.21625268,0.02168405,0.01217070,-0.00072093,0.99829454,0.05468683,0.00814125,0.01873741
1761620467609,0.24933987,-0.04388772,0.06120073,0.02610634,0.00186201,0.02323767,0.99828540,0.05481344,0.00815028,0.01885011
1761620467621,-0.02140291,-0.12135313,0.10909740,-0.00921522,0.00538979,0.00595258,0.99828744,0.05475953,0.00818181,0.01888493
1761620467671,0.01205070,-0.00674367,0.04401125,-0.00724492,-0.00058161,0.00406098,0.99829547,0.05458022,0.00816742,0.01898544
1761620467699,-0.03777292,0.03974983,-0.23472263,-0.00073806,0.00080852,0.01220256,0.99829259,0.05456956,0.00817910,0.01916177
1761620467710,-0.59115272,0.00996422,-0.55258867,-0.04204685,0.06788044,0.02483819,0.99829907,0.05435091,0.00853208,0.01929093
1761620467732,0.22982543,-0.03202150,0.35098987,0.03648657,0.03898201,0.01790496,0.99826929,0.05475591,0.00896478,0.01948967
1761620467755,-0.01448923,-0.06400370,0.09778977,-0.03305711,0.01655799,-0.00514342,0.99828923,0.05438071,0.00915271,0.01943130
1761620467766,-0.01872675,-0.18424587,-0.19829069,-0.02008376,0.03669062,0.02617922,0.99829062,0.05426523,0.00936368,0.01958183
1761620467778,0.03041399,-0.15487938,-0.01010718,-0.02586894,0.01835926,0.01555983,0.99829598,0.05411519,0.00947017,0.01967207
1761620467789,-0.02919270,-0.01038269,0.05471545,-0.03879802,0.02171543,-0.02010447,0.99830867,0.05389986,0.00959069,0.01956049
1761620467798,-0.14384486,0.20392848,-0.13061228,-0.02052090,0.03475884,0.00622578,0.99831175,0.05380239,0.00975579,0.01959007
1761620467810,0.18424208,0.15308500,0.21323593,-0.03152617,0.02517940,0.02570051,0.99831736,0.05361481,0.00990561,0.01974298
1761620467851,0.03416939,0.02202809,0.05677549,-0.00450631,0.00936996,-0.00137600,0.99832090,0.05352378,0.01009488,0.01971519
1761620467878,-0.01162689,0.01739598,-0.28630895,0.00021037,0.01668721,0.00532675,0.99831693,0.05352668,0.01032516,0.01978870
1761620467889,1.62624939,-0.79503170,-0.73578236,-0.02208089,-0.14850001,0.01287949,0.99832967,0.05340966,0.00953811,0.01985696
1761620467911,-0.49545871,0.16210375,0.57226103,-0.04527790,-0.05488344,-0.01431732,0.99836410,0.05292292,0.00894812,0.01970305
1761620467932,-0.09077700,0.21603057,0.04332539,0.01627871,-0.03064781,-0.00390465,0.99835854,0.05309791,0.00861865,0.01966107
1761620467943,0.13075787,0.04335259,-0.33904064,0.00049918,-0.02591979,-0.00950779,0.99836058,0.05310059,0.00847998,0.01961021
1761620467954,-0.01324290,-0.20144512,0.21114511,-0.01170539,-0.01152705,-0.01053779,0.99836591,0.05303328,0.00841370,0.01954962
1761620467966,0.05874081,-0.05843937,-0.08177642,-0.03831338,-0.00967572,-0.00366515,0.99837901,0.05280340,0.00835565,0.01952762
1761620467976,0.13107980,-0.14626885,-0.05866509,-0.03734474,-0.00445863,-0.01304246,0.99839056,0.05261294,0.00833291,0.01946111
1761620467987,-0.11735562,-0.00922354,0.01752936,-0.04595287,-0.01718347,-0.00409111,0.99840520,0.05235790,0.00823754,0.01943840
1761620467999,-0.14706446,-0.06585247,0.27090821,-0.03536179,-0.00232507,-0.00959269,0.99841661,0.05216164,0.00822464,0.01938516
1761620468010,-0.08127246,0.08744046,0.04644141,-0.04756728,-0.01513738,0.00438824,0.99843059,0.05189765,0.00814062,0.01940952
1761620468011,11.58363916,-11.49430876,-7.86002692,-0.21770400,-0.12841045,-0.07636538,0.99844164,0.05172348,0.00803790,0.01934842
1761620468021,-1.82125304,1.90751943,1.20767581,-0.01343915,0.00011682,0.01016005,0.99844418,0.05165494,0.00803849,0.01940024
1761620468033,0.02489556,0.16680427,0.16182116,-0.01163407,-0.00025846,-0.01562247,0.99844930,0.05158921,0.00803703,0.01931197
1761620468044,-0.19634266,-0.05840311,-0.07428239,-0.00802684,0.00341374,0.00503021,0.99845089,0.05154506,0.00805581,0.01933964
1761620468055,-0.09063847,0.08737499,0.05517124,-0.03751538,0.01593075,0.02120990,0.99845855,0.05133873,0.00814343,0.01945629
1761620468067,0.08725685,0.09589134,0.05743342,-0.00237246,-0.00154394,0.02088831,0.99845688,0.05132426,0.00813401,0.01958371
1761620468078,0.00060272,0.14629767,0.03102438,-0.00598447,0.00544499,-0.00230693,0.99845859,0.05129104,0.00816423,0.01957091
1761620468089,-0.11610352,0.07903505,-0.04644141,0.01638928,0.01171162,-0.01270969,0.99845476,0.05138200,0.00822923,0.01950037
1761620468100,-0.00802959,-0.05718796,0.11301459,0.03788721,0.01485648,0.01157110,0.99844244,0.05158470,0.00830871,0.01956228
1761620468112,0.06513724,-0.03947804,-0.03427315,0.04734913,0.00777330,0.01112552,0.99842588,0.05187116,0.00835574,0.01962959
1761620468133,-0.01177837,-0.02175179,0.02791717,0.02169053,0.00303053,-0.00254404,0.99841412,0.05210217,0.00838801,0.01960249
1761620468143,0.30575314,0.13569958,0.26546115,0.01693296,0.00137268,0.00203530,0.99840948,0.05218598,0.00839481,0.01961257
1761620468145,2.08672127,6.53709801,6.61773498,-0.05185106,0.05791079,0.05332695,0.99841060,0.05213673,0.00844982,0.01966323
1761620468156,-0.41861966,-1.10028510,-1.20509651,0.01551148,0.01619545,0.00495325,0.99840511,0.05221816,0.00853485,0.01968923
1761620468167,0.19985181,-0.00528764,-0.15898864,0.05136613,0.02058183,-0.00473578,0.99838913,0.05251352,0.00865319,0.01966200
1761620468178,-0.04950775,0.13409330,-0.13407293,0.04670732,0.01838271,-0.00776155,0.99837592,0.05276340,0.00875154,0.01962048
1761620468189,-0.11661665,0.06162721,0.04164880,0.03184406,0.00822201,0.00524619,0.99836596,0.05293377,0.00879553,0.01964854
1761620468200,-0.01456579,-0.00854630,-0.03076580,0.03478141,0.00452897,-0.00673361,0.99835613,0.05312854,0.00882089,0.01961084
1761620468211,-0.11639443,-0.12735039,-0.09500150,0.03883435,0.00093198,-0.04499241,0.99834953,0.05334213,0.00882602,0.01936338
1761620468222,0.01576321,0.00412553,0.07881606,0.00671005,0.01445138,-0.03103920,0.99835015,0.05337904,0.00890550,0.01919266
1761620468233,0.03064738,-0.05444980,-0.08489488,0.01419921,0.00055464,0.01068976,0.99834456,0.05346068,0.00890869,0.01925413
1761620468245,-0.01442230,-0.01216881,-0.02163344,0.02521654,-0.01577193,-0.01624004,0.99833939,0.05360568,0.00881800,0.01916075
1761620468256,-0.06987812,-0.00740947,-0.11800609,0.00179413,-0.02241560,-0.01142533,0.99834118,0.05361572,0.00869247,0.01909677
1761620468268,-0.15026381,-0.32720918,-0.06608240,0.01431798,0.01161535,0.01490169,0.99833430,0.05370092,0.00876158,0.01918543
1761620468278,-0.02861677,-0.13596401,-0.01099324,-0.00535674,0.00633025,0.01902695,0.99833357,0.05367199,0.00879577,0.01928818
1761620468289,-0.01814120,-0.02601790,0.15377968,-0.04055538,-0.00165759,0.01570756,0.99834347,0.05345907,0.00878707,0.01937064
1761620468300,0.11502810,-0.04917984,-0.02344213,-0.01645202,0.00037681,0.00848889,0.99834725,0.05337188,0.00878906,0.01941563
1761620468311,0.00415993,0.16280214,-0.07157951,-0.01719398,0.00079288,0.00866779,0.99835141,0.05327559,0.00879350,0.01946417
1761620468323,0.05251763,-0.04607449,0.04153355,-0.00232967,0.01339153,0.01345721,0.99834984,0.05326138,0.00887519,0.01954626
1761620468335,-0.02207536,0.00789521,-0.04798487,-0.00569538,0.01169995,0.01260458,0.99834956,0.05322835,0.00894305,0.01961937
1761620468368,-0.02774654,0.02836445,0.06691989,-0.00341740,0.00161403,0.00325769,0.99835128,0.05317162,0.00896984,0.01967345
1761620468370,-6.72534069,-25.72384253,-33.73810283,-0.06008937,0.31499446,0.03942444,0.99835085,0.05311453,0.00926909,0.01971090
1761620468390,0.60190259,2.34479025,3.08314585,-0.01855354,0.01365671,0.00734949,0.99835815,0.05292436,0.00940907,0.01978623
1761620468400,0.24007927,-0.21876477,-0.29922098,-0.00368037,0.01939870,-0.00014807,0.99835822,0.05290614,0.00950509,0.01978550
1761620468402,4.16148793,-5.16383561,-5.12479532,-0.00737557,0.07471384,-0.02544867,0.99835840,0.05289877,0.00957981,0.01976005
1761620468412,-0.84877014,1.13658607,1.21116638,-0.04205866,0.00380885,-0.01418754,0.99837074,0.05268847,0.00959885,0.01968911
1761620468424,0.01334062,-0.01292936,0.03569518,-0.01392250,0.00967663,-0.02463043,0.99837720,0.05260842,0.00965449,0.01954749
1761620468434,-0.02215815,0.22942414,-0.03664911,-0.00554380,0.01197819,-0.01944576,0.99838009,0.05257959,0.00971678,0.01944637
1761620468455,-0.01501760,0.04808854,0.08321751,-0.00001400,0.00016717,0.00422570,0.99837920,0.05257944,0.00971857,0.01949158
1761620468457,12.96714364,14.56513432,-16.30075621,0.05660333,-0.05535827,0.04025085,0.99837662,0.05262472,0.00967428,0.01952378
1761620468467,-1.99927541,-1.91709886,1.95180069,0.01696032,-0.01362796,0.00405966,0.99837228,0.05271207,0.00960410,0.01954469
1761620468479,-0.02147508,0.05734703,0.00514049,0.01936229,-0.01506933,0.00163519,0.99836695,0.05282534,0.00951594,0.01955426
1761620468490,0.17107168,-0.04197192,0.06666764,0.02340982,-0.00742302,0.00660473,0.99835993,0.05295175,0.00947586,0.01958992
1761620468501,0.04841114,-0.16530813,0.22602344,0.02837173,-0.01269133,0.00074498,0.99835250,0.05310212,0.00940859,0.01959387
1761620468512,-0.00040117,-0.12264444,0.05201850,0.00486678,-0.00700341,0.00505705,0.99835081,0.05313035,0.00936797,0.01962320
1761620468524,-0.03765632,-0.00769633,-0.02528439,-0.00455629,-0.01069838,0.00542596,0.99835219,0.05310370,0.00930539,0.01965494
1761620468535,-0.09483231,0.01837935,-0.03085813,0.00718722,0.00234248,-0.00607622,0.99835056,0.05314466,0.00931874,0.01962031
1761620468546,0.00183069,0.10729964,-0.03365659,0.00193969,0.01328797,0.00658344,0.99834862,0.05315523,0.00939116,0.01965619
1761620468557,0.00558781,0.02920769,-0.01918707,0.01895637,0.02568238,-0.00209446,0.99834171,0.05326329,0.00953755,0.01964425
1761620468568,0.12422911,-0.02097497,-0.11916346,0.02008863,0.02056928,-0.00366938,0.99833559,0.05336574,0.00964245,0.01962554
1761620468578,-0.12250078,-0.08230521,-0.02696798,0.02302140,0.01911319,-0.00761137,0.99832894,0.05348660,0.00974280,0.01958558
1761620468590,0.07193979,-0.14163414,-0.03193508,0.01680111,0.01976808,-0.00102901,0.99832276,0.05358321,0.00985646,0.01957966
1761620468601,-0.07335532,-0.09536049,0.00454615,-0.01275790,0.01179441,-0.00457471,0.99832647,0.05351112,0.00992310,0.01955381
1761620468612,0.10065730,-0.15451679,-0.01068563,-0.02664685,0.00332366,-0.00578206,0.99833483,0.05336323,0.00994155,0.01952172
1761620468623,0.00099314,-0.03441144,-0.01746551,-0.03445170,-0.01178233,-0.00658133,0.99834650,0.05317030,0.00987557,0.01948487
1761620468634,0.14194108,-0.04276160,-0.01985508,-0.02644938,-0.00323899,0.00060394,0.99835406,0.05303012,0.00985840,0.01948807
1761620468645,-0.00469497,0.05322131,-0.00613375,-0.01696062,-0.01588558,0.00977780,0.99835878,0.05293769,0.00977182,0.01954136
1761620468656,-0.00432443,0.09344885,0.05517140,-0.03429565,-0.01418810,-0.00060849,0.99836978,0.05274563,0.00969237,0.01953795
1761620468667,-0.34071264,-0.12944529,-0.04063611,-0.01377569,-0.01865770,-0.00401985,0.99837516,0.05267055,0.00959069,0.01951604
1761620468679,0.03317749,0.08272477,0.02469461,-0.02722747,-0.03135306,0.00384999,0.99838494,0.05250991,0.00940570,0.01953876
1761620468690,0.10276441,0.05699660,-0.00927779,-0.02739521,-0.01356544,-0.01827701,0.99839570,0.05235650,0.00932974,0.01943641
1761620468701,0.02256703,-0.07081623,-0.18645968,-0.00156709,-0.01223707,-0.02021241,0.99839909,0.05234749,0.00925937,0.01932018
1761620468713,0.11303668,0.03988026,0.18015728,-0.02279935,0.00799653,0.02026264,0.99840319,0.05221867,0.00930455,0.01943467
1761620468724,-0.04256492,0.02498126,-0.06164574,-0.00404987,-0.01386974,-0.01021442,0.99840629,0.05219539,0.00922480,0.01937594
1761620468734,0.16899875,-0.08913998,0.02157431,-0.01204304,0.00738984,0.00637030,0.99840854,0.05213336,0.00926286,0.01940874
1761620468745,-0.19661974,0.04346293,0.08556816,-0.01553598,0.00197410,0.01223509,0.99841156,0.05204869,0.00927362,0.01947542
1761620468758,0.07158823,-0.01049076,0.12939890,-0.00592222,0.00008995,0.00114021,0.99841336,0.05201138,0.00927419,0.01948261
1761620468768,0.57159175,0.07889668,0.03491969,-0.02498814,-0.00411406,0.00057415,0.99842013,0.05188394,0.00925320,0.01948553
1761620468779,-0.13800537,-0.08433608,-0.05702574,0.01377326,-0.00766723,-0.00923954,0.99841757,0.05195970,0.00921103,0.01943472
1761620468790,-0.20187831,-0.00194766,-0.04965196,0.01367261,0.00074495,-0.00576787,0.99841429,0.05203353,0.00921506,0.01940357
1761620468804,-0.29346033,0.12636260,0.06599544,-0.00293211,-0.00260281,0.00288873,0.99841513,0.05201315,0.00919697,0.01942365
1761620468859,-0.02906219,0.00937171,0.06606362,-0.00184464,-0.00040789,0.00348257,0.99841600,0.05196261,0.00918579,0.01951907
1761620468867,1.45137328,0.74883908,-4.35609743,0.09519911,0.09515072,-0.01950776,0.99839185,0.05238148,0.00960445,0.01943324
1761620468913,-0.27837792,-0.12643690,0.79373225,0.00197917,0.00799490,-0.00317383,0.99838912,0.05242651,0.00978634,0.01936103
1761620468925,0.55233363,-0.26659361,-1.23521320,-0.05813950,0.00259946,-0.00147342,0.99840725,0.05208058,0.00980181,0.01935226
1761620468946,-0.16472396,-0.01732914,0.53755344,-0.02398519,0.00247176,0.01298803,0.99841749,0.05182754,0.00982788,0.01948929
1761620468968,-0.09412564,0.03491449,0.09864910,-0.00439908,-0.01114801,0.00204085,0.99842075,0.05177937,0.00970581,0.01951164
1761620468979,0.17501557,-0.14827567,-0.55219871,0.02157918,-0.01092921,0.00235725,0.99841460,0.05190452,0.00964242,0.01952531
1761620469002,-0.13371706,0.12793765,0.27529801,0.00322721,-0.00438733,-0.00013232,0.99841318,0.05194164,0.00959197,0.01952379
1761620469013,0.09796113,-0.36159845,-0.77707328,0.00067989,0.00797634,0.02200883,0.99841041,0.05194510,0.00963265,0.01963603
1761620469024,-0.07615431,-0.04047218,0.11617701,-0.00340655,0.01334428,0.02601287,0.99840771,0.05192535,0.00971004,0.01978691
1761620469035,0.02098953,-0.06166581,0.07829225,-0.02080855,0.00904085,0.00345912,0.99841293,0.05180778,0.00976112,0.01980645
1761620469047,-0.07672640,-0.11210957,-0.08834788,-0.03923355,-0.00081005,0.00347336,0.99842446,0.05157826,0.00975639,0.01982677
1761620469058,0.02790881,0.02996329,-0.01475041,-0.07413504,0.00798813,-0.00298480,0.99844571,0.05116311,0.00980112,0.01981005
1761620469069,-0.13663629,0.00143158,0.25265967,-0.05970270,0.01857310,0.02626976,0.99845813,0.05084668,0.00989956,0.01994928
1761620469080,-0.15198094,-0.02374702,-0.06426377,-0.05825156,0.00896718,0.02029259,0.99847191,0.05052047,0.00994977,0.02006292
1761620469092,0.05707851,0.04856340,0.11339766,-0.08931614,0.01306683,-0.01060862,0.99849847,0.05000244,0.01002556,0.02000139
1761620469114,0.08974851,0.15334659,0.12803352,-0.04468546,0.00134047,-0.00100031,0.99852359,0.04949973,0.01004064,0.01999014
1761620469125,0.44914002,-0.76878349,-1.15205653,-0.11509736,-0.00557384,0.01129166,0.99855410,0.04886094,0.01000971,0.02005281
1761620469136,-0.29110405,0.69783466,0.84448468,-0.08856390,-0.00832209,0.00808893,0.99857654,0.04839155,0.00996560,0.02009568
1761620469148,0.15177426,0.13038423,0.15619619,-0.05252151,-0.01369354,0.01116449,0.99859062,0.04808955,0.00988686,0.02015987
1761620469159,0.06994423,0.00248997,-0.10128030,-0.01492207,-0.02111168,-0.00067572,0.99859588,0.04800599,0.00976864,0.02015609
1761620469171,0.36752293,0.00582623,-0.00691092,-0.02495881,-0.02414794,0.00390349,0.99860339,0.04786747,0.00963461,0.02017776
1761620469191,-0.20350015,0.03855840,0.16793592,0.00035623,-0.01065892,0.00288692,0.99860368,0.04787126,0.00952110,0.02020850
1761620469193,36.01967603,-11.22240977,-40.15718857,-0.18093490,-0.15359244,0.08046089,0.99861173,0.04769937,0.00937518,0.02028494
1761620469214,-3.38021151,1.02070914,3.70004117,-0.01629765,-0.00762130,0.00694873,0.99861902,0.04753151,0.00929668,0.02035651
1761620469224,0.40634828,-0.23490619,-0.50904778,-0.03904579,-0.01889796,0.00552888,0.99862879,0.04733237,0.00920031,0.02038471
1761620469235,-0.23754370,0.08279288,0.14436435,-0.01299886,-0.01569426,-0.00853502,0.99863416,0.04725763,0.00911006,0.02033563
1761620469248,-0.03289946,0.06313889,0.00706529,-0.00650790,-0.00750839,-0.02433094,0.99863955,0.04721728,0.00906351,0.02018478
1761620469259,0.14657245,-0.13093735,-0.20911680,-0.01198794,-0.00379288,0.00367582,0.99864245,0.04715135,0.00904265,0.02020500
1761620469269,-0.03040128,-0.27205265,0.12268538,-0.03032345,-0.00929487,-0.00537127,0.99865104,0.04699063,0.00899339,0.02017653
1761620469280,0.02337165,-0.03741368,0.12264330,-0.05573764,-0.00920016,0.00030165,0.99866557,0.04668965,0.00894371,0.02017816
1761620469282,22.71897151,-29.30707317,-26.84844363,-0.44625709,-0.06461806,-0.03763332,0.99868437,0.04631033,0.00888878,0.02014617
1761620469292,-3.51039941,4.62339552,4.15546214,-0.07159715,-0.01624505,-0.01786025,0.99870456,0.04593086,0.00880268,0.02005151
1761620469304,-0.00175251,0.11319808,0.01657579,-0.06467974,-0.02219346,-0.00928901,0.99872312,0.04557189,0.00867951,0.01999996
1761620469314,0.15967630,-0.04796463,-0.02641790,-0.06258783,-0.01817646,-0.00587860,0.99873950,0.04524331,0.00858408,0.01996909
