UnixTime(ms),Ax,Ay,Az,Gx,Gy,Gz,QuatW,QuatX,QuatY,QuatZ
1756342053990,0.00000000,0.00000000,0.00000000,0.00000000,0.00000000,0.00000000,0.98540603,0.16692227,0.03270263,0.00651605
1756342053997,0.35298275,1.75054151,-0.52430012,0.04992933,0.04302256,-0.01849408,0.98537085,0.16710201,0.03285751,0.00644948
1756342054008,-0.16944951,-0.78357248,0.08143945,0.04960064,0.03118097,-0.00879566,0.98531960,0.16737234,0.03302744,0.00640154
1756342054019,-0.13043050,-0.38224593,0.00785547,0.02819761,0.04282428,-0.00221401,0.98528477,0.16753024,0.03326726,0.00638914
1756342054030,-0.04656613,-0.03278636,-0.08743028,0.01271329,0.03373028,-0.00191312,0.98526634,0.16760144,0.03345615,0.00637843
1756342054041,0.05458766,0.05394840,-0.04467048,-0.00021490,0.02881369,0.01870420,0.98526042,0.16760025,0.03361607,0.00648224
1756342054053,-0.01480277,0.03172082,-0.07919480,0.00829576,0.04787387,-0.01530595,0.98524375,0.16764712,0.03388655,0.00639576
1756342054064,-0.03379075,0.19894715,0.04385562,-0.02621539,0.03429624,-0.02284051,0.98526274,0.16750162,0.03407690,0.00626899
1756342054075,-0.04633106,-0.01954203,-0.03047022,0.00066612,0.02975406,-0.01580326,0.98525700,0.16750528,0.03424054,0.00618207
1756342054086,-0.07991404,-0.06530489,0.10208263,-0.02427490,0.03482097,-0.00341260,0.98527342,0.16736934,0.03443554,0.00616296
1756342054097,-0.05803525,-0.02331148,-0.00292953,-0.02026878,0.02300208,0.00321603,0.98528846,0.16725280,0.03456780,0.00618146
1756342054108,-0.01168492,0.03248886,-0.00934628,-0.01151445,0.01158551,-0.02231851,0.98529791,0.16718832,0.03463268,0.00605647
1756342054119,0.06694280,0.07517377,-0.08223671,0.02280582,0.01278774,-0.02647848,0.98527544,0.16731147,0.03470174,0.00591349
1756342054131,-0.03840624,0.02453504,0.03533833,0.01180195,0.00794369,-0.01520435,0.98526271,0.16737992,0.03474781,0.00582530
1756342054142,-0.09139848,0.00269281,0.03966510,0.01531141,0.01921232,-0.00492582,0.98524532,0.16746184,0.03485060,0.00579895
1756342054153,-0.01538290,-0.02658479,0.07702995,0.00662326,0.01340104,0.00077045,0.98523633,0.16749893,0.03492564,0.00580327
1756342054164,0.00047516,-0.10857511,0.04466547,0.01966112,0.00900447,0.02070994,0.98521513,0.16760903,0.03497607,0.00591924
1756342054175,0.04005312,-0.10340470,-0.06411610,0.02320555,0.00706664,0.02105360,0.98519111,0.16773782,0.03501529,0.00603609
1756342054186,-0.17502632,0.08210867,-0.16272986,0.00727989,0.00416750,-0.00093974,0.98518323,0.16777932,0.03503904,0.00603073
1756342054197,0.00467981,-0.12347706,0.01172642,-0.01817192,0.00600935,-0.00578400,0.98519897,0.16768119,0.03507149,0.00599950
1756342054209,-0.04359317,-0.14133851,0.11816748,-0.02104132,0.01636219,-0.02481902,0.98521675,0.16756230,0.03516394,0.00585927
1756342054220,0.16927054,-0.06968352,0.31310277,-0.03080394,0.03960812,-0.00528109,0.98523811,0.16739134,0.03538376,0.00582996
1756342054231,-0.02225317,0.13400281,0.04160376,-0.00275769,0.01587840,0.03617491,0.98523634,0.16737604,0.03547189,0.00603073
1756342054242,0.02651932,0.00443059,-0.08753302,0.00933179,0.02049441,0.04522502,0.98522174,0.16742830,0.03558666,0.00628399
1756342054253,-0.01611541,0.01028432,-0.09163885,-0.01287836,0.03504287,0.00933799,0.98522650,0.16735682,0.03578115,0.00633582
1756342054264,0.00456757,0.00453761,0.02809892,-0.01589093,0.03793944,0.00291105,0.98523377,0.16726783,0.03599361,0.00635212
1756342054275,0.02980967,0.01535500,0.07233156,-0.00331921,0.02163814,-0.00653327,0.98523276,0.16724974,0.03611153,0.00631651
1756342054286,0.18621567,-0.16583528,0.26193444,-0.01513320,0.01016972,-0.00144923,0.98524521,0.16716424,0.03616899,0.00630832
1756342054298,0.05490464,-0.07238060,0.04166310,-0.01261484,0.01720094,0.00275153,0.98525355,0.16709360,0.03626532,0.00632373
1756342054309,-0.12906175,0.07722742,-0.07354993,-0.00931529,0.01008841,-0.00548210,0.98526033,0.16704283,0.03632030,0.00629386
1756342054320,-0.07181020,0.32535615,-0.13556950,-0.00076748,0.00824747,-0.00610152,0.98525958,0.16703857,0.03636607,0.00625999
1756342054331,0.01062465,0.07170772,0.01106044,0.01386065,0.00241508,0.00189559,0.98524511,0.16712035,0.03638032,0.00627118
1756342054342,0.02976977,0.03365396,0.06671450,0.02770152,0.00277767,0.00972790,0.98521933,0.16726716,0.03639504,0.00632273
1756342054353,0.01675628,-0.01772902,0.03706284,0.02317454,0.00010064,0.00091261,0.98519723,0.16739694,0.03639561,0.00632784
1756342054364,-0.06652304,0.00879054,-0.00000000,0.04863929,0.01236864,-0.03405701,0.98514956,0.16766932,0.03646487,0.00613713
1756342054375,-0.09685755,0.09397232,0.09428019,0.03921105,0.02301266,-0.00587109,0.98510833,0.16788498,0.03659144,0.00610483
1756342054387,-0.16716290,-0.02101955,0.02144288,0.06646976,0.02101062,0.00173492,0.98504039,0.16825721,0.03670910,0.00611455
1756342054398,-0.01550812,0.00588482,0.12200656,0.05352079,0.03483649,0.01783403,0.98498229,0.16855158,0.03690070,0.00621264
1756342054409,-0.03054122,-0.01206871,0.07093445,0.05339864,0.05428860,-0.01279069,0.98492119,0.16884527,0.03719929,0.00614229
1756342054420,-0.02227870,0.08095231,0.11333705,0.04422090,0.06688443,-0.01388039,0.98486447,0.16909512,0.03757719,0.00606386
1756342054431,-0.11708389,0.16848924,0.02278403,0.06781521,0.07326953,-0.01283400,0.98478461,0.16947149,0.03798383,0.00599264
1756342054442,0.00145129,0.26655433,0.05031153,0.10056476,0.09201781,0.00347847,0.98466845,0.17002963,0.03849453,0.00601194
1756342054453,-0.09723670,0.19810163,0.05031153,0.11139787,0.06681537,0.01195300,0.98454651,0.17064788,0.03886536,0.00607828
1756342054463,-0.25282546,0.21936906,0.04510162,0.15634060,0.09087043,-0.01638669,0.98439470,0.17142177,0.03931517,0.00599717
1756342054474,0.01375857,0.08094358,0.03905020,0.16204270,0.12802335,-0.02187966,0.98420642,0.17233731,0.04003850,0.00587355
1756342054485,-0.08238632,0.15398121,0.26551596,0.16820979,0.13375284,-0.01855736,0.98401437,0.17326247,0.04077414,0.00577148
1756342054497,-0.31461943,0.93492951,0.44643008,0.21325661,0.13367931,0.00196774,0.98377197,0.17445670,0.04152274,0.00578250
1756342054508,0.18959067,-0.24470976,-0.03801317,0.24171154,0.16277958,-0.01129157,0.98349243,0.17581029,0.04243431,0.00571927
1756342054519,-0.08254575,0.47700869,0.08562450,0.25515293,0.13112454,0.03779066,0.98320791,0.17721363,0.04315549,0.00592712
1756342054530,0.17353873,0.30945453,0.05838571,0.26391750,0.11349271,0.03571878,0.98290306,0.17873115,0.04380808,0.00613250
1756342054541,0.14858947,0.16129372,-0.04838189,0.33297066,0.09956773,0.05226727,0.98254848,0.18052920,0.04434574,0.00641474
1756342054552,0.16317651,0.36131846,0.29015130,0.31394409,0.07850615,0.04858314,0.98220518,0.18227159,0.04478145,0.00668438
1756342054564,-0.02617695,-0.39791853,-0.01828773,0.30622503,0.04187798,0.05072861,0.98186375,0.18403238,0.04502225,0.00697607
1756342054574,0.35329269,-0.02302006,0.29564146,0.31055799,0.05126583,0.04368115,0.98153350,0.18570939,0.04529908,0.00721195
1756342054586,0.01281976,-0.29389375,-0.13325029,0.28619233,0.01676415,0.03011908,0.98122610,0.18729776,0.04539213,0.00737911
1756342054597,0.27302700,-0.40319213,0.03294474,0.26972407,0.04760451,0.01743048,0.98092346,0.18880821,0.04565871,0.00747672
1756342054608,-0.36990769,0.18098665,0.01998550,0.24965694,0.04357646,-0.03092261,0.98064826,0.19018133,0.04589838,0.00730664
1756342054619,0.13454697,-0.04641009,-0.10539217,0.27215277,0.06679344,-0.03353142,0.98032404,0.19175981,0.04628578,0.00711216
1756342054631,0.01772414,0.14462687,0.28155938,0.23999486,0.05885224,0.01169932,0.98004660,0.19309179,0.04661241,0.00717709
1756342054641,0.07892201,-0.49331677,-0.01821416,0.22738572,0.04405262,0.05926149,0.97978775,0.19433104,0.04685250,0.00750007
1756342054653,0.25533010,-0.45818728,-0.22012624,0.19719071,0.05504535,0.05623101,0.97955295,0.19542545,0.04715800,0.00781215
1756342054664,0.03551349,-0.27109867,-0.09321515,0.14081625,0.04451601,0.02824045,0.97937893,0.19622810,0.04741174,0.00797312
1756342054675,-0.01083378,-0.56864627,0.02703990,0.11459418,0.05726815,-0.02244180,0.97923685,0.19686410,0.04772958,0.00784857
1756342054686,-0.09687807,0.01465819,0.07543442,0.10663760,0.06995404,-0.08283693,0.97910348,0.19745060,0.04811433,0.00739297
1756342054697,-0.12797774,-0.07161036,-0.26148800,0.13335891,0.05431009,-0.04522166,0.97894093,0.19819074,0.04841575,0.00714198
1756342054708,0.07446254,0.14984593,0.33874042,0.10125322,0.07972965,0.02027918,0.97880541,0.19874764,0.04885426,0.00725352
1756342054720,0.01726988,-0.29939580,-0.13500416,0.10409074,0.08899759,0.06303841,0.97865525,0.19934616,0.04936600,0.00761599
1756342054730,0.06136609,0.02697042,0.07518568,0.10935503,0.09106887,0.06498850,0.97850705,0.19993668,0.04985777,0.00796693
1756342054742,0.04755166,-0.04689170,-0.18087932,0.09439610,0.05140898,0.02265908,0.97838314,0.20046529,0.05014566,0.00809382
1756342054753,-0.22597857,0.20912671,-0.13484076,0.08979929,0.02283707,-0.03794840,0.97827611,0.20096368,0.05027241,0.00788321
1756342054764,0.08236186,0.11157592,-0.08113756,0.10722294,0.03477855,-0.04199462,0.97814440,0.20156413,0.05046717,0.00764804
1756342054775,-0.05891579,-0.01693579,0.22721924,0.10706462,0.02814617,-0.01256179,0.97801189,0.20216904,0.05062619,0.00757706
1756342054785,0.09290904,-0.05670525,0.89651245,0.11602926,0.02001072,0.02177893,0.97789080,0.20272598,0.05072224,0.00768160
1756342054796,0.20075703,-0.38357661,-0.19465909,0.11725652,0.00296968,0.04664730,0.97775150,0.20338262,0.05073887,0.00794283
1756342054807,-0.21239857,0.19149133,-0.20812209,0.12488146,-0.02839760,0.00237616,0.97761390,0.20408196,0.05057985,0.00795613
1756342054818,0.00570197,0.27607062,-0.38583364,0.12290824,-0.01663601,0.00404461,0.97747459,0.20477024,0.05048669,0.00797878
1756342054830,-0.02514021,0.19913370,0.12330843,0.12348573,-0.00816625,-0.01076277,0.97733487,0.20544942,0.05044177,0.00791959
1756342054841,0.21808326,-0.01192663,0.07751230,0.12039228,-0.03439928,0.02461372,0.97720170,0.20612361,0.05024914,0.00805742
1756342054852,0.16820826,-0.00902813,0.10453621,0.11328448,-0.06448058,0.04516362,0.97708405,0.20675801,0.04988804,0.00831034
1756342054863,0.29136023,-0.32465145,0.04492100,0.12030482,-0.08970159,0.06840587,0.97696452,0.20742570,0.04939020,0.00868999
1756342054874,-0.20124610,-0.45401314,-0.28058351,0.10043874,-0.12446644,0.04898453,0.97687823,0.20798313,0.04869941,0.00896186
1756342054885,0.11928771,-0.55209629,-0.02398083,0.04287323,-0.09524559,0.04621344,0.97685112,0.20822322,0.04816604,0.00922065
1756342054897,-0.25169247,-0.04202585,-0.04388676,-0.02578053,-0.10411236,0.00293553,0.97691082,0.20807756,0.04757780,0.00923724
1756342054908,0.08732540,-0.14767985,-0.05144840,-0.02644250,-0.06695762,-0.02030350,0.97696070,0.20793213,0.04720953,0.00912557
1756342054919,0.41573445,0.25919364,0.22785437,-0.04084018,-0.05130798,-0.00089010,0.97702324,0.20770342,0.04692221,0.00912058
1756342054930,-0.08192120,-0.12302254,0.00051019,-0.05276327,-0.05626193,0.03055539,0.97709811,0.20741323,0.04661277,0.00928864
1756342054941,-0.10126954,-0.05568571,-0.14344942,-0.02382161,-0.04917682,0.01668655,0.97713827,0.20728102,0.04633984,0.00938125
1756342054952,0.19460344,0.23754804,-0.14818286,-0.00921346,-0.04290374,0.03441791,0.97715871,0.20722942,0.04609958,0.00957399
1756342054964,-0.27986770,0.19374196,-0.23121927,0.02809354,-0.04717633,0.01777296,0.97713638,0.20738955,0.04583067,0.00967530
1756342054974,0.14641889,-0.31787745,0.42817574,0.01662864,-0.04096163,0.04387979,0.97712530,0.20747935,0.04560948,0.00991225
1756342054986,-0.28134917,0.44791134,-0.28455964,0.04240185,-0.05026685,0.05935101,0.97708379,0.20772104,0.04532296,0.01025055
1756342054997,0.11130407,0.17761165,0.00527049,0.04697894,-0.08396232,0.04803133,0.97704699,0.20798177,0.04485697,0.01051712
1756342055008,0.26348163,0.16390485,-0.05712829,0.06326670,-0.12166496,0.02687394,0.97700216,0.20832657,0.04419389,0.01066358
1756342055019,0.38737683,0.09191601,-0.20624758,0.05218254,-0.15475878,0.04538745,0.97697582,0.20861880,0.04332724,0.01091775
1756342055030,0.19035936,0.02797000,-0.17931474,0.03117734,-0.17712640,0.06021114,0.97697820,0.20879495,0.04232648,0.01125795
1756342055041,0.15734440,-0.23554580,-0.13288876,0.01935647,-0.17535660,0.06284234,0.97699270,0.20890141,0.04136202,0.01160358
1756342055052,0.16009512,-0.30221033,-0.27388581,-0.03385312,-0.20743994,0.05224363,0.97707667,0.20871522,0.04022110,0.01189092
1756342055063,0.18753450,-0.42996347,-0.35469740,-0.08568229,-0.24668941,0.06323792,0.97723056,0.20823540,0.03883964,0.01224505
1756342055075,0.00142549,-0.59324298,-0.32406224,-0.08092421,-0.19298021,0.00511579,0.97736900,0.20778222,0.03775895,0.01227370
1756342055086,-0.29239351,-0.48894545,-0.08228185,-0.14470132,-0.16095479,-0.05032006,0.97757509,0.20698636,0.03687370,0.01199694
1756342055097,-0.14445084,-0.08066587,0.12468433,-0.18508838,-0.11556396,-0.04887696,0.97782368,0.20594061,0.03622076,0.01172078
1756342055108,0.02335403,-0.01004743,-0.16663591,-0.16132506,-0.13607121,-0.00683365,0.97804578,0.20502106,0.03544516,0.01168183
1756342055119,0.14684676,-0.67493164,-0.99083540,-0.18186951,-0.11212166,0.04205924,0.97827428,0.20402078,0.03482849,0.01191316
1756342055130,-0.10590908,0.10837208,0.02068922,-0.21116104,-0.08148019,0.04980622,0.97852825,0.20285939,0.03438035,0.01218709
1756342055141,0.13103170,-0.05714164,0.03645243,-0.26911934,-0.06229208,0.04564368,0.97884275,0.20137924,0.03403774,0.01243813
1756342055152,0.14382324,-0.41202457,-0.31778941,-0.30810040,-0.09870172,0.06082507,0.97920753,0.19966928,0.03348994,0.01277571
1756342055164,0.23210907,-0.30344411,-0.09801787,-0.34391399,-0.10124359,0.05420063,0.97961709,0.19772617,0.03291792,0.01308195
1756342055175,-0.12982505,-0.99319909,-0.82624813,-0.37033611,-0.13939499,0.05466733,0.98005517,0.19565228,0.03213731,0.01338808
1756342055186,0.28224776,-0.26347876,-0.20432077,-0.42586053,-0.11113096,-0.01167889,0.98054934,0.19326746,0.03151497,0.01332268
1756342055197,-0.10497683,-0.44552187,-0.61675711,-0.45366031,-0.11651556,-0.07191169,0.98105422,0.19081770,0.03088579,0.01293436
1756342055208,-0.12589548,0.23784771,0.30950025,-0.46057574,-0.07497009,-0.12224760,0.98157888,0.18821545,0.03046221,0.01224366
1756342055219,0.01727412,0.29750138,0.00687096,-0.48789043,-0.06637932,-0.11243191,0.98211793,0.18548326,0.03009048,0.01161404
1756342055230,-0.15105238,0.08048298,-0.50778302,-0.44747172,-0.06787897,-0.09876766,0.98259718,0.18302217,0.02971715,0.01107082
1756342055242,-0.21467072,0.43199372,-0.23493865,-0.37706542,-0.04451714,-0.12446592,0.98300325,0.18091060,0.02946785,0.01037381
1756342055252,0.06767282,0.07367723,-0.16085983,-0.33176257,0.00261563,-0.10537341,0.98333668,0.17911908,0.02948198,0.00980479
1756342055263,-0.22023387,0.76464381,0.43845204,-0.31164474,0.03058660,-0.08748583,0.98364979,0.17738945,0.02965173,0.00931925
1756342055275,-0.48807209,0.50974817,-0.12268696,-0.22692020,0.02305967,-0.08188628,0.98388454,0.17608466,0.02978433,0.00884840
1756342055286,-0.02639275,0.44234467,-0.18054386,-0.22519819,0.02590306,-0.07097339,0.98410252,0.17485733,0.02992550,0.00846160
1756342055297,-0.25060591,0.46782588,-0.20910544,-0.13147128,0.00725168,-0.08366224,0.98423811,0.17410794,0.02996683,0.00798472
1756342055309,-0.04000897,0.07199854,-0.00262059,-0.08251761,0.01332939,-0.07813745,0.98432166,0.17364172,0.03004214,0.00754324
1756342055319,0.40607957,0.31556682,0.26352030,-0.10096677,0.03072341,-0.06482020,0.98441522,0.17309650,0.03020805,0.00719321
1756342055331,-0.12428194,0.41942953,0.37231785,-0.08861298,0.02037221,-0.06496369,0.98450143,0.17260027,0.03032213,0.00682942
1756342055342,0.09315425,-0.16407991,-0.18018618,-0.04523394,0.00820929,-0.04258343,0.98454522,0.17235148,0.03036729,0.00659521
1756342055353,-0.22453686,0.34242519,0.19787581,-0.04614376,-0.00407667,-0.04418463,0.98459275,0.17209308,0.03034446,0.00634778
1756342055364,0.16645789,-0.14438110,-0.01417471,-0.04137397,-0.00115567,-0.03040855,0.98463600,0.17185311,0.03033775,0.00617141
1756342055376,0.02981834,0.04990246,0.20570227,-0.05986886,0.00819687,-0.04953517,0.98469526,0.17151485,0.03038407,0.00589153
1756342055387,0.01026942,-0.10572834,0.32768784,-0.08286888,-0.00278555,-0.04531677,0.98477868,0.17104664,0.03036833,0.00563549
1756342055398,0.03158629,-0.19898117,-0.10991569,-0.08478615,0.00286103,-0.05784772,0.98485712,0.17060151,0.03038335,0.00533179
1756342055409,-0.14426588,-0.06394528,0.14512435,-0.06519853,0.01379740,-0.05952297,0.98492133,0.17022662,0.03046268,0.00498953
1756342055420,-0.03768764,0.05103789,-0.22302935,-0.09335942,0.03038163,-0.05565654,0.98500395,0.16972715,0.03062522,0.00469177
1756342055431,-0.00695389,-0.11507508,0.32993891,-0.10343048,0.03965067,-0.03072139,0.98509829,0.16914276,0.03084925,0.00451820
1756342055443,-0.01814370,0.09978290,0.08977612,-0.10335176,0.02093670,-0.04418884,0.98520094,0.16852782,0.03097382,0.00425527
1756342055453,0.02388320,0.06202954,-0.11060689,-0.10044419,0.01785833,-0.09386176,0.98529005,0.16800049,0.03106758,0.00376250
1756342055465,-0.20156214,0.14787485,0.26580525,-0.07164785,0.01081084,-0.07469934,0.98536100,0.16758135,0.03113082,0.00332551
1756342055475,-0.16997709,0.07050743,0.05767954,-0.06334009,0.01730797,-0.06370967,0.98541518,0.16725198,0.03122082,0.00299422
1756342055487,-0.02090016,0.15329506,0.45817070,-0.01776706,0.03031171,-0.04503845,0.98542794,0.16714804,0.03139815,0.00273074
1756342055498,-0.13039318,0.18010311,0.08856615,-0.01741241,0.00281359,-0.01559925,0.98544407,0.16705140,0.03141376,0.00264417
1756342055509,0.04902970,0.06104543,-0.19904676,0.01106055,0.01549180,-0.01400156,0.98543147,0.16711113,0.03149742,0.00256856
1756342055520,-0.07261294,0.02297890,-0.00645854,0.01270781,0.01054484,0.00287865,0.98541772,0.16718102,0.03155542,0.00258439
1756342055531,0.07301048,-0.09804962,-0.00247824,-0.00471371,0.01348686,-0.00118424,0.98541981,0.16715439,0.03163162,0.00257770
1756342055542,-0.22626229,0.11060276,0.26165517,-0.00339302,0.00399790,0.01065917,0.98542210,0.16713590,0.03165341,0.00263579
1756342055553,0.00792086,0.02088762,0.19694482,-0.01513771,-0.00014417,-0.00757835,0.98543661,0.16705113,0.03165260,0.00259335
1756342055565,0.10511294,-0.04561896,0.16016636,-0.02433617,-0.01391055,0.01142212,0.98546271,0.16691120,0.03157261,0.00265903
1756342055576,0.02632199,-0.08515561,0.16542805,-0.02797212,-0.05071839,0.02906943,0.98549721,0.16675735,0.03129366,0.00281891
1756342055587,0.31455698,-0.05028954,0.26170789,-0.02085424,-0.02521076,0.01508378,0.98552098,0.16664161,0.03115374,0.00290263
1756342055599,-0.04575587,-0.06313003,0.01912416,-0.04053383,-0.03315626,0.01319978,0.98556614,0.16640854,0.03096309,0.00297853
1756342055609,-0.16953659,-0.16296229,-0.01337523,-0.04218714,-0.01405682,-0.00125557,0.98560698,0.16618073,0.03088719,0.00297175
1756342055621,-0.26624853,-0.06989559,0.02049562,-0.04840462,0.00034320,0.00364621,0.98565293,0.16590724,0.03088913,0.00299235
1756342055632,-0.04372388,0.03441238,0.10357810,-0.02827181,0.00174268,-0.00538210,0.98568076,0.16574044,0.03089941,0.00296059
1756342055643,-0.12857874,0.00790657,-0.00308230,-0.02250941,-0.00734743,-0.00333987,0.98570169,0.16562339,0.03086120,0.00294323
1756342055654,0.04729858,0.08025453,0.16354769,-0.02098124,0.01631988,0.02064402,0.98571835,0.16550485,0.03095341,0.00305986
1756342055665,-0.05492666,-0.03140476,0.08487326,-0.00920810,0.02435991,0.02092290,0.98572217,0.16545558,0.03108373,0.00317180
1756342055676,-0.03708774,-0.05955400,0.28221858,-0.02332855,0.02676761,0.00740178,0.98573891,0.16532728,0.03123096,0.00321251
1756342055687,-0.05379139,-0.06819828,0.24053357,-0.01915571,0.03991445,-0.00159952,0.98574992,0.16521905,0.03145647,0.00320347
1756342055699,-0.02362647,0.04683536,0.17071134,-0.03203069,0.02407021,0.00051283,0.98577748,0.16502686,0.03160089,0.00320655
1756342055710,0.00202737,0.08258149,0.01378611,-0.01277883,0.03048395,0.01835686,0.98578325,0.16495977,0.03176093,0.00330292
1756342055720,0.01489240,0.15845807,-0.08453628,-0.00218131,0.01952521,0.01788130,0.98578149,0.16494799,0.03186637,0.00339948
1756342055732,0.03957281,0.07308921,0.07814679,-0.00545863,0.00850160,0.01258647,0.98578499,0.16491579,0.03191653,0.00347374
1756342055743,0.07719632,0.02585317,0.07681226,0.01124659,0.01380666,0.01887301,0.98577181,0.16497764,0.03199247,0.00357755
1756342055754,-0.02885834,0.09285120,0.06020671,0.00290674,0.00580558,0.00240622,0.98576812,0.16499334,0.03202382,0.00359054
1756342055765,0.09555957,0.04880181,0.14921602,0.00836916,0.01392481,-0.00756780,0.98575825,0.16503853,0.03209901,0.00354967
1756342055776,0.10929411,0.01454834,0.12672533,0.01752173,0.01111369,-0.00327828,0.98573969,0.16513753,0.03216180,0.00353115
1756342055787,0.11090047,0.05705664,0.34103639,0.01342924,0.01547051,-0.00330937,0.98572460,0.16521139,0.03224689,0.00351295
1756342055799,-0.01421053,-0.05985640,-0.10310746,0.02521209,0.02512509,-0.01609459,0.98569538,0.16535888,0.03239387,0.00341880
1756342055809,-0.14803997,0.03396427,0.07009580,0.01295031,0.02766621,-0.00122013,0.98567906,0.16542752,0.03254050,0.00341233
1756342055821,-0.09147580,0.00230705,-0.20165418,0.04168462,0.03616327,0.00806413,0.98563011,0.16567554,0.03275567,0.00346031
1756342055832,0.00512179,0.15929409,0.20497340,0.06281059,0.01751446,0.02164392,0.98557172,0.16600216,0.03284675,0.00357286
1756342055843,0.02923394,0.11797779,-0.08819441,0.07341896,0.00682792,0.01734907,0.98550202,0.16640596,0.03288430,0.00366828
1756342055854,0.01182241,0.05763424,-0.07881606,0.08417102,0.02379276,0.01235844,0.98541910,0.16686890,0.03301516,0.00373625
1756342055866,-0.02037619,-0.00424958,-0.01743418,0.06092348,0.02783749,0.02459829,0.98535209,0.16722835,0.03317940,0.00388138
1756342055876,-0.13118107,0.09287411,0.38422420,0.06836377,0.02988181,0.01183152,0.98528557,0.16758726,0.03333628,0.00394350
1756342055887,0.03180791,-0.09419223,0.29921954,0.05352534,0.04489863,0.02575599,0.98522649,0.16788165,0.03358323,0.00408515
1756342055899,0.04676043,0.00229131,-0.11349431,0.03636159,0.02346112,0.02001117,0.98518539,0.16809255,0.03371930,0.00420122
1756342055910,0.03607974,0.00232667,-0.23220801,0.05355766,0.01120807,0.01822203,0.98513158,0.16839247,0.03378207,0.00430326
1756342055921,0.08345565,-0.07550705,-0.29918344,0.06226318,0.02372458,0.05369010,0.98506892,0.16872558,0.03390899,0.00459050
1756342055932,0.03306951,-0.13566059,-0.12115617,0.01204280,-0.01101157,0.03742214,0.98505793,0.16879663,0.03384402,0.00481129
1756342055943,0.02131854,-0.00084930,-0.01840665,0.01681333,-0.00088540,0.01790372,0.98504220,0.16888658,0.03383929,0.00490708
1756342055954,0.06401817,-0.28930547,-0.21608827,0.02872419,-0.00391003,0.02647619,0.98501535,0.16904313,0.03381798,0.00505137
1756342055965,0.05878145,0.02190945,-0.04635193,-0.01623576,-0.01206761,-0.00589385,0.98503376,0.16895059,0.03374919,0.00501778
1756342055976,0.06487185,-0.04942041,0.00059170,0.01890917,-0.00269240,0.01037162,0.98501645,0.16905270,0.03373465,0.00507379
1756342055987,0.12797766,-0.06214097,-0.01907698,0.00062932,-0.00954767,-0.00054154,0.98501770,0.16905622,0.03368119,0.00507075
1756342055999,-0.00098280,0.08012249,-0.06895956,-0.00374405,0.01652712,0.00413048,0.98501801,0.16903488,0.03377539,0.00509430
1756342056010,-0.14964681,-0.01466134,-0.19042029,0.01052968,0.01580635,0.02268774,0.98500443,0.16909279,0.03386233,0.00521908
1756342056021,-0.13129431,-0.00067043,-0.16186945,0.00027451,0.02786014,0.03506816,0.98499791,0.16909429,0.03401416,0.00541020
1756342056032,0.01938863,-0.00312713,-0.09244445,0.00266742,0.00243056,0.01975434,0.98499413,0.16910976,0.03402826,0.00552478
1756342056043,0.05054250,-0.06943542,-0.12535830,0.00596809,-0.00712500,0.01052437,0.98498952,0.16914258,0.03398907,0.00558266
1756342056054,0.12709090,0.00935941,-0.06108245,-0.00553870,-0.01055021,-0.00424280,0.98499689,0.16911212,0.03393105,0.00555933
1756342056066,-0.05192829,-0.02579481,-0.06848513,-0.01157242,-0.01511954,-0.01265851,0.98501235,0.16904269,0.03384033,0.00548337
1756342056076,-0.33170982,-0.00382412,-0.21094224,-0.01732651,-0.01334682,-0.02034448,0.98503042,0.16895432,0.03377226,0.00537962
1756342056088,-0.13129942,0.01907313,-0.03551402,-0.02131992,0.00248582,0.00059329,0.98505022,0.16883599,0.03378606,0.00538291
1756342056099,0.06032969,0.04410972,-0.01073201,-0.02573915,0.01012730,0.00465097,0.98507303,0.16869057,0.03384328,0.00540919
1756342056110,0.18917790,-0.00985602,-0.03453159,-0.02065333,-0.00441771,0.00613967,0.98509294,0.16857801,0.03381920,0.00544265
1756342056121,0.21101573,-0.00987966,0.01407894,-0.02101807,-0.01807999,0.00634216,0.98511676,0.16845821,0.03371614,0.00547880
1756342056132,0.04830940,-0.04956683,-0.13314037,-0.01412840,0.00107786,0.00040361,0.98512983,0.16838050,0.03372207,0.00548102
1756342056143,-0.06650105,-0.08571246,-0.17142493,-0.01534411,-0.00407507,0.00776210,0.98514478,0.16829611,0.03369966,0.00552371
1756342056154,-0.01339149,-0.04219527,-0.00934106,-0.03728908,0.03284729,0.02036631,0.98517322,0.16808915,0.03388196,0.00563674
1756342056165,-0.03289600,-0.09554352,-0.05127905,-0.06823712,0.01912170,0.01335733,0.98523368,0.16771044,0.03398809,0.00571088
1756342056176,0.17754163,-0.01112659,0.07836988,-0.04982128,0.03402347,-0.00589862,0.98527437,0.16743393,0.03417692,0.00567814
1756342056188,0.09829914,0.12047776,0.13701863,-0.07941365,-0.00067079,-0.04595283,0.98535142,0.16698921,0.03417316,0.00542080
1756342056199,-0.03453009,0.03700992,-0.03184187,-0.05678195,-0.01078143,-0.03293418,0.98540885,0.16666839,0.03411225,0.00523473
1756342056211,-0.23829420,-0.04949146,-0.18829411,-0.03990978,0.02121311,-0.01014553,0.98544432,0.16643492,0.03423634,0.00517537
1756342056221,-0.11823800,-0.04201276,-0.20468733,-0.05486863,0.01025482,0.02839683,0.98548895,0.16615509,0.03428864,0.00532020
1756342056232,-0.11127236,0.10679091,0.13299018,-0.01298321,0.01577440,0.02199126,0.98549746,0.16608239,0.03437698,0.00544335
1756342056243,-0.01278122,0.15736823,-0.00599917,-0.00488160,0.00091104,0.01746157,0.98550127,0.16605554,0.03438199,0.00553939
1756342056255,0.05542019,0.17036331,0.05907262,-0.00435533,-0.00208151,0.01743034,0.98550530,0.16603071,0.03437013,0.00563874
1756342056266,0.02504201,0.04551576,-0.02382492,0.00814243,0.00522605,0.00367074,0.98549648,0.16607631,0.03439939,0.00565930
1756342056277,-0.07603639,0.13694290,0.04086824,0.01415369,-0.00091026,0.00746007,0.98548330,0.16615415,0.03439439,0.00570033
1756342056288,-0.32216064,0.21058666,0.07389006,0.00798275,0.00437848,-0.00302354,0.98547515,0.16619806,0.03441847,0.00568370
1756342056299,0.00353913,-0.09008657,0.09205134,-0.01097124,0.02468529,-0.00927046,0.98548102,0.16613607,0.03455794,0.00563132
1756342056311,0.12678467,-0.30430826,0.00434302,-0.02482965,0.02564923,0.02397645,0.98550051,0.16598213,0.03471696,0.00577997
1756342056321,0.06891709,-0.38713879,-0.10467836,-0.04839481,0.02003860,0.01696896,0.98553610,0.16574741,0.03481415,0.00586227
1756342056332,0.09552615,-0.13740870,0.08489259,-0.02750734,0.00497032,0.00678338,0.98556012,0.16559750,0.03484124,0.00589924
1756342056343,0.00848757,-0.02610354,0.10175497,-0.05974900,0.00743447,-0.01052397,0.98561516,0.16526290,0.03488287,0.00584031
1756342056354,0.05179294,-0.03231119,0.02850987,-0.03075187,0.03283646,-0.02428744,0.98563829,0.16509069,0.03506676,0.00570430
1756342056366,-0.04859900,0.11567574,0.01199155,-0.03177280,0.01286069,-0.01544977,0.98566700,0.16490641,0.03514135,0.00561469
1756342056377,0.03677684,-0.05110893,0.04013350,-0.03754782,0.03429523,-0.00314048,0.98569387,0.16470741,0.03532311,0.00559805
1756342056388,0.01746408,-0.06242548,-0.02005720,-0.01030166,0.02859981,0.00029267,0.98569768,0.16465075,0.03548041,0.00559966
1756342056399,0.01744528,0.03841060,0.11439794,-0.03404340,0.02463303,-0.00859257,0.98572504,0.16445840,0.03561959,0.00555111
1756342056410,-0.08337246,0.07110018,0.08860768,-0.03569767,0.02694417,-0.01588442,0.98575341,0.16425850,0.03577048,0.00546215
1756342056421,-0.02859721,0.18937405,0.01590395,-0.03173663,0.01457066,-0.00991198,0.98577987,0.16408394,0.03585061,0.00540764
1756342056432,0.04838934,0.10484568,-0.04262233,0.00092499,0.02093003,-0.00642599,0.98577489,0.16408917,0.03596887,0.00537133
1756342056443,-0.03279985,0.09058058,-0.05205105,-0.00129503,-0.00170491,0.00067614,0.98577637,0.16408218,0.03595966,0.00537498
1756342056455,-0.02419970,0.10784619,0.07308749,-0.00029531,0.01749636,0.00217847,0.98577297,0.16408051,0.03605852,0.00538729
1756342056465,0.01769874,-0.00521590,0.05429066,0.00228768,0.00734245,0.02294105,0.98576870,0.16409309,0.03609890,0.00551347
1756342056476,0.14186891,-0.15418392,0.13595770,0.00063483,0.00594441,0.02805757,0.98576605,0.16409658,0.03613160,0.00566778
1756342056488,0.17937031,-0.15105050,0.16480435,-0.01846004,-0.00604119,0.02191254,0.98578377,0.16399321,0.03609776,0.00579049
1756342056499,0.02786228,-0.02715794,0.07092515,-0.02594829,-0.01972167,-0.00896812,0.98581278,0.16384530,0.03598535,0.00573938
1756342056510,-0.09421824,-0.04232041,-0.09240840,-0.03443101,-0.03936546,-0.02785067,0.98585409,0.16365077,0.03576294,0.00558202
1756342056521,0.01209382,-0.08917405,-0.10531987,-0.01950834,-0.00773197,-0.00884601,0.98587317,0.16354640,0.03572157,0.00553469
1756342056532,-0.06499627,0.07148188,0.07857785,-0.05101312,-0.02290156,-0.02911892,0.98592559,0.16326327,0.03559447,0.00537308
1756342056544,-0.02006210,-0.01309863,0.00656962,0.00630737,0.00017096,-0.02232843,0.98592024,0.16329954,0.03559545,0.00524470
1756342056554,-0.01229544,-0.01170666,0.06228147,-0.02345742,-0.01963685,0.00997819,0.98594475,0.16317287,0.03548941,0.00529858
1756342056567,0.01476316,0.10577711,-0.00893013,-0.04473102,-0.00871743,-0.00980806,0.98599248,0.16289778,0.03543580,0.00523826
1756342056577,-0.12236872,-0.08403641,-0.02906333,0.02366144,-0.00156333,-0.01711813,0.98597404,0.16301372,0.03542814,0.00515438
1756342056588,-0.11017030,0.38681791,-0.00488741,-0.04232763,-0.00592861,0.02169980,0.98601375,0.16277668,0.03539494,0.00527590
1756342056599,-0.03481416,-0.05196854,-0.03386946,-0.00038062,0.00970010,0.00556825,0.98601190,0.16277446,0.03545168,0.00530847
1756342056610,-0.06603870,-0.10263515,0.09465547,-0.03850429,0.03370391,0.01548060,0.98603919,0.16256653,0.03563368,0.00539207
1756342056621,0.04292516,-0.16301339,0.08278423,-0.01730384,0.01561266,0.01407601,0.98605112,0.16247309,0.03571799,0.00546808
1756342056633,0.08508153,0.11841640,0.05392503,-0.01781915,0.02825321,0.02385362,0.98606133,0.16237063,0.03588045,0.00560524
1756342056643,0.00741530,0.07422541,-0.03457756,0.00185531,-0.01002688,0.01844960,0.98606108,0.16238056,0.03582680,0.00570394
1756342056655,0.08771842,0.03216425,-0.01060619,0.00602760,0.00354553,0.00369576,0.98605445,0.16241552,0.03584737,0.00572538
1756342056666,-0.04447582,0.08367410,0.04137449,0.02120176,-0.00272132,0.00230408,0.98603605,0.16253001,0.03583267,0.00573782
1756342056677,0.03159252,-0.02437636,0.24110294,0.02457311,-0.00074081,0.01247540,0.98601331,0.16266639,0.03582856,0.00580706
1756342056688,-0.04789270,-0.01306165,0.05805176,0.04283529,-0.01477217,0.02653483,0.98597615,0.16290412,0.03574658,0.00595433
1756342056700,0.05283647,-0.02975757,-0.04510622,0.02810815,0.01281490,0.01981605,0.98594476,0.16307277,0.03582347,0.00607322
1756342056711,0.01261178,0.08251669,-0.16298565,0.03980250,0.01102433,0.02924114,0.98590639,0.16328572,0.03588245,0.00622966
1756342056722,0.04450437,0.00249062,-0.07429518,0.01759876,-0.00927143,0.02299246,0.98589141,0.16338251,0.03583145,0.00635612
1756342056732,0.07971486,-0.07154129,0.09303775,0.00864714,0.00097459,0.01119811,0.98588316,0.16342877,0.03583667,0.00641603
1756342056744,0.04091320,-0.02848949,-0.08058119,0.00488768,-0.02141701,-0.00082659,0.98588300,0.16345736,0.03571138,0.00641119
1756342056755,0.09478349,-0.04799703,-0.04054312,0.02328458,-0.00976180,0.00286212,0.98586430,0.16358077,0.03565964,0.00642636
1756342056766,-0.03602221,0.00331333,-0.02613242,0.00166731,-0.01134038,-0.01480171,0.98586557,0.16359003,0.03559670,0.00634421
1756342056777,-0.01306165,0.05103717,-0.12094117,0.00328895,0.00585843,-0.00930450,0.98586170,0.16360828,0.03562922,0.00629257
1756342056788,0.00870776,0.22567622,-0.10062305,-0.00466630,0.01848757,-0.00650293,0.98586251,0.16358238,0.03573182,0.00625648
1756342056799,0.01874974,-0.04991368,-0.00142121,-0.00387604,0.00369951,0.00349261,0.98586524,0.16356068,0.03575254,0.00627604
1756342056810,0.06866841,-0.19096786,0.00795213,0.01564082,0.00341243,-0.00614778,0.98585010,0.16364905,0.03577182,0.00624131
1756342056823,0.03321469,-0.11763524,0.10118239,0.00168972,-0.00452272,-0.00649507,0.98584962,0.16365969,0.03574333,0.00620039
1756342056833,0.12833921,-0.05781651,0.00155161,-0.00179876,-0.00250310,-0.01066769,0.98585190,0.16365070,0.03573081,0.00614705
1756342056844,-0.08079198,-0.01097031,0.01396221,-0.00557158,-0.00873806,-0.00740556,0.98585872,0.16362117,0.03568450,0.00610780
1756342056855,-0.01744747,-0.03491549,0.00017343,-0.00712743,-0.00128914,-0.00451875,0.98586570,0.16358161,0.03567734,0.00608272
1756342056866,-0.01451294,0.00677271,-0.04740894,-0.01087372,0.00591753,-0.00684245,0.98587476,0.16352126,0.03571019,0.00604475
1756342056877,0.11022962,-0.14293464,-0.06873191,0.00189856,0.01502325,0.00757426,0.98586968,0.16353189,0.03579432,0.00608716
1756342056888,0.11324413,-0.03839882,0.02677983,-0.00814012,0.00227153,0.02123619,0.98587598,0.16348672,0.03580692,0.00620502
1756342056900,0.03356659,-0.03584489,-0.05142499,0.01298238,0.01914650,0.02078951,0.98585779,0.16356591,0.03592372,0.00633184
1756342056911,-0.06597239,0.06931581,-0.00830416,-0.02571174,0.00460725,0.01337770,0.98587924,0.16342835,0.03594837,0.00640341
1756342056922,-0.03384253,0.13696424,-0.00578021,-0.02168740,-0.00219616,-0.03658719,0.98589976,0.16331449,0.03593684,0.00621133
1756342056933,-0.04146889,0.09771508,-0.07394871,-0.00626695,-0.00442037,-0.08661270,0.98590950,0.16327908,0.03591186,0.00572196
1756342056944,0.01401040,0.04743541,-0.05887961,-0.03772648,-0.00420020,-0.01522008,0.98594419,0.16307725,0.03588939,0.00564054
1756342056955,-0.04749562,-0.03196730,-0.03835368,0.00341386,-0.00561535,-0.00952430,0.98594237,0.16309756,0.03585598,0.00558387
1756342056967,-0.03511048,0.00272831,0.05102873,0.00307478,0.00846802,-0.01271767,0.98593786,0.16311616,0.03590721,0.00550693
1756342056977,0.04410263,0.55252618,0.05823642,-0.01597405,-0.03640438,-0.00861479,0.98595612,0.16304348,0.03574157,0.00546773
1756342056988,-0.08278829,-0.10153902,0.11579395,0.01238912,-0.00480627,0.01536273,0.98594514,0.16311286,0.03571466,0.00555376
1756342056999,0.07507600,0.11902873,0.01615560,-0.01498991,-0.01914288,0.00262230,0.98596282,0.16302892,0.03560745,0.00556844
1756342057010,0.04328726,-0.21480455,-0.11651758,0.00497560,-0.01792986,-0.00660523,0.98596205,0.16305628,0.03550884,0.00553212
1756342057022,-0.08213277,-0.15549090,-0.00774777,0.02440610,-0.03102033,-0.02436986,0.98594588,0.16319784,0.03532892,0.00539077
1756342057033,0.01309160,-0.03401523,0.11580908,0.00886346,-0.00603970,-0.01549445,0.98593934,0.16324747,0.03529510,0.00530400
1756342057044,-0.03027551,-0.00989923,0.14991284,0.00509551,-0.01448032,-0.00081345,0.98593759,0.16327524,0.03521618,0.00529957
1756342057055,-0.10564483,-0.04043959,0.07777008,0.01634728,-0.00399867,-0.00453635,0.98592323,0.16336760,0.03519359,0.00527394
1756342057066,0.03928646,-0.01752552,0.01670196,0.01319006,0.00628382,0.01737022,0.98590959,0.16343949,0.03522784,0.00536861
1756342057077,0.07583786,-0.01641399,0.08860480,0.01293043,0.00630763,0.02237890,0.98589588,0.16351061,0.03526253,0.00549169
1756342057088,0.00891150,-0.03046300,0.06453158,0.01145692,0.00953613,0.00735200,0.98588275,0.16357649,0.03531736,0.00553396
1756342057100,-0.04766554,-0.11793131,-0.01449611,0.00814454,0.01281260,0.00030881,0.98587269,0.16362169,0.03538847,0.00553568
1756342057110,-0.03483106,-0.02902588,-0.03192847,-0.01773418,0.01816589,-0.00596988,0.98588558,0.16352326,0.03548929,0.00550254
1756342057121,-0.03717970,0.04807673,-0.08358528,-0.02201444,0.01414521,-0.01014242,0.98590284,0.16340438,0.03556568,0.00544778
1756342057133,0.03220718,0.04621014,-0.10224923,-0.00171783,0.00844988,0.00017281,0.98590271,0.16339416,0.03561595,0.00544880
1756342057144,0.04649940,0.09354265,-0.01610160,-0.00000054,0.00824331,0.00444502,0.98590100,0.16339416,0.03565964,0.00547236
1756342057155,-0.06635049,0.05785576,-0.05606786,0.00334527,-0.00256328,0.00364621,0.98589828,0.16341306,0.03564516,0.00549296
1756342057166,0.03273785,0.04941930,-0.06477760,0.00773776,0.00218019,-0.00084964,0.98589055,0.16345717,0.03565759,0.00548812
1756342057177,-0.02282922,0.19444390,0.06790134,-0.00295334,0.00003908,-0.00065232,0.98589315,0.16344151,0.03565779,0.00548466
1756342057188,-0.02718666,0.10872383,0.08802691,-0.00730994,-0.01802139,-0.00117202,0.98590353,0.16340094,0.03555778,0.00547816
1756342057199,0.06337317,-0.02515576,-0.00870776,0.00058997,-0.02913663,-0.01151822,0.98590916,0.16340422,0.03539607,0.00541423
1756342057211,0.07479130,-0.12228702,-0.06523328,0.00554817,-0.04495692,-0.02692437,0.98591395,0.16343612,0.03513757,0.00525942
1756342057222,0.09017159,-0.08699792,-0.02881827,0.01618358,-0.02310423,-0.00789361,0.98590404,0.16352432,0.03501165,0.00521640
1756342057233,-0.05941032,0.08804893,-0.01226530,0.02090273,-0.03525814,-0.02037655,0.98589242,0.16363929,0.03481773,0.00510433
1756342057244,0.04228101,0.07518832,0.00126135,0.04896604,-0.03458139,-0.01028580,0.98585398,0.16391350,0.03462407,0.00504673
1756342057256,0.08381058,0.06271214,0.06118429,0.04774744,-0.04707747,-0.00234725,0.98581720,0.16419282,0.03434867,0.00503299
1756342057267,0.04795550,-0.00616810,0.03269927,0.06184058,-0.05700186,0.00139167,0.98577175,0.16452985,0.03403801,0.00504058
1756342057277,-0.02680137,0.04707395,0.08566509,0.04160363,-0.04164486,-0.02073375,0.98574307,0.16475035,0.03381729,0.00493069
1756342057288,-0.01234356,-0.07083566,0.05782053,0.03150857,-0.01378238,0.00608055,0.98571580,0.16492837,0.03373942,0.00496504
1756342057300,-0.11819919,-0.13634233,0.00850803,0.01455783,-0.00888964,0.00014139,0.98570332,0.16501354,0.03368742,0.00496587
1756342057311,-0.00146954,-0.13942285,0.04776013,-0.02322490,0.00289383,-0.03649645,0.98572395,0.16489277,0.03370246,0.00477609
1756342057322,-0.03450669,-0.15996147,-0.10784686,0.01459742,-0.00496307,-0.00450324,0.98571123,0.16497524,0.03367442,0.00475065
1756342057333,0.05340898,0.05044995,-0.01089490,-0.00800233,0.01363751,-0.00805353,0.98571620,0.16493163,0.03374875,0.00470676
1756342057344,0.02730792,0.06240217,-0.06483211,0.00283964,0.01023748,-0.01462273,0.98571189,0.16494781,0.03380710,0.00462341
1756342057355,-0.02736093,0.00567787,-0.02831156,0.01390259,0.00350008,-0.01106890,0.98569871,0.16502428,0.03382635,0.00456253
1756342057366,-0.04683195,0.06863749,-0.02349236,-0.00162995,0.01941106,-0.01243258,0.98569681,0.16501507,0.03393602,0.00449228
1756342057377,-0.07731649,-0.02877115,0.02039575,-0.00382318,0.03273863,-0.00076696,0.98569415,0.16499423,0.03411445,0.00448810
1756342057390,-0.00895856,-0.04202950,0.03932664,-0.00740606,0.03122542,0.01271049,0.98569476,0.16494832,0.03430805,0.00456691
1756342057400,-0.00535016,0.01547757,-0.04307848,-0.01337354,0.01341743,-0.01054323,0.98570403,0.16488011,0.03437648,0.00451314
1756342057411,0.06685262,-0.02448357,-0.09336522,-0.00988256,0.02479092,-0.00308374,0.98570836,0.16482674,0.03451035,0.00449649
1756342057423,0.01823267,0.03099950,-0.12510779,-0.01547631,-0.00041405,-0.01118974,0.98572400,0.16473543,0.03450790,0.00443047
1756342057433,0.12754335,-0.14514307,-0.06119362,-0.00852892,-0.00454052,-0.01461629,0.98573242,0.16469194,0.03448475,0.00435592
1756342057444,-0.04913057,0.00409066,-0.03875809,-0.02040258,-0.02187712,-0.02041065,0.98575606,0.16457870,0.03436333,0.00424264
1756342057455,0.02346154,-0.04963343,-0.04404664,-0.02138105,-0.01507462,-0.01796044,0.98577962,0.16445790,0.03427816,0.00414117
1756342057466,-0.00840225,0.05741539,-0.02520676,-0.01087700,-0.00350781,-0.01718382,0.98579096,0.16439644,0.03425834,0.00404408
1756342057478,-0.02231499,-0.01837395,-0.05268253,-0.01115508,-0.01645462,-0.00583375,0.98580495,0.16433286,0.03416455,0.00401083
1756342057489,-0.03696770,-0.07305336,0.02315824,-0.00953041,-0.00209618,-0.01426012,0.98581492,0.16427758,0.03415239,0.00392812
1756342057500,0.11664288,0.00379478,0.04833683,-0.02179315,-0.01660825,-0.01937295,0.98583697,0.16416535,0.03406686,0.00382835
1756342057511,0.05669595,-0.02182266,0.03718066,-0.01469425,-0.04046971,-0.01688425,0.98585786,0.16408674,0.03385034,0.00373802
1756342057522,0.02088784,-0.01273207,0.01732801,-0.02046651,-0.03182793,-0.03783578,0.98588405,0.16397110,0.03367052,0.00352424
1756342057533,-0.06512698,-0.02864233,0.03427913,-0.03160645,-0.01507679,-0.02456696,0.98591683,0.16379410,0.03358609,0.00338667
1756342057544,-0.09513471,-0.02539301,0.02679759,-0.02090053,0.00409397,-0.00369522,0.98593589,0.16367497,0.03360942,0.00336561
1756342057555,-0.00492187,0.07419113,0.12253572,-0.02974268,0.00294197,0.02238352,0.98596158,0.16351436,0.03362531,0.00348648
1756342057567,-0.10011741,0.08483030,0.01401465,-0.00242238,-0.01966019,0.00230272,0.98596790,0.16349995,0.03350833,0.00350018
1756342057577,0.25961352,0.05319528,0.06556444,-0.00386215,-0.00234330,0.00291441,0.98597159,0.16347986,0.03349614,0.00351533
1756342057588,0.18225266,0.10715005,-0.03431151,0.00821000,-0.01686310,-0.00004204,0.98596725,0.16352502,0.03340340,0.00351510
1756342057600,0.00836290,0.09062252,0.00065659,0.01842470,-0.00697151,-0.02345734,0.98595192,0.16362820,0.03336436,0.00338374
1756342057611,-0.17156567,0.00132386,0.05253231,0.01658892,-0.00805266,0.00706173,0.98593813,0.16371944,0.03332007,0.00342258
1756342057622,-0.14803340,-0.06798351,0.05838571,0.01534847,0.00234824,0.01598834,0.98592270,0.16380769,0.03333357,0.00351451
1756342057633,-0.02848515,-0.11562187,0.01777645,0.00643440,-0.00075265,0.04762960,0.98591599,0.16384308,0.03332943,0.00377648
1756342057644,0.06551585,-0.07586046,-0.04236363,-0.01394025,-0.01408856,0.03061509,0.98593068,0.16376641,0.03325194,0.00394486
1756342057656,0.04844951,0.03252718,-0.07504145,-0.01686155,-0.01849326,-0.00798674,0.98595003,0.16367198,0.03314838,0.00390013
1756342057666,0.03552215,0.10359043,-0.04617361,-0.00935670,-0.02018557,-0.01618729,0.98596276,0.16362005,0.03303635,0.00381029
1756342057677,-0.03483106,0.05780988,0.05127905,-0.00443431,-0.04555167,-0.05260778,0.98597636,0.16359544,0.03278354,0.00351832
1756342057689,0.02083762,0.06667673,0.07725186,-0.00033514,-0.01697918,-0.01802907,0.98598029,0.16359352,0.03268591,0.00341465
1756342057700,-0.05323351,0.08871648,-0.01608006,0.01364029,-0.01115260,-0.01693584,0.98597047,0.16366649,0.03262624,0.00332405
1756342057711,-0.05342715,0.09688917,0.00035526,0.01708566,-0.01591178,0.00146490,0.98595750,0.16376217,0.03253714,0.00333225
1756342057723,0.01216557,0.09862179,0.08530136,0.01203310,-0.02131398,0.00969987,0.98594978,0.16383196,0.03241352,0.00338851
1756342057733,0.06527429,-0.00986240,-0.01421402,0.04104595,-0.03677169,0.00377541,0.98592049,0.16404540,0.03222230,0.00340814
1756342057744,0.04411096,-0.14251986,-0.01784347,0.01315035,-0.02502864,0.01247401,0.98591263,0.16411839,0.03208339,0.00347737
1756342057755,-0.00146402,-0.17672912,-0.01089882,0.00280542,-0.04320311,-0.01052000,0.98591807,0.16413410,0.03184146,0.00341846
1756342057768,-0.03281157,-0.10673452,0.04233662,0.01850559,-0.03322924,-0.02585227,0.98590613,0.16424883,0.03163543,0.00325818
1756342057778,0.16619132,0.05155776,0.07074142,0.01132832,-0.03359587,-0.01812830,0.98590240,0.16430491,0.03146914,0.00316844
1756342057789,-0.06510300,0.14151583,-0.01231401,0.00698618,-0.03004878,-0.00208610,0.98590129,0.16434368,0.03130236,0.00315686
1756342057800,-0.01896806,-0.06551706,0.04344973,0.01960614,-0.01045786,0.00866923,0.98588468,0.16445347,0.03124380,0.00320541
1756342057811,-0.07235068,-0.12398575,0.14617916,0.00518192,0.00305102,0.00788004,0.98587925,0.16448198,0.03126058,0.00324875
1756342057822,-0.08022002,-0.05960214,0.03564037,0.00889719,-0.00692232,-0.00126788,0.98587206,0.16453269,0.03122112,0.00324152
1756342057833,-0.00277684,0.03919048,0.03098976,0.00458674,0.01137878,0.00208881,0.98586589,0.16455769,0.03128314,0.00325291
1756342057844,-0.00953193,0.01329453,-0.02608738,0.02037148,0.01037926,0.00020101,0.98584555,0.16466871,0.03133971,0.00325400
1756342057855,-0.02374643,0.10421876,0.00402554,0.01930854,0.01210034,-0.00037582,0.98582515,0.16477780,0.03140807,0.00325188
1756342057867,-0.03394736,0.03982848,0.00049517,0.03663602,0.01380320,0.01240718,0.98578748,0.16498663,0.03148675,0.00332260
1756342057878,-0.05626741,0.23032410,0.02340295,0.03512777,0.00588979,0.00692020,0.98575427,0.16517808,0.03151885,0.00336032
1756342057889,-0.06031525,0.16386751,-0.03420971,0.04077149,0.01091652,-0.00613367,0.98571450,0.16540436,0.03157944,0.00332627
1756342057900,-0.01935059,0.07570917,-0.05224658,0.04469804,0.01179741,0.00253185,0.98567069,0.16565243,0.03164491,0.00334033
1756342057911,0.04595764,-0.00846588,-0.01354541,0.04376780,0.01138905,0.00524491,0.98562771,0.16589534,0.03170812,0.00336944
1756342057922,0.03477268,-0.09160310,-0.02703368,0.05861674,0.00508961,-0.00276126,0.98557003,0.16623239,0.03173739,0.00335356
1756342057933,0.00545674,0.06397226,0.09342220,0.05935302,0.01009461,-0.01637053,0.98551446,0.16655290,0.03179190,0.00326516
1756342057944,0.03139606,0.06993719,0.08521285,0.04868816,-0.01009528,-0.00116812,0.98547018,0.16682555,0.03173536,0.00325862
1756342057956,0.01094639,-0.03825123,-0.03578982,0.07803399,-0.00370309,0.00188532,0.98539280,0.16728595,0.03171352,0.00326974
1756342057967,-0.00990073,0.14129558,0.10130503,0.08002126,0.00127847,0.00308057,0.98532180,0.16770206,0.03172016,0.00328576
1756342057978,-0.06490219,-0.04812097,-0.10812093,0.07860103,0.00674819,-0.00150404,0.98524151,0.16816581,0.03175998,0.00327688
1756342057989,0.04564488,0.22511472,0.16136638,0.08395481,0.01307777,0.00356892,0.98516686,0.16858978,0.03182602,0.00329491
1756342058001,-0.00577249,-0.16025185,-0.09077855,0.08011647,0.00761904,-0.00045422,0.98508021,0.16908650,0.03187326,0.00329209
1756342058011,-0.05251178,0.06556905,0.18507294,0.08560952,0.01282978,-0.00988640,0.98500397,0.16951883,0.03193805,0.00324217
1756342058021,-0.03463056,-0.02942878,0.04293509,0.08726309,0.00974982,0.00690313,0.98493093,0.16993333,0.03198436,0.00327496
1756342058032,-0.03816391,-0.20486509,-0.09212013,0.06504319,0.00576008,-0.01449500,0.98486667,0.17030082,0.03201691,0.00319306
1756342058043,-0.05871105,-0.06130540,-0.03569584,0.06242036,0.02719192,-0.00889916,0.98480194,0.17064726,0.03216782,0.00314367
1756342058054,-0.09200532,0.02955380,0.04208849,0.04878937,0.02437889,0.00472102,0.98475093,0.17091560,0.03230190,0.00316963
1756342058066,0.01727180,0.00872997,0.00820316,0.02213388,0.03581757,0.01498065,0.98472051,0.17104840,0.03251681,0.00325952
1756342058076,-0.08045745,0.08457217,0.08824603,0.05182750,0.01404150,0.03217075,0.98467067,0.17131790,0.03258983,0.00342681
1756342058087,-0.04126420,-0.07829545,-0.05101857,0.04413636,0.03036066,0.03676558,0.98462170,0.17156286,0.03275833,0.00363085
1756342058100,0.01518084,-0.01991296,-0.09799863,0.01539288,0.03684560,0.01622736,0.98459786,0.17165522,0.03297940,0.00372822
1756342058110,-0.03438130,-0.08336042,-0.09524122,0.01254865,0.00124505,0.03544114,0.98458591,0.17171859,0.03298569,0.00390720
1756342058121,0.16740848,-0.08749144,-0.18685729,0.00819209,0.00773246,0.01552113,0.98457610,0.17176446,0.03302899,0.00399411
1756342058132,0.06450436,-0.11468263,-0.09377858,0.01176984,-0.00334210,0.00730409,0.98456457,0.17183332,0.03300944,0.00403684
1756342058143,0.00331945,-0.07769771,-0.05292424,-0.00119344,0.00646768,0.01361998,0.98456422,0.17182693,0.03304404,0.00410971
1756342058154,-0.03491794,-0.06445807,-0.08335364,-0.00635302,-0.00154308,0.00707676,0.98457055,0.17179136,0.03303540,0.00414934
1756342058166,0.02755955,0.01686834,-0.19671814,-0.00324655,-0.00518884,0.00861207,0.98457450,0.17177317,0.03300634,0.00419757
1756342058177,0.07414515,-0.02858402,-0.10165160,0.01164892,-0.00382575,0.01415878,0.98456369,0.17183724,0.03298530,0.00427544
1756342058188,0.04928243,-0.03227150,0.04840285,0.00636165,-0.00784558,0.01984938,0.98455850,0.17187255,0.03294176,0.00438561
1756342058199,-0.04154531,-0.08289775,-0.01685037,0.00148130,-0.00156443,0.00622362,0.98455715,0.17188107,0.03293276,0.00442139
1756342058210,-0.03930094,-0.03002721,-0.13368746,-0.01592790,0.01241891,-0.00828783,0.98457036,0.17179347,0.03300107,0.00437581
1756342058221,-0.10147568,-0.01625581,-0.06403805,-0.02886982,0.00771078,-0.01218778,0.98459692,0.17163468,0.03304348,0.00430878
1756342058232,-0.01304047,-0.02052186,0.01651594,-0.04989410,0.02368884,-0.02429154,0.98464211,0.17135278,0.03317732,0.00417153
1756342058244,-0.05255404,-0.01983076,-0.11537669,-0.01812611,0.00489611,-0.00045102,0.98465886,0.17125127,0.03320474,0.00416900
1756342058255,0.07083086,0.05230272,-0.12021444,-0.01810551,0.01541895,0.01065081,0.98467267,0.17115441,0.03328723,0.00422598
1756342058266,0.02247174,-0.06577295,-0.02802067,-0.01721841,0.01310823,0.00249661,0.98468764,0.17105282,0.03336457,0.00424071
1756342058277,-0.03803207,-0.08845513,0.07999516,-0.04577576,0.01421383,-0.01557107,0.98472718,0.17081250,0.03343919,0.00415897
1756342058288,-0.14306995,-0.15181917,0.20304294,-0.03884024,0.00686840,-0.02989624,0.98476394,0.17059693,0.03347731,0.00399304
1756342058299,0.01387823,-0.07799548,-0.03492246,-0.03295336,0.00369858,-0.02695249,0.98479578,0.17041240,0.03349802,0.00384211
1756342058310,0.01115250,-0.02724632,-0.14665844,-0.03603937,0.04522435,-0.02082538,0.98482225,0.17021238,0.03374901,0.00372653
1756342058321,-0.02176941,0.06119623,-0.15770728,-0.04442452,0.02694554,0.00304332,0.98485963,0.16996582,0.03389856,0.00374342
1756342058332,0.00293532,0.02561678,0.03438279,-0.03707525,0.04437138,0.00114333,0.98488707,0.16975635,0.03414926,0.00374988
1756342058344,0.00046679,0.16477750,-0.01587092,-0.03564066,0.03874847,-0.00362769,0.98491422,0.16955498,0.03436819,0.00372938
1756342058355,0.02599012,0.13608630,-0.09627068,-0.01393082,0.02170644,-0.02971704,0.98492384,0.16947836,0.03448758,0.00356594
1756342058366,-0.00648245,0.14830685,0.04366196,-0.01942081,0.01519150,-0.02877531,0.98493999,0.16937057,0.03457189,0.00340623
1756342058377,0.05740417,0.03642456,0.10288375,-0.01460968,0.01631780,-0.01060992,0.98495125,0.16928730,0.03466490,0.00334576
1756342058388,-0.00695517,-0.03736290,-0.00224684,-0.00504500,0.03028737,-0.00979712,0.98495035,0.16926030,0.03482694,0.00329334
1756342058399,-0.05355353,0.08460164,0.15437682,-0.00759993,0.03321645,-0.01249868,0.98495131,0.16921699,0.03501627,0.00322210
1756342058410,-0.16366523,0.14610330,0.16269770,0.00347172,0.02000250,0.01052345,0.98494386,0.16923625,0.03512728,0.00328051
1756342058421,-0.14621355,0.20519690,0.06525402,0.04107824,0.01203950,0.00273497,0.98490260,0.16946218,0.03519350,0.00329555
1756342058433,0.04533600,0.12136034,0.01245562,0.02725499,0.02275863,0.02387685,0.98487047,0.16961890,0.03532436,0.00343284
1756342058444,0.01868705,0.18644742,-0.04047686,0.05844343,0.02408650,0.01548449,0.98481274,0.16992573,0.03545082,0.00351413
1756342058455,-0.05549922,-0.09850162,0.01406487,0.06556398,0.00500761,0.00391020,0.98474823,0.17029289,0.03547886,0.00353603
1756342058466,-0.07078564,-0.02456283,0.15989286,0.06451075,0.03125301,-0.00380440,0.98467883,0.17065737,0.03565544,0.00351454
1756342058477,-0.18547452,0.00764819,0.22107617,0.04184374,0.03294954,0.01867350,0.98463154,0.17088960,0.03583831,0.00361817
1756342058488,-0.04933695,-0.11697550,0.08345060,0.06123454,0.02297621,0.03490558,0.98456595,0.17123558,0.03596813,0.00381539
1756342058499,-0.05435907,0.00467495,-0.01867316,0.07394255,0.00464867,0.04052166,0.98449397,0.17163857,0.03599346,0.00403623
1756342058511,0.12585870,0.02040022,-0.08209797,0.07011202,0.00641661,0.04536394,0.98442369,0.17202769,0.03602907,0.00428800
1756342058522,-0.01675490,0.09952558,-0.01916069,0.05948166,0.01753002,0.03284507,0.98436100,0.17236079,0.03612724,0.00447194
1756342058533,-0.11060465,-0.12646098,-0.01585425,0.06733318,0.03401649,0.03073854,0.98428644,0.17274122,0.03631943,0.00464561
1756342058544,0.10870149,0.07064677,0.02386287,0.04305287,0.03317468,0.06996970,0.98423575,0.17298016,0.03650355,0.00503394
1756342058555,-0.08689519,0.04593258,-0.07037573,0.06529375,0.02096335,0.07038813,0.98416496,0.17334581,0.03662095,0.00542811
1756342058566,-0.02587032,-0.01877159,-0.02976714,0.08091750,0.03986440,0.07769055,0.98407584,0.17379085,0.03684020,0.00585541
1756342058577,0.26895980,0.13177060,0.26698940,0.02881442,0.03482559,0.11603539,0.98403664,0.17394933,0.03703174,0.00649361
1756342058589,0.17309489,-0.01369822,0.27284405,0.06068076,-0.00346081,0.08026309,0.98397361,0.17429218,0.03701219,0.00694709
1756342058600,0.06454373,-0.08691127,0.03497899,0.05336674,0.02807415,0.06914417,0.98391300,0.17458570,0.03716660,0.00732739
1756342058611,-0.16269635,-0.01584026,-0.22901205,0.04295938,-0.00465156,0.05199169,0.98386905,0.17482627,0.03714055,0.00761854
1756342058622,-0.06650848,0.09600236,-0.17055341,0.02553416,0.00419478,0.03071976,0.98384214,0.17496543,0.03716341,0.00778596
1756342058633,0.16323671,-0.10526183,-0.00217822,0.02641667,0.00741415,0.02330480,0.98381218,0.17511865,0.03720641,0.00792113
1756342058644,0.05050226,-0.08655516,0.03788550,0.01734644,-0.02180528,0.03388912,0.98379845,0.17521232,0.03708866,0.00810413
1756342058655,0.11414159,-0.11575413,0.05582107,0.02079359,-0.03639126,0.00898361,0.98378508,0.17532772,0.03688669,0.00815399
1756342058666,0.05660047,-0.14972516,-0.01644800,0.03932061,-0.04001559,-0.00316010,0.98375461,0.17554595,0.03666461,0.00813645
1756342058677,0.07823599,0.01207561,0.01966413,0.02686695,-0.02537680,0.01122994,0.98373231,0.17569775,0.03652123,0.00819990
1756342058688,0.00531816,0.00777826,-0.04366680,0.03812177,-0.03375337,0.02808606,0.98370100,0.17590361,0.03633896,0.00835157
1756342058699,0.02945975,-0.01793691,0.06600782,0.01918160,-0.02098353,0.01178101,0.98368542,0.17601198,0.03622040,0.00841813
1756342058711,0.08495611,-0.09709269,0.04014409,0.01064674,-0.03157941,0.01438304,0.98368051,0.17607214,0.03604198,0.00849939
1756342058722,0.01041389,-0.12597373,0.00492974,0.00488547,-0.01142900,-0.01725048,0.98367874,0.17610023,0.03597626,0.00840020
1756342058733,0.00282710,-0.04907799,0.00548286,0.00443973,-0.01109689,-0.01123538,0.98367712,0.17612465,0.03591523,0.00833841
1756342058745,-0.04121675,0.03329840,-0.01292971,-0.01218933,-0.00157333,-0.01582476,0.98369029,0.17605700,0.03590650,0.00825058
1756342058755,0.03085382,-0.01833260,0.04478965,-0.00694690,0.01687997,0.00313193,0.98369347,0.17602018,0.03599596,0.00826718
1756342058766,-0.03860099,0.05323491,0.03720007,-0.00266419,0.02019425,0.00942458,0.98369160,0.17600566,0.03610602,0.00831854
1756342058777,0.01956457,-0.05336447,-0.09212962,0.01080203,0.01708399,0.01226174,0.98367668,0.17606615,0.03620169,0.00838721
1756342058791,-0.03492414,0.00933403,-0.12667885,0.00475925,0.00877679,0.00425829,0.98366850,0.17609827,0.03626093,0.00841595
1756342058800,-0.08952961,0.09271834,0.04366102,0.01393432,0.01514032,0.00630668,0.98365451,0.17616098,0.03632906,0.00844433
1756342058810,0.05700680,0.12273093,-0.07516452,0.01181951,0.01022167,0.00700209,0.98364084,0.17622421,0.03638375,0.00848179
1756342058822,0.05862732,0.05548102,-0.02915823,0.02464035,0.00452894,0.01164288,0.98361461,0.17636220,0.03640911,0.00854699
1756342058832,-0.01916302,0.02077818,0.04113661,0.01646830,0.01457549,0.00424406,0.98359554,0.17645113,0.03648782,0.00856991
1756342058844,-0.06420001,-0.08513365,-0.03491580,0.01506207,0.01068595,0.00969499,0.98357771,0.17653547,0.03654766,0.00862420
1756342058855,0.04711263,0.08842579,0.03444257,0.00533005,0.01955875,-0.00933367,0.98356866,0.17656559,0.03665817,0.00857147
1756342058866,0.03769940,0.00555687,-0.07366066,0.01118472,0.00558983,0.00157332,0.98355628,0.17662766,0.03668919,0.00858020
1756342058879,0.03438523,-0.00707162,-0.07411411,0.01542411,-0.00167244,0.00475687,0.98353854,0.17672715,0.03667840,0.00861088
1756342058888,-0.09211006,-0.09565296,-0.06620700,0.02098764,0.00167864,0.00955310,0.98352052,0.17682369,0.03668613,0.00865483
1756342058899,-0.04750621,-0.09805672,-0.03279720,0.00127926,0.00192473,-0.00012937,0.98351882,0.17683092,0.03669700,0.00865410
1756342058910,0.03298162,-0.10729087,-0.05974708,-0.01352252,0.00361893,-0.00374282,0.98353174,0.17675587,0.03671709,0.00863332
1756342058922,0.00182395,-0.01435420,-0.06446408,-0.01435316,0.00110556,-0.00051744,0.98354572,0.17667693,0.03672317,0.00863048
1756342058933,0.01670690,0.00150010,0.00381072,-0.01572449,0.00267947,0.00470241,0.98356088,0.17658809,0.03673831,0.00865705
1756342058944,0.03923631,-0.06784906,-0.05900217,-0.00810123,-0.00875773,0.01928301,0.98356982,0.17654312,0.03668970,0.00876407
1756342058956,0.03162817,-0.05590485,0.02185662,-0.01524663,-0.00722828,0.01011504,0.98358818,0.17644707,0.03664416,0.00882779
1756342058966,-0.01568155,-0.16704539,-0.05151887,-0.04812926,-0.00344383,-0.02000368,0.98363241,0.17620883,0.03662712,0.00872877
1756342058977,0.08241258,0.08705816,0.00371646,-0.04051503,0.00251655,-0.02206064,0.98367212,0.17599005,0.03664070,0.00860965
1756342058990,0.04614438,-0.00182338,-0.06337315,-0.02130651,0.01266166,-0.01028289,0.98369337,0.17585795,0.03671921,0.00854589
1756342058999,-0.01565572,-0.06080105,-0.09735775,-0.04051253,0.03367604,-0.00407059,0.98372284,0.17565944,0.03688422,0.00852595
1756342059012,-0.04873243,0.01000820,0.09461859,-0.04320351,0.02704019,0.01959685,0.98376295,0.17539374,0.03705052,0.00864647
1756342059022,0.09404935,-0.09628573,-0.09095766,-0.05491339,0.00848778,0.02422484,0.98380919,0.17511917,0.03709296,0.00876759
1756342059033,0.04917003,0.09388302,0.07450581,-0.04409468,-0.00848314,-0.03065119,0.98385641,0.17487224,0.03704545,0.00859594
1756342059044,0.00727465,-0.06522117,-0.06157505,-0.03909190,-0.02560277,-0.05571270,0.98390253,0.17465723,0.03690463,0.00828952
1756342059056,-0.08538107,0.14601263,0.00733006,-0.03314491,0.00800830,-0.05862643,0.98394012,0.17445173,0.03695429,0.00792604
1756342059067,-0.06286216,0.14451067,-0.08412343,-0.02801169,0.00073688,-0.00487134,0.98396748,0.17429767,0.03695834,0.00789925
1756342059077,-0.22281499,0.14063320,0.00593541,-0.00237866,-0.00134427,0.01732181,0.98396911,0.17428601,0.03695175,0.00798412
1756342059089,-0.00609055,0.02863965,0.13610668,-0.00110190,-0.00866490,0.00529890,0.98397204,0.17427924,0.03689846,0.00801671
1756342059101,0.04286912,0.06877331,0.01832667,0.00222836,-0.01375730,0.01745291,0.98397192,0.17429172,0.03682142,0.00811445
1756342059110,0.16593911,-0.05775674,-0.02048056,-0.00959475,-0.01342798,0.00889386,0.98398234,0.17424470,0.03675562,0.00815803
1756342059121,0.05091870,-0.12703512,0.09365289,-0.01820620,-0.01111008,-0.02251015,0.98400356,0.17414366,0.03669396,0.00803310
1756342059133,-0.04180100,-0.04824777,0.08811011,-0.02943466,-0.01732262,-0.03170659,0.98403807,0.17397735,0.03659609,0.00785396
1756342059144,0.02460386,-0.01537088,-0.03257265,0.01076795,-0.00571094,-0.02245735,0.98402974,0.17403658,0.03656468,0.00773044
1756342059155,-0.07156343,0.06537631,-0.01683845,-0.00103986,-0.01543935,-0.00766820,0.98403436,0.17403070,0.03647745,0.00768711
1756342059166,-0.00233396,0.01610432,0.08682327,0.01396624,0.00481556,0.00687161,0.98401909,0.17410961,0.03650466,0.00772594
1756342059177,0.04783455,-0.04183180,0.02465617,0.02105395,0.01822336,0.02225028,0.98399390,0.17422541,0.03660489,0.00784832
1756342059189,0.04164334,0.08816391,0.09362166,-0.00386766,0.02371207,0.01478819,0.98399214,0.17420394,0.03673649,0.00793039
1756342059200,-0.00286527,-0.04163022,0.03407197,-0.00469674,0.03543958,-0.00101342,0.98398931,0.17417670,0.03694204,0.00792451
1756342059212,-0.05173528,-0.05882539,-0.00868665,0.00285879,0.01623823,0.00218502,0.98398256,0.17419371,0.03703865,0.00793751
1756342059224,-0.08313551,-0.02964702,-0.01034533,0.00215027,0.01939425,0.00218481,0.98397573,0.17420672,0.03715599,0.00795073
1756342059234,-0.01813389,-0.00041465,0.02852770,-0.01652419,0.02298614,0.01757717,0.98398520,0.17412492,0.03726977,0.00803774
1756342059245,0.01746404,0.00036861,-0.02152697,-0.00807578,0.01820543,0.01687532,0.98398835,0.17408253,0.03736535,0.00812633
1756342059257,0.04939997,0.05162255,0.05876190,-0.00320947,0.01087396,-0.00414894,0.98398955,0.17406215,0.03743440,0.00809999
1756342059273,0.03073643,0.02633718,0.01453631,-0.00643119,0.00165586,0.00412983,0.98399776,0.17401134,0.03744748,0.00813261
1756342059276,-0.69792836,0.96965831,1.60129719,-0.01047209,-0.07920478,-0.00998305,0.98400444,0.17399720,0.03734055,0.00811914
1756342059286,0.14973267,-0.23394133,-0.46312800,0.00861126,-0.01121879,-0.00609981,0.98399889,0.17404284,0.03728109,0.00808681
1756342059298,-0.04156649,0.06377433,-0.06195120,0.02558103,-0.02528101,-0.00664335,0.98397902,0.17418738,0.03713826,0.00804927
1756342059309,-0.02100563,0.17107919,0.08122177,0.03370671,-0.03096899,-0.00249122,0.98395199,0.17437782,0.03696328,0.00803520
1756342059320,0.06976227,0.09979144,0.05533599,0.04409825,-0.00043971,0.01694087,0.98390632,0.17463138,0.03696075,0.00813261
1756342059332,-0.01487299,0.10366025,0.11808255,0.02691797,-0.00930927,0.01125866,0.98388031,0.17478616,0.03690722,0.00819734
1756342059342,0.08407404,0.07901834,-0.00392093,0.06656286,-0.03282762,-0.00338230,0.98382423,0.17513894,0.03673324,0.00817942
1756342059354,0.02258215,0.06985143,0.02044196,0.06764652,-0.04405927,-0.00059456,0.98376541,0.17552115,0.03648430,0.00817606
1756342059365,0.05215163,-0.02296334,0.02222638,0.07142123,-0.04230423,0.00703558,0.98370014,0.17593539,0.03623894,0.00821687
1756342059376,0.08514727,0.02934830,-0.02209989,0.07829498,-0.02341541,0.01113484,0.98362791,0.17636210,0.03611133,0.00827755
1756342059388,0.08839067,-0.01827340,0.01810638,0.04961479,-0.00154011,0.01090293,0.98357741,0.17664242,0.03610262,0.00833915
1756342059399,-0.05210831,-0.01440211,0.08346077,0.05176662,0.00277823,-0.00020750,0.98352474,0.17693231,0.03611818,0.00833799
1756342059410,-0.11166368,-0.04419031,0.09883423,0.05879026,0.00393281,0.01465768,0.98346395,0.17726154,0.03614021,0.00842007
1756342059421,-0.12131804,-0.07002425,0.05038470,0.05318258,-0.01007037,0.02298692,0.98341024,0.17756468,0.03608280,0.00855110
1756342059433,0.04006335,-0.08381223,-0.01155943,0.03621099,-0.00041351,0.02833368,0.98337263,0.17776565,0.03608051,0.00870835
1756342059444,0.04837393,-0.13041154,-0.10065882,0.01689648,-0.00066430,0.03250176,0.98335386,0.17786112,0.03607676,0.00889199
1756342059454,0.11276967,-0.10006079,0.06636166,-0.00558739,-0.01626597,0.01363664,0.98336180,0.17783122,0.03598973,0.00896494
1756342059466,0.05268110,-0.11313802,0.05249902,-0.01021017,-0.02410800,0.00240546,0.98337694,0.17777405,0.03585473,0.00897841
1756342059477,0.01647930,-0.26569799,0.04026881,-0.00983786,-0.03617299,-0.00883545,0.98339424,0.17772043,0.03565759,0.00893026
1756342059491,-0.05976888,0.00976023,-0.09066826,-0.01170432,-0.00730452,-0.02047160,0.98341232,0.17763792,0.03560609,0.00878593
1756342059499,0.01071552,-0.09566413,0.29435848,-0.03042842,-0.01822843,-0.02058812,0.98343735,0.17751772,0.03553409,0.00870461
1756342059510,-0.04192219,0.18080245,-0.33313627,0.00309921,0.00245897,-0.00175736,0.98343384,0.17753492,0.03554773,0.00869486
1756342059534,-0.04544090,0.06274122,-0.10396972,0.00274794,0.00113185,0.00787567,0.98342661,0.17756762,0.03556120,0.00878858
1756342059544,0.29473933,0.19413028,0.34880276,0.03962317,0.00231305,0.02866490,0.98338573,0.17778357,0.03557381,0.00894480
1756342059553,-0.14616606,-0.04922835,-0.17697091,0.02136786,0.00073504,-0.00281137,0.98336834,0.17787973,0.03557712,0.00893215
1756342059568,-0.08583115,-0.07105646,-0.12199176,0.00362467,0.00476440,-0.01230687,0.98336318,0.17790582,0.03561142,0.00884354
1756342059596,-0.02085459,-0.02725483,-0.04443423,0.00376676,0.00486264,-0.00505194,0.98335188,0.17795818,0.03567901,0.00877332
1756342059608,0.40400025,0.30476847,-0.11421569,0.05367017,0.03527100,-0.00735678,0.98328569,0.17828289,0.03589240,0.00872881
1756342059618,-0.18259970,-0.11349914,0.06669537,0.04574609,-0.00390654,-0.00505637,0.98324391,0.17851848,0.03587228,0.00870277
1756342059629,-0.11761751,-0.09278869,0.11204597,0.03706064,0.00733488,0.00036844,0.98320609,0.17871861,0.03591189,0.00870476
1756342059641,-0.01519492,-0.02554413,0.02967363,-0.00257724,-0.01816730,0.00688527,0.98321257,0.17870301,0.03580198,0.00874642
1756342059650,0.20344754,-0.04945368,0.05006310,0.06128499,-0.00403108,-0.02419750,0.98316241,0.17898799,0.03578323,0.00863390
1756342059662,-0.18406194,0.02901997,-0.01118486,0.03552703,-0.01871805,-0.01930487,0.98313036,0.17919049,0.03567654,0.00852386
1756342059673,0.00205186,0.10055084,-0.00222976,0.04268008,-0.01628545,0.00208346,0.98308888,0.17943590,0.03558290,0.00853584
1756342059684,0.16289816,0.03322543,-0.05983865,0.06644444,-0.00753156,0.02553789,0.98302056,0.17981131,0.03554035,0.00868013
1756342059695,0.11656115,0.09366564,0.07469329,0.02788868,0.00523940,0.03744730,0.98299102,0.17995773,0.03556785,0.00887673
1756342059707,0.04876352,-0.07854096,0.08330172,0.02566367,0.00845207,0.03315239,0.98296023,0.18010658,0.03561687,0.00906901
1756342059718,-0.02472103,-0.01484604,0.10433414,0.02303040,-0.04908619,-0.03360275,0.98294747,0.18024361,0.03532481,0.00886907
1756342059728,0.02524360,0.21631664,0.05408582,0.00700456,-0.06307657,-0.06395827,0.98295494,0.18027758,0.03501889,0.00855888
1756342059740,-0.10322425,0.00549192,-0.23776143,0.03812697,-0.03693453,-0.03915640,0.98292285,0.18050634,0.03479728,0.00832394
1756342059751,-0.01175711,0.22699900,-0.00859874,0.05534119,-0.02897216,-0.01678118,0.98287466,0.18080242,0.03464228,0.00823416
1756342059762,0.02289055,0.15662572,0.16724000,0.06499631,-0.07543859,0.02871507,0.98282299,0.18115340,0.03423491,0.00838922
1756342059773,-0.01409039,0.02108463,0.13458489,0.08511977,-0.09900643,0.02641297,0.98275164,0.18163858,0.03367058,0.00853977
1756342059785,0.09089989,-0.20793876,-0.05246160,0.07709590,-0.06820902,0.02288045,0.98267633,0.18211658,0.03324768,0.00868163
1756342059795,0.17074476,0.13855195,0.04784859,0.06894004,-0.09305116,0.03992273,0.98262774,0.18245094,0.03279638,0.00887526
1756342059806,-0.12454086,-0.24458987,-0.09343668,0.06440753,-0.06662069,0.01092427,0.98257401,0.18280196,0.03243330,0.00893480
1756342059817,-0.27793093,-0.08026886,0.16655788,0.03308179,-0.02369945,0.00363513,0.98254453,0.18298225,0.03230414,0.00895461
1756342059828,-0.06668658,-0.03892945,0.08646762,0.02460995,-0.04564142,0.00733272,0.98252637,0.18312376,0.03204170,0.00899677
1756342059840,0.01668247,0.00136594,0.03349257,0.04752775,-0.04339146,0.01367760,0.98248316,0.18339467,0.03179437,0.00907473
1756342059851,0.08163763,-0.04678112,-0.05320205,0.05769203,-0.03773897,0.02269688,0.98242746,0.18372351,0.03157926,0.00920410
1756342059863,-0.03690757,-0.11248159,-0.15237409,0.03955414,-0.03435653,0.03468793,0.98238867,0.18395490,0.03137827,0.00940703
1756342059874,0.03499567,-0.16487805,0.02104532,0.01225031,0.00236812,0.02318325,0.98237415,0.18402351,0.03139153,0.00953686
1756342059886,0.02580240,-0.05812263,0.15139727,-0.01411472,0.00037001,-0.00186134,0.98238952,0.18394164,0.03139368,0.00952606
1756342059897,-0.00303650,-0.11266689,-0.01651098,0.01108112,-0.00440202,-0.01282534,0.98237920,0.18400480,0.03136859,0.00945296
1756342059908,-0.07590129,-0.02920595,0.01300450,-0.00416304,-0.01017561,0.00328616,0.98238520,0.18398149,0.03131160,0.00947136
1756342059919,-0.05250592,0.03568274,-0.19021411,-0.01547584,0.00296392,0.00615416,0.98240029,0.18389637,0.03132791,0.00950521
1756342059930,0.04539118,0.03789222,-0.17430765,-0.00192107,0.00846707,0.02344938,0.98239952,0.18388562,0.03137532,0.00963652
1756342059942,0.00799182,0.07593435,-0.04346004,-0.00090715,0.00663423,0.01248328,0.98239857,0.18388040,0.03141347,0.00970830
1756342059953,0.02756197,-0.00207177,0.08282892,-0.01894555,-0.00861331,0.02287524,0.98241851,0.18377525,0.03136566,0.00983526
1756342059965,-0.00720208,-0.04815510,-0.05881701,-0.03906914,-0.02171750,0.01489606,0.98246440,0.18354670,0.03123862,0.00992240
1756342059997,-0.04140710,-0.00560034,-0.05202475,-0.01418785,-0.00464841,0.00141262,0.98250934,0.18331756,0.03116354,0.00994521
1756342060006,1.48494079,-1.80686683,0.17958043,-0.15898465,-0.08402222,-0.08214487,0.98265320,0.18262598,0.03079805,0.00958788
1756342060017,-0.93667060,1.00668829,-0.34410609,-0.07493939,-0.01024273,-0.01619935,0.98273090,0.18222131,0.03074274,0.00950041
1756342060027,-0.05514610,0.00931073,-0.08160081,-0.08386308,-0.01471205,0.00271972,0.98281631,0.18177264,0.03066403,0.00951496
1756342060039,0.06852572,0.04088311,0.03184751,-0.08066280,-0.02819203,0.00799824,0.98290579,0.18131286,0.03050333,0.00956055
1756342060050,0.03039919,-0.09078507,-0.02229809,-0.04655133,-0.02848261,0.02136606,0.98295992,0.18104054,0.03033671,0.00968554
1756342060061,0.04351401,-0.06419185,0.03086170,-0.09151876,-0.05086826,0.01505546,0.98306118,0.18053261,0.03005439,0.00976910
1756342060072,0.16485398,-0.24973061,-0.11986093,-0.08746047,-0.03712444,0.00536987,0.98315447,0.18005595,0.02985206,0.00979836
1756342060083,-0.14522167,-0.06398455,-0.02741659,-0.11493229,-0.03962560,-0.00930341,0.98327490,0.17943531,0.02963808,0.00974812
1756342060096,-0.04009801,0.02169057,0.03475745,-0.12655777,-0.02944851,-0.01163985,0.98342276,0.17865698,0.02945698,0.00967654
1756342060109,-0.00032015,0.03014330,0.04192952,-0.11769170,-0.04090149,0.00212732,0.98357709,0.17785080,0.02917680,0.00969111
1756342060118,0.55007177,-1.09893069,-0.51608351,-0.17282075,-0.05523390,0.01248091,0.98371929,0.17709902,0.02893653,0.00974540
1756342060127,0.01318601,-0.01409317,-0.20605705,-0.17389043,-0.05516228,0.01036502,0.98387481,0.17627305,0.02867451,0.00979464
1756342060139,-0.15144240,0.19487545,0.09099386,-0.14582677,-0.02967672,-0.02615542,0.98402976,0.17544183,0.02850536,0.00964555
1756342060151,-0.15425641,0.19350400,0.09979537,-0.13763722,-0.02102000,-0.06894302,0.98418939,0.17458848,0.02837503,0.00921810
1756342060162,-0.01239620,-0.09242755,-0.02017680,-0.11810705,-0.01225785,-0.05676938,0.98430704,0.17395070,0.02830884,0.00891155
1756342060173,-0.13591467,0.44578357,0.08426252,-0.09798851,-0.01657710,-0.02536642,0.98440780,0.17340197,0.02821601,0.00876950
1756342060185,-0.18272645,0.12272262,0.13231717,-0.05738075,-0.02257671,0.00338017,0.98446886,0.17307490,0.02808732,0.00878877
1756342060196,0.00911564,0.26838301,-0.00733603,-0.01668637,-0.00369484,0.02086664,0.98448539,0.17297812,0.02806589,0.00890979
1756342060207,-0.05390660,0.32649541,-0.07101253,0.01022665,-0.00751964,-0.00740397,0.98447690,0.17303539,0.02802378,0.00886833
1756342060219,0.09411690,0.44617586,-0.09840138,0.01082707,-0.00395068,0.00541061,0.98446651,0.17309656,0.02800146,0.00889890
1756342060230,-0.09335836,0.13910396,0.00933584,0.00141643,-0.00995870,0.00618597,0.98446638,0.17310456,0.02794519,0.00893385
1756342060241,0.03859415,0.07741305,-0.01053151,0.03480741,-0.00165382,0.01463001,0.98443192,0.17329774,0.02793601,0.00901505
1756342060253,0.06740962,-0.01050611,0.01546986,0.03705260,-0.03908048,0.03232755,0.98439902,0.17351080,0.02771130,0.00920093
1756342060264,0.15612450,-0.10044181,-0.00861443,0.01201683,-0.04613012,0.02630212,0.98439290,0.17357929,0.02744836,0.00935085
1756342060275,0.17557493,-0.21903629,0.02973116,-0.02487752,-0.06348204,0.01434053,0.98442564,0.17344371,0.02710238,0.00942901
1756342060286,0.03524936,-0.38166178,0.29517747,-0.06967219,-0.06011532,0.00811456,0.98450307,0.17305354,0.02676574,0.00947445
1756342060297,0.05215565,-0.37735532,-0.02854098,-0.08079902,-0.05589657,0.00916353,0.98459124,0.17259703,0.02644992,0.00952622
1756342060309,0.04667918,-0.25183418,-0.16991221,-0.08914329,-0.03847402,-0.02685242,0.98468667,0.17209337,0.02623254,0.00937451
1756342060320,-0.05114206,-0.04549957,-0.17668969,-0.11401744,-0.05411684,-0.01478307,0.98480579,0.17146057,0.02593219,0.00929246
1756342060331,0.07070963,-0.01288937,0.01326180,-0.12581002,-0.05134541,0.00102702,0.98493567,0.17075604,0.02564466,0.00929821
1756342060342,0.11577868,-0.16710588,-0.17601667,-0.11774208,-0.06186397,0.01190747,0.98505590,0.17010846,0.02530441,0.00936370
1756342060353,0.06019903,-0.02784464,-0.04190088,-0.15015452,-0.06582077,0.02095468,0.98520901,0.16926759,0.02493581,0.00948105
1756342060364,0.08038822,-0.23819302,-0.16165167,-0.14108451,-0.07412007,0.00568645,0.98535583,0.16847046,0.02451703,0.00951318
1756342060376,0.10488613,-0.60277057,-0.13632519,-0.16775400,-0.07649317,-0.00764033,0.98553001,0.16751427,0.02408102,0.00946963
1756342060387,-0.12639864,0.02765855,0.14078392,-0.19418408,-0.07999252,-0.00930546,0.98571687,0.16647538,0.02365306,0.00941984
1756342060398,0.03861075,0.15460350,-0.05932673,-0.20548982,-0.08956828,-0.02470917,0.98592190,0.16533491,0.02315596,0.00928271
1756342060409,0.17402154,0.37057700,0.06364637,-0.19092135,-0.09160492,-0.07192207,0.98611622,0.16426575,0.02264297,0.00887994
1756342060420,-0.12615832,-0.11059737,-0.59279012,-0.15289057,-0.10393683,-0.04063177,0.98627648,0.16339428,0.02205053,0.00864834
1756342060431,0.17610031,0.09276875,-0.05632928,-0.15612298,-0.07295601,-0.04939732,0.98642958,0.16253560,0.02164927,0.00837666
1756342060442,-0.16286050,0.29800595,0.28807069,-0.19872691,-0.08202043,-0.02390180,0.98662341,0.16142273,0.02118996,0.00824281
1756342060461,-0.15177109,0.21356204,0.34573731,-0.11112592,-0.04883790,0.01045134,0.98680362,0.16037259,0.02072844,0.00834157
1756342060463,55.15269292,-34.07425141,-39.96594804,-1.17253435,-0.86367068,0.16974935,0.98698926,0.15931731,0.01995114,0.00849435
1756342060474,-8.09438980,4.83211565,5.56235323,-0.15179618,-0.18015930,0.00563913,0.98714153,0.15849002,0.01896927,0.00852508
1756342060485,-0.23263883,0.11783428,0.63157655,-0.13441029,-0.13751633,-0.03324152,0.98727817,0.15773732,0.01819918,0.00833893
1756342060497,-0.09156621,0.75960154,0.18478287,-0.16237695,-0.12024832,-0.08944121,0.98744074,0.15681989,0.01751977,0.00783359
1756342060508,-0.32126724,-0.17889296,-0.41945531,-0.07843451,-0.09359506,-0.11311025,0.98752735,0.15636497,0.01697692,0.00717755
1756342060519,-0.02447854,0.06846207,-0.28978096,-0.08752517,-0.07260822,-0.08805352,0.98761285,0.15588796,0.01658121,0.00669765
1756342060530,0.24462678,0.00483885,0.30228057,-0.07980047,-0.03839251,-0.01524877,0.98768878,0.15543310,0.01636237,0.00661074
1756342060542,0.04980058,0.04084748,0.14061537,-0.09986545,-0.06448489,-0.00099257,0.98778258,0.15487385,0.01600125,0.00660518
1756342060553,-0.05679584,-0.47131612,-0.20002887,-0.06272955,-0.08243059,-0.00796497,0.98784693,0.15451316,0.01552728,0.00655938
1756342060564,-0.01284286,-0.04723324,-0.12626921,-0.08489009,-0.06512186,-0.07105869,0.98793013,0.15403353,0.01515934,0.00615790
1756342060575,-0.15351419,-0.01703493,0.23148331,-0.13295981,-0.03973311,-0.10057477,0.98804940,0.15330890,0.01494279,0.00560977
1756342060586,0.07475038,-0.48537576,0.34916954,-0.14351206,-0.01659622,-0.10048847,0.98817477,0.15252676,0.01485235,0.00506210
1756342060598,-0.11863857,-0.03621713,0.03282559,-0.12485304,0.01504458,-0.10998263,0.98828413,0.15182758,0.01493660,0.00444620
1756342060609,-0.23520647,0.36160024,0.03611251,-0.14302686,0.04013737,-0.09396378,0.98840565,0.15102663,0.01516136,0.00392000
1756342060620,-0.12085740,0.48024124,-0.25499336,-0.15086133,0.03722407,-0.06876420,0.98853373,0.15017426,0.01537168,0.00353149
1756342060631,-0.12517946,-0.09453532,-0.02376869,-0.11462824,0.04060074,-0.05218902,0.98862763,0.14953807,0.01559701,0.00324184
1756342060642,0.00176367,0.15631416,0.12782355,-0.10627500,0.04514012,-0.04291529,0.98871420,0.14894293,0.01584980,0.00300151
1756342060653,0.05820726,-0.16425322,-0.05254030,-0.11847158,0.04202389,-0.02378012,0.98880966,0.14828542,0.01608303,0.00286953
1756342060665,-0.21977063,0.32450441,0.17045891,-0.08097817,0.04747797,-0.00610025,0.98887386,0.14782789,0.01635128,0.00283507
1756342060676,-0.02378432,0.04417928,0.04873692,-0.08465154,0.03779483,-0.01456790,0.98894012,0.14736231,0.01655915,0.00275494
1756342060687,0.02912263,0.16212053,0.18453423,-0.06143725,0.04067091,-0.03025336,0.98898751,0.14702133,0.01678488,0.00258704
1756342060698,-0.09709624,0.21577395,0.05132634,-0.05061850,0.01846118,-0.01208728,0.98902803,0.14673787,0.01688826,0.00251935
1756342060710,-0.02179131,0.13202851,-0.02766140,-0.02191557,0.01451195,0.01516796,0.98904639,0.14660199,0.01697823,0.00261339
1756342060720,0.06445203,-0.00580610,-0.49664237,-0.01321068,-0.00673426,0.02690973,0.98905609,0.14653792,0.01694557,0.00274390
1756342060732,-0.11783697,-0.05240062,0.16102463,-0.01544139,-0.00967812,0.00506636,0.98906999,0.14644990,0.01689041,0.00277278
1756342060742,0.03020452,-0.21386341,0.03205862,-0.04648913,-0.02730119,0.02632074,0.98910887,0.14620119,0.01674435,0.00291359
1756342060753,-0.00333059,-0.08472584,0.12842766,-0.06587332,-0.03045717,0.01171599,0.98916600,0.14583229,0.01657379,0.00297920
1756342060765,0.05797008,-0.04371514,0.05036745,-0.06372364,-0.05053621,0.00877838,0.98922310,0.14547544,0.01629078,0.00302836
1756342060776,-0.09503292,-0.10334830,0.07887732,-0.05366944,-0.06132877,0.01568749,0.98927257,0.14517489,0.01594734,0.00311621
1756342060787,-0.11240618,0.01180688,0.13293162,-0.07832920,-0.05628613,0.01765720,0.98934094,0.14474017,0.01563495,0.00321421
1756342060798,0.03062457,0.00112798,-0.03956280,-0.08289673,-0.04765161,0.00924275,0.98941276,0.14427595,0.01536811,0.00326597
1756342060809,0.04359929,0.02982280,-0.03554806,-0.08766605,-0.05416493,-0.00130080,0.98948823,0.14378940,0.01506749,0.00325875
1756342060820,0.03786901,0.04625654,-0.08948945,-0.07231747,-0.04227746,-0.00355130,0.98955120,0.14338080,0.01482862,0.00323869
1756342060832,-0.08257392,0.23639610,0.06981623,-0.05352230,-0.03661110,-0.01726519,0.98959752,0.14308376,0.01462543,0.00314286
1756342060842,-0.05255893,0.27490276,-0.14803639,-0.00918273,-0.04352219,-0.01177872,0.98960844,0.14303371,0.01438823,0.00307867
1756342060854,-0.03348385,0.26631667,0.00557991,0.00180424,-0.02779625,0.01177718,0.98960902,0.14304381,0.01423258,0.00314462
1756342060865,-0.12721327,0.09218513,0.07522016,0.01485801,-0.01951112,0.00349588,0.98959840,0.14312776,0.01412234,0.00316437
1756342060876,-0.10672427,0.18634244,0.29105271,0.05619532,-0.01623424,0.00270521,0.98955487,0.14343684,0.01403305,0.00317925
1756342060887,0.03572822,0.26863452,0.24591957,0.08351535,-0.01726369,0.00618335,0.98948882,0.14390035,0.01393724,0.00321357
1756342060898,-0.01416504,0.23392224,-0.00676360,0.11357915,-0.02908916,0.01663742,0.98939808,0.14453639,0.01377434,0.00330674
1756342060909,-0.09455440,0.16670444,-0.11992181,0.12778518,-0.00450522,0.01430512,0.98929430,0.14524560,0.01374933,0.00338613
1756342060921,-0.14823794,0.07566443,-0.11284587,0.14807686,0.01740128,0.00718022,0.98916959,0.14608223,0.01384765,0.00342670
1756342060943,0.05342752,-0.25943747,0.13994864,0.06929425,0.01208076,0.01335889,0.98905433,0.14684447,0.01398054,0.00357365
1756342060952,-0.91100712,2.81021406,-0.24513091,0.30586222,0.06687904,0.09529055,0.98883598,0.14826673,0.01429153,0.00401675
1756342060962,0.64536856,-1.56587117,0.28498724,0.14210538,0.01259803,0.05982311,0.98872373,0.14899857,0.01435641,0.00432484
1756342060974,0.12772658,-0.39309508,0.10816722,0.08334062,-0.00857293,0.06553783,0.98865039,0.14947778,0.01430711,0.00470168
1756342060986,-0.11002874,-0.41104974,0.18715488,0.05715636,0.00104966,0.04560782,0.98859838,0.14981214,0.01431325,0.00496849
1756342060997,-0.01106457,-0.31992350,-0.00553228,0.05239963,-0.02338020,0.02173282,0.98855553,0.15010296,0.01418349,0.00508910
1756342061008,0.02661778,-0.26264187,0.07143736,0.00610540,-0.01160682,0.01097901,0.98855095,0.15013715,0.01411849,0.00515059
1756342061019,0.31883543,-0.17604848,-0.11023818,-0.02523476,-0.01048389,0.00996387,0.98857294,0.14999584,0.01405978,0.00520638
1756342061030,0.00431784,-0.18477963,-0.05624052,0.00080269,-0.00943315,0.00724842,0.98857279,0.15000045,0.01400554,0.00524806
1756342061042,0.10121619,-0.11454496,-0.00901064,-0.04448301,-0.00759311,0.00274656,0.98861074,0.14975357,0.01396340,0.00526331
1756342061053,-0.02729414,-0.21990488,-0.06446828,-0.06482387,-0.00150594,-0.01524703,0.98866623,0.14939056,0.01395497,0.00517792
1756342061064,-0.05480043,-0.18943642,-0.02208470,-0.05627378,0.02163738,0.00332830,0.98871361,0.14906417,0.01408047,0.00519723
1756342061075,-0.04011713,-0.04597944,0.02119167,-0.07069742,0.03437381,0.00011346,0.98876893,0.14867887,0.01426780,0.00519785
1756342061086,0.09796420,0.09697448,-0.03666031,-0.05417034,0.02196724,-0.00635323,0.98881212,0.14838093,0.01438862,0.00516290
1756342061098,-0.04845723,0.21085834,-0.02671747,-0.04007624,-0.00137685,-0.02544016,0.98884693,0.14815450,0.01438084,0.00501917
1756342061109,0.00437101,0.15690886,-0.04621023,-0.02142961,-0.00580999,-0.02462446,0.98886589,0.14803557,0.01434860,0.00488250
1756342061120,-0.12997932,0.14066814,-0.14310231,-0.01239799,0.00207810,-0.02533985,0.98887710,0.14796428,0.01436055,0.00473680
1756342061131,-0.06125055,0.06511648,0.01396178,-0.00634373,0.02875927,-0.00893103,0.98888018,0.14793002,0.01451585,0.00468857
1756342061142,-0.12540825,0.25779438,0.18270958,-0.00337674,0.02532160,0.00485228,0.98888079,0.14791111,0.01465765,0.00471574
1756342061153,0.04698564,0.24917984,0.24444801,0.00376845,0.00203503,0.01986415,0.98887696,0.14793203,0.01466894,0.00482599
1756342061165,-0.01680450,-0.01328044,-0.05401328,0.07150566,-0.00811771,0.03354084,0.98881618,0.14833603,0.01462308,0.00501549
1756342061176,-0.08948232,0.13232072,0.02605416,0.03345409,-0.00758353,0.02357048,0.98878800,0.14852338,0.01458061,0.00514749
1756342061187,-0.22905917,0.06399846,0.11558516,0.03574853,-0.02210284,0.01411127,0.98875983,0.14871999,0.01445904,0.00522510
1756342061198,0.07313779,-0.16240748,0.02970493,0.03975316,-0.01498028,-0.01508973,0.98872770,0.14894460,0.01437440,0.00513984
1756342061209,0.01998847,-0.14555323,0.11999076,0.01098432,-0.01717254,-0.00966158,0.98872017,0.14900556,0.01427910,0.00508622
1756342061220,0.27768092,-0.13303528,0.06192188,0.02062176,-0.00502057,-0.00324195,0.98870341,0.14912001,0.01425123,0.00506823
1756342061232,-0.00952508,0.04796391,0.05470295,0.04741838,0.00025303,-0.00826559,0.98866318,0.14938793,0.01425266,0.00502153
1756342061243,-0.02287322,0.10879057,0.11887798,0.04022843,0.00762405,0.02525343,0.98862841,0.14960918,0.01429460,0.00516042
1756342061254,-0.09370245,-0.02522260,-0.01485969,0.03830142,0.02149494,0.02572180,0.98859341,0.14982367,0.01441497,0.00530446
1756342061265,-0.04086415,-0.01876900,-0.06747337,0.04733446,0.02734889,0.01042147,0.98855065,0.15008874,0.01456812,0.00536282
1756342061276,0.09514224,0.00784642,0.12914926,0.04501781,0.03327565,0.00253862,0.98851023,0.15033634,0.01475114,0.00537679
1756342061287,0.06994925,0.01921141,0.21674416,0.03419042,0.01581708,0.01814020,0.98847976,0.15052439,0.01483813,0.00547656
1756342061298,0.06681912,0.06773573,0.05862056,0.04915477,0.02311888,0.02360437,0.98843472,0.15080211,0.01496875,0.00560992
1756342061309,-0.01946190,0.07280444,-0.08651253,0.05129876,0.00613807,0.02699408,0.98838986,0.15108682,0.01500282,0.00575974
1756342061321,-0.08245176,-0.00979010,-0.14301170,0.04279821,0.01267635,0.01432496,0.98835164,0.15132649,0.01507381,0.00583996
1756342061332,-0.03204541,-0.01411828,-0.04897855,0.02691319,0.03374724,0.00714179,0.98832589,0.15147452,0.01525942,0.00587924
1756342061343,-0.03501577,0.01250092,-0.09548635,0.02264495,0.02466350,-0.00098936,0.98830452,0.15160019,0.01539630,0.00587375
1756342061354,0.12892816,0.02777867,0.01556795,0.02024100,-0.00073182,0.02261036,0.98828676,0.15171152,0.01539227,0.00599810
1756342061365,0.09927388,-0.05004645,-0.06706525,0.04131544,-0.01943234,0.00658018,0.98825237,0.15194495,0.01528248,0.00603528
1756342061377,0.03267191,0.00769692,0.06858828,0.01732908,-0.02427967,0.01190068,0.98823854,0.15204633,0.01514044,0.00610490
1756342061389,0.04350417,-0.09512757,-0.02313713,0.01415412,-0.01841307,0.01214188,0.98822670,0.15213125,0.01502997,0.00617775
1756342061411,-0.00591604,-0.10286792,-0.16594468,-0.00924070,-0.01661172,0.00078451,0.98824530,0.15202822,0.01484475,0.00618650
1756342061421,0.31209551,-0.50836409,0.59668878,-0.04326143,-0.04013546,-0.01350516,0.98828124,0.15181624,0.01464808,0.00612032
1756342061431,-0.10097509,0.07512777,-0.54046089,-0.00730729,-0.01805600,-0.03565607,0.98828975,0.15177751,0.01455238,0.00593135
1756342061442,0.01784453,0.14991685,-0.01134565,-0.02031598,-0.02053938,-0.01465681,0.98830922,0.15166476,0.01443839,0.00585000
1756342061453,-0.06356764,0.05325631,-0.11463831,0.00118351,-0.01544307,-0.01160125,0.98830983,0.15167126,0.01435345,0.00578620
1756342061467,-0.01264899,0.03577302,-0.05711305,-0.00410435,-0.00917732,0.00559646,0.98831461,0.15164438,0.01429334,0.00582285
1756342061476,0.03080711,-0.00235497,0.02509002,0.00345551,-0.01978096,0.00467227,0.98831331,0.15166097,0.01419839,0.00584528
1756342061487,0.02364482,-0.22724271,0.07764613,0.00669469,-0.02046065,0.01132082,0.98830889,0.15169779,0.01408586,0.00590754
1756342061499,0.12015217,0.02479717,-0.03928280,0.00267399,-0.06018062,0.01632492,0.98831087,0.15171343,0.01373380,0.00600304
1756342061509,0.22681579,0.04332678,-0.00773519,-0.00652087,-0.08359395,-0.01347342,0.98832256,0.15167920,0.01329494,0.00593231
1756342061521,0.21550666,0.06082297,-0.23092413,-0.03487813,-0.10371749,-0.00462338,0.98836064,0.15148213,0.01270893,0.00590619
1756342061532,0.11493096,-0.09144395,0.03538084,-0.03927108,-0.11325935,-0.01531621,0.98840279,0.15126222,0.01207468,0.00582042
1756342061543,0.12655143,-0.24063364,0.00355445,-0.04451510,-0.10754476,0.00120114,0.98844884,0.15100848,0.01146167,0.00582726
1756342061555,0.18973039,0.17772279,0.13499291,-0.07781875,-0.16663457,-0.01877284,0.98852700,0.15056880,0.01052019,0.00572120
1756342061566,-0.02897451,-0.14841729,-0.04668115,-0.00473328,-0.13881418,-0.01954457,0.98853952,0.15054254,0.00974977,0.00561272
1756342061577,0.09687544,0.24366859,-0.11516723,-0.06070486,-0.19728110,-0.01740720,0.98860371,0.15019348,0.00861540,0.00551263
1756342061588,0.13432644,0.25793900,0.22934496,-0.00140341,-0.18694747,0.05833484,0.98861167,0.15018555,0.00755915,0.00584222
1756342061599,0.37490531,0.05915632,-0.04489676,-0.00277253,-0.23397432,0.05778176,0.98862051,0.15017127,0.00635418,0.00613980
1756342061610,-0.09924445,0.12192384,0.22858319,-0.04013726,-0.26477272,0.00772359,0.98866094,0.14995654,0.00493765,0.00618112
1756342061621,0.36438906,-0.26595006,-0.22032538,0.00693872,-0.23156409,0.03492589,0.98865943,0.14999540,0.00364089,0.00637671
1756342061632,0.03955956,-0.05392696,0.00527461,-0.01514252,-0.25774431,-0.00404496,0.98867553,0.14991666,0.00230062,0.00635567
1756342061642,0.07400836,0.48431332,0.23074803,-0.00624555,-0.21927188,-0.01308688,0.98868353,0.14988106,0.00105077,0.00628108
1756342061654,0.27655895,0.14492973,0.11924598,0.00682960,-0.24304054,0.03759019,0.98867674,0.14991998,-0.00033456,0.00649534
1756342061665,-0.34414764,-0.09979556,-0.20175533,0.02442591,-0.32071596,0.06973884,0.98865135,0.15005555,-0.00211453,0.00688239
1756342061676,0.53978820,-0.30663228,0.06190100,0.05647067,-0.33847639,0.08478062,0.98859666,0.15035767,-0.00392538,0.00733597
1756342061688,-0.02432607,0.34557057,0.39816232,0.01147613,-0.33164230,0.07332879,0.98857313,0.15042595,-0.00589865,0.00777227
1756342061699,0.18017379,-0.30591730,0.10256083,0.01895142,-0.38562093,0.10923075,0.98853638,0.15053303,-0.00807741,0.00838943
1756342061710,0.61639325,-0.08565203,0.25081272,-0.01486077,-0.43210685,0.10536330,0.98852130,0.15045055,-0.01047561,0.00897419
1756342061722,0.06080582,0.27572089,-0.10075854,-0.05623790,-0.51563132,0.14054992,0.98852694,0.15012156,-0.01349205,0.00979641
1756342061733,1.15204615,-0.08301314,0.31260688,-0.07650053,-0.57847623,0.19550319,0.98853091,0.14968933,-0.01676044,0.01090100
1756342061743,0.54130490,-0.63128786,-0.61600572,-0.03321175,-0.85031225,0.22326225,0.98846423,0.14952825,-0.02088445,0.01198383
1756342061755,-0.66954411,0.02599227,-0.32914470,-0.02363018,-0.68494960,0.09784377,0.98838074,0.14938293,-0.02509689,0.01258557
1756342061765,1.14041284,-0.43205509,0.13990243,-0.05360213,-0.84220796,0.04033318,0.98830533,0.14912296,-0.02918160,0.01278118
1756342061776,-1.23114624,0.04284243,-0.07212780,-0.07050389,-0.64238633,-0.00843442,0.98824947,0.14870698,-0.03297168,0.01273142
1756342061787,0.49252922,0.45810748,0.85174233,-0.13251106,-0.64589264,-0.00565547,0.98823534,0.14801130,-0.03636262,0.01270173
1756342061792,12.15605509,-2.07622846,0.33310481,-0.15829731,-1.35219119,0.22927828,0.98815682,0.14761556,-0.03974310,0.01327492
1756342061809,-4.75107669,0.71047982,-0.70728177,0.00402720,-0.38010847,0.05664394,0.98800450,0.14765100,-0.04308805,0.01377339
1756342061814,17.87600562,4.56001702,4.84287739,-0.01557239,-1.41875076,0.47055423,0.98785358,0.14761674,-0.04620930,0.01480861
1756342061832,-4.37147968,-1.00738244,-0.96633830,0.00985461,-0.31551887,0.12927897,0.98768623,0.14770493,-0.04903320,0.01596566
1756342061845,0.19634008,-0.26044004,0.06127352,0.03002277,-0.40645798,0.17860308,0.98750287,0.14790008,-0.05167517,0.01712658
1756342061847,70.48568944,16.37017188,16.74481925,-0.04771636,-2.24811541,0.94921058,0.98736623,0.14784998,-0.05403569,0.01812325
1756342061862,-10.02057008,-2.23291440,-2.63563669,0.02187863,-0.27937447,0.15022614,0.98720010,0.14801735,-0.05617291,0.01927248
1756342061872,0.91026992,0.51906447,0.28311531,-0.00136167,-0.37019861,0.17767813,0.98707505,0.14801048,-0.05804241,0.02016975
1756342061897,-0.81895592,-0.34907876,-0.16550061,0.02993633,-0.13978329,0.07759568,0.98689646,0.14838019,-0.05976874,0.02112806
1756342061907,3.30275940,-0.68851711,1.19481220,-0.03039890,-0.52663602,0.24855859,0.98672547,0.14822516,-0.06245458,0.02239571
1756342061917,-1.87957344,0.42686983,-1.16884455,-0.03034429,-0.22548303,0.08415483,0.98666601,0.14807192,-0.06359327,0.02282069
1756342061927,0.18797298,-0.03826795,-0.20397772,-0.04759250,-0.18181287,0.13096064,0.98662732,0.14783395,-0.06450233,0.02347549
1756342061939,-0.32531291,0.37348113,0.08319862,-0.05367218,-0.13432719,0.07437589,0.98661245,0.14752534,-0.06527471,0.02390315
1756342061950,-0.13701181,-0.54646981,-0.29115010,-0.03636772,-0.12964338,0.04599949,0.98658765,0.14731622,-0.06602016,0.02416765
1756342061962,-0.73491277,0.15348403,0.19817839,-0.06441531,-0.07470816,-0.00750667,0.98661582,0.14693617,-0.06646094,0.02412336
1756342061974,0.44066826,0.14927218,-0.06325020,-0.07142509,-0.05941328,0.03999985,0.98664929,0.14651119,-0.06681445,0.02436136
1756342061984,0.28155747,0.27653897,-0.44749516,-0.04950682,-0.05498734,0.03055511,0.98666343,0.14626614,-0.06708664,0.02451261
1756342061995,-0.73722928,-0.17761899,0.08399423,-0.03393219,-0.01265424,-0.02338357,0.98669025,0.14607442,-0.06715814,0.02438049
1756342062006,0.29095245,0.28062746,0.34851694,-0.08307849,0.00180461,-0.03075404,0.98676262,0.14561749,-0.06714821,0.02421134
1756342062018,0.06778889,-0.62025091,-0.63367963,-0.03873119,-0.00783742,-0.05505760,0.98680011,0.14539478,-0.06719327,0.02389476
1756342062028,0.08678767,-0.04215031,0.37644887,-0.09229824,0.02008922,-0.07163278,0.98688676,0.14491483,-0.06708881,0.02352227
1756342062039,0.06183350,0.15757704,-0.00947993,-0.07444897,-0.00372277,-0.02482602,0.98694922,0.14450164,-0.06710947,0.02338449
1756342062051,-0.01197392,-0.13470960,0.02656269,-0.05881629,-0.04409215,-0.00071193,0.98698150,0.14416345,-0.06736300,0.02338039
1756342062062,0.10937947,-0.16302805,-0.13324267,-0.03917585,-0.05213019,-0.04937762,0.98700023,0.14394210,-0.06765754,0.02310141
1756342062073,0.17401643,-0.12312050,0.13084244,-0.06445174,-0.06643262,-0.06577762,0.98703357,0.14360373,-0.06800631,0.02275608
1756342062084,-0.16528543,0.22386187,0.51610955,-0.05508370,-0.05095416,-0.06772456,0.98706887,0.14328149,-0.06830439,0.02235989
1756342062095,-0.13149990,-0.43335165,0.01595065,-0.06973682,-0.05041684,-0.05168514,0.98711009,0.14291189,-0.06857160,0.02208596
1756342062107,-0.01738131,0.16240055,0.21931788,-0.09090738,-0.02872631,-0.04159763,0.98718127,0.14237553,-0.06874109,0.02184053
1756342062118,0.09196858,-0.24714635,-0.58647037,-0.08533107,-0.03741143,-0.06992870,0.98724349,0.14190195,-0.06894872,0.02145243
1756342062129,-0.19034408,0.31293654,0.07702803,-0.05309315,-0.03820563,-0.05212609,0.98727751,0.14160462,-0.06916267,0.02116052
1756342062140,-0.03651851,0.11723347,-0.01893731,-0.03877462,-0.04570355,-0.02365016,0.98729393,0.14138167,-0.06942547,0.02102453
1756342062152,-0.09713496,0.06114161,-0.01066828,-0.04843878,-0.05017908,-0.04729413,0.98731985,0.14109588,-0.06972152,0.02074550
1756342062163,-0.24560655,-0.43274821,0.11782686,-0.04626334,-0.02670795,-0.07714749,0.98735430,0.14084375,-0.06986708,0.02032504
1756342062175,-0.26026426,0.28034916,0.26622550,-0.07904868,0.01058182,-0.09550016,0.98743310,0.14039712,-0.06980729,0.01978547
1756342062186,-0.00933584,0.13817037,0.01307017,-0.05854943,0.00997969,-0.07493105,0.98749245,0.14006632,-0.06975091,0.01936211
1756342062197,-0.51813890,0.17481353,0.20912273,-0.03884981,-0.00155147,-0.06106359,0.98752965,0.13984682,-0.06975967,0.01901710
1756342062208,0.04038047,0.18409664,-0.03218586,-0.02568678,-0.02615845,-0.02435154,0.98754249,0.13970040,-0.06990878,0.01887829
1756342062220,0.22014915,-0.09458359,-0.22253438,-0.01148327,-0.02763966,-0.04035726,0.98754487,0.13963724,-0.07006080,0.01865633
1756342062231,-0.15601210,0.03301779,0.11932937,-0.02937221,-0.02414447,-0.03167756,0.98756215,0.13946982,-0.07019842,0.01847577
1756342062242,-0.24273963,0.06848874,0.08223834,-0.02811355,-0.02701762,-0.03588256,0.98757707,0.13931520,-0.07034702,0.01827841
1756342062253,-0.00699339,0.14829127,-0.00735834,-0.03494261,-0.03538298,0.00491870,0.98759013,0.13911777,-0.07054693,0.01830620
1756342062265,0.02333959,0.03617636,-0.03921051,0.00349036,-0.02841954,0.00433234,0.98757541,0.13913749,-0.07070750,0.01833068
1756342062275,-0.03797382,-0.00181783,0.22221944,-0.00689819,-0.03704684,-0.01325598,0.98756750,0.13909955,-0.07091126,0.01825777
1756342062287,-0.00142051,0.04269883,0.61124985,0.00237964,-0.03838368,-0.00152894,0.98755047,0.13911276,-0.07112429,0.01824929
1756342062298,-0.07096499,0.19533657,0.04331034,-0.00387528,-0.03068157,0.00499538,0.98754045,0.13909067,-0.07129917,0.01827776
1756342062309,-0.21205442,0.07198546,-0.23605170,0.02331342,-0.01807354,0.00691532,0.98751426,0.13922006,-0.07139948,0.01831614
1756342062320,-0.29527635,0.19179142,-0.53516902,0.02779190,-0.01685273,0.01258463,0.98748363,0.13937847,-0.07149554,0.01838787
1756342062331,-0.07837216,0.15495982,0.00213874,0.04443566,-0.01959851,0.02239551,0.98743940,0.13962065,-0.07160235,0.01850993
1756342062342,-0.09677512,0.16364782,-0.04749770,0.07364785,-0.01064751,0.03868577,0.98737318,0.14002939,-0.07166145,0.01872464
1756342062357,0.01478506,-0.05029641,-0.12263434,0.05062629,-0.02023771,0.02931107,0.98730496,0.14040403,-0.07181121,0.01894154
1756342062376,0.02615024,-0.08806719,-0.04301410,0.02993488,-0.00627263,0.02316791,0.98725770,0.14067793,-0.07186860,0.01915352
1756342062384,-1.30953626,1.16241646,2.30645657,0.06212893,-0.01652159,0.08695908,0.98720533,0.14095441,-0.07194212,0.01954049
1756342062395,0.56953687,-0.88508255,-0.81152719,0.05120164,-0.00882681,0.06965225,0.98715435,0.14123345,-0.07199023,0.01992010
1756342062407,0.13573286,-0.11459677,-0.33773735,0.03914082,0.00158800,0.05649914,0.98711485,0.14146634,-0.07198078,0.02025627
1756342062418,0.06709694,0.17885064,-0.77519426,0.02855339,0.01603443,0.06547846,0.98709109,0.14162481,-0.07189179,0.02061967
1756342062429,-0.00967529,-0.03047717,-0.09094776,0.03191253,0.01254926,0.06086921,0.98706361,0.14180193,-0.07182214,0.02095750
1756342062441,0.07814959,-0.02416276,-0.05491361,0.00073464,-0.00687062,0.03952670,0.98705550,0.14180604,-0.07186061,0.02117885
1756342062452,0.05687116,-0.09071622,-0.04543796,0.02126390,-0.01677939,0.00900640,0.98703001,0.14192725,-0.07195626,0.02123018
1756342062463,-0.00836131,-0.02326384,-0.06830720,0.02175953,0.00304956,-0.02099570,0.98701612,0.14205019,-0.07193903,0.02111156
1756342062474,-0.03234483,0.02006204,0.02583550,0.00451276,0.00151288,0.01058937,0.98701183,0.14207546,-0.07193055,0.02117086
1756342062486,-0.05533145,0.02995072,0.40098099,0.02963834,0.03249984,0.01095312,0.98699964,0.14224440,-0.07174531,0.02123329
1756342062497,-0.12329270,0.13368380,0.08602980,0.01325315,0.03402163,0.04710391,0.98699706,0.14231861,-0.07155478,0.02149707
1756342062509,0.02569856,-0.06146856,-0.21945883,0.01755439,0.02543482,0.04363997,0.98698776,0.14241780,-0.07141108,0.02174364
1756342062520,0.11265295,-0.17341251,-0.44024297,0.02292082,0.01878895,0.03315641,0.98697287,0.14254501,-0.07130680,0.02192766
1756342062531,-0.01355717,-0.10205979,0.02386097,0.01447654,0.02804158,-0.00836884,0.98697353,0.14262608,-0.07114977,0.02188079
1756342062542,-0.01187911,-0.04276481,-0.04086415,0.02262367,0.01809400,-0.00502773,0.98696313,0.14275277,-0.07104844,0.02185264
1756342062553,0.05965742,-0.05141077,-0.09412186,0.04163269,0.02637697,0.00294526,0.98694006,0.14298175,-0.07090337,0.02186883
1756342062565,0.04201723,0.06869028,-0.03273697,0.03589793,0.02681153,0.01579076,0.98691918,0.14318816,-0.07074920,0.02195963
1756342062575,-0.07686180,0.06304159,0.13674498,0.03483836,0.03642053,0.01952893,0.98690345,0.14337803,-0.07055071,0.02206606
1756342062587,-0.13599557,-0.17328095,0.44351900,0.04857289,0.04696929,0.03572259,0.98687840,0.14364761,-0.07029003,0.02226432
1756342062598,0.00521397,-0.03462494,-0.07500751,0.01302913,0.03939165,0.03562595,0.98687894,0.14372057,-0.07006944,0.02246383
1756342062609,0.08552962,-0.08743028,0.03516218,-0.01462027,0.04135131,0.01844665,0.98690492,0.14363870,-0.06983787,0.02256713
1756342062620,0.20831418,-0.13657203,-0.40195775,-0.02519424,0.00751622,0.00425879,0.98692808,0.14349635,-0.06979540,0.02259119
1756342062631,0.13682111,-0.10337279,-0.03614762,-0.05075309,0.00867220,-0.01393651,0.98697334,0.14321975,-0.06974814,0.02251524
1756342062642,0.06293533,-0.11774055,-0.06674973,-0.03653090,0.00636582,-0.02402043,0.98700858,0.14301518,-0.06971249,0.02238072
1756342062653,-0.02449491,-0.02545380,-0.04664874,-0.03913931,0.01999655,-0.02574662,0.98705109,0.14279795,-0.06960151,0.02223783
1756342062665,-0.01611279,0.06276453,-0.04594970,-0.03687976,0.02864185,-0.02137775,0.98709493,0.14259143,-0.06944111,0.02211812
1756342062676,-0.07952746,0.11590483,0.10344789,-0.03798829,0.04388312,-0.02509072,0.98714558,0.14238059,-0.06919756,0.02197886
1756342062687,0.08175623,0.06361505,0.21188892,-0.02661684,0.05486252,-0.00510648,0.98718880,0.14223287,-0.06889308,0.02195052
1756342062698,0.01057347,0.16634938,-0.06381271,-0.01476730,0.04807558,-0.01885903,0.98722240,0.14214869,-0.06861905,0.02184302
1756342062709,-0.07659827,0.03586510,-0.19676719,-0.01514733,0.03412394,-0.02415101,0.98724984,0.14206690,-0.06843478,0.02171261
1756342062720,-0.05722788,-0.01953035,-0.13463585,-0.00819443,0.04942943,-0.02355476,0.98727899,0.14202019,-0.06815303,0.02157835
1756342062731,-0.09339176,-0.03840275,0.01492719,-0.01118245,0.04858586,-0.01187646,0.98730741,0.14195925,-0.06788824,0.02151362
1756342062743,-0.08245513,0.03652539,0.10806444,-0.02920237,0.05282200,-0.00711717,0.98735247,0.14179425,-0.06758979,0.02147341
1756342062754,0.01750971,-0.03470476,0.01806626,0.01270108,0.06256397,-0.00540420,0.98736671,0.14186474,-0.06724256,0.02144341
1756342062765,0.01693176,0.16955952,0.06385694,0.00269206,0.04121761,-0.02322003,0.98738290,0.14187968,-0.06701380,0.02131454
1756342062776,-0.07577450,-0.02140726,0.15566435,0.04197927,0.03037232,-0.02556728,0.98736336,0.14211897,-0.06684068,0.02116881
1756342062787,-0.30974928,0.02362382,0.45617314,0.03605348,0.05343757,-0.01218050,0.98735628,0.14231185,-0.06655479,0.02110364
1756342062798,0.12424385,0.12780152,-0.07501095,0.03568544,0.06056743,0.01224748,0.98734866,0.14251526,-0.06620956,0.02117346
1756342062809,-0.10323867,0.03172519,-0.24348286,0.07272000,0.06935831,-0.00620030,0.98731709,0.14291522,-0.06582808,0.02113935
1756342062820,0.14067877,0.13064725,-0.25902519,0.03354928,0.08285510,-0.01246976,0.98732215,0.14310142,-0.06536824,0.02107015
1756342062834,0.08220581,-0.00526536,0.10800289,0.02962411,0.07021753,-0.00654045,0.98732531,0.14329842,-0.06490129,0.02102665
1756342062873,0.10143273,-0.07534108,0.02517414,0.02075109,0.01792918,-0.00293826,0.98728992,0.14371136,-0.06454450,0.02096818
1756342062876,-43.65058467,27.84337297,-15.11727379,0.59306211,1.18320379,0.03565662,0.98727696,0.14442304,-0.06312466,0.02101097
1756342062888,8.16817075,-5.29880897,3.07169680,0.05888479,0.08220279,-0.00693436,0.98725784,0.14477046,-0.06263966,0.02097006
1756342062899,0.06248681,-0.00389257,0.07525633,0.06735474,0.09192882,-0.01676859,0.98723679,0.14515101,-0.06212026,0.02087531
1756342062917,0.19578118,-0.05155602,0.01731790,0.04017677,0.06294729,-0.00618280,0.98722013,0.14551461,-0.06155059,0.02081936
1756342062930,-0.11914474,0.20878332,-0.09130005,0.05757337,0.08683438,-0.01432904,0.98720245,0.14587733,-0.06100353,0.02072909
1756342062940,-0.19887523,0.20249553,-0.12619337,0.11079414,0.13401207,-0.01729259,0.98716421,0.14642022,-0.06034687,0.02064435
1756342062950,0.08987245,0.03391718,-0.00627612,0.06919792,0.11805585,-0.02882636,0.98715060,0.14679735,-0.05970347,0.02048725
1756342062963,0.14852538,-0.14466152,-0.08851812,0.08574187,0.10418179,-0.02705094,0.98711402,0.14732466,-0.05906275,0.02032089
1756342062973,0.05531523,-0.09471648,0.04663654,0.09397199,0.11554076,-0.02481995,0.98707972,0.14780861,-0.05846772,0.02019306
1756342062985,-0.08102720,0.02748930,0.47798352,0.04201617,0.08010658,-0.04084074,0.98707543,0.14805231,-0.05800310,0.01995619
1756342062997,-0.03250714,-0.17666652,0.13319871,0.03981996,0.10067492,-0.03576050,0.98707934,0.14830118,-0.05737388,0.01973268
1756342063009,-0.10281917,-0.11756607,0.04601019,0.01672275,0.11558758,-0.03455304,0.98710821,0.14840068,-0.05668613,0.01952709
1756342063018,-0.19718866,-0.10697255,-0.55869930,0.05168165,0.14236634,-0.03626055,0.98711321,0.14864359,-0.05601701,0.01935667
1756342063029,0.12627563,-0.12249290,-0.13409586,0.02157876,0.13275181,-0.01185846,0.98713711,0.14875903,-0.05530679,0.01929323
1756342063040,0.09509422,0.03122374,0.08703920,0.02274028,0.12095252,0.00250489,0.98715487,0.14888297,-0.05464760,0.01930688
1756342063051,0.03881829,-0.06402909,0.03926836,0.01283159,0.10525738,-0.01708114,0.98717752,0.14895226,-0.05407921,0.01921464
1756342063062,0.03665667,-0.15021347,-0.00310480,0.01897093,0.07949243,-0.03477951,0.98718986,0.14906134,-0.05362213,0.01901466
1756342063074,0.02116397,0.04854575,0.02919044,-0.00053742,0.08247240,-0.06296715,0.98722431,0.14905812,-0.05312729,0.01863685
1756342063085,-0.13775342,-0.21211172,0.27128122,0.00030846,0.10399087,-0.06792293,0.98726064,0.14905977,-0.05257094,0.01827347
1756342063099,0.14513030,0.05286575,-0.09924651,0.02664316,0.09379902,-0.04494471,0.98727332,0.14925160,-0.05189559,0.01794986
1756342063110,-0.20377235,-0.05267403,-0.07148179,0.04433183,0.14224395,-0.03506249,0.98728073,0.14949542,-0.05111325,0.01775702
1756342063118,-0.60778214,0.43457680,-0.49361148,0.04606064,0.23098271,-0.07064512,0.98730345,0.14966585,-0.05025861,0.01749563
1756342063129,0.23407050,-0.01949474,0.19233024,0.00428679,0.16869874,0.01060737,0.98734450,0.14968878,-0.04935607,0.01755238
1756342063139,0.01582403,0.14908581,0.14492468,0.01847217,0.15021458,-0.00192619,0.98737000,0.14978945,-0.04853740,0.01754189
1756342063151,0.11415888,0.04772153,-0.04221998,0.02858304,0.13166823,-0.06521462,0.98738842,0.14995238,-0.04778689,0.01717016
1756342063163,0.05416396,0.12587649,-0.12157385,0.04171493,0.08472034,-0.03918377,0.98737915,0.15019641,-0.04729128,0.01694094
1756342063174,0.03068158,0.15094890,-0.08238292,0.05949690,0.11644996,-0.04449922,0.98736311,0.15054149,-0.04661587,0.01668284
1756342063185,-0.26986813,-0.07706616,0.36553343,0.04386920,0.10313841,-0.03186927,0.98735599,0.15077839,-0.04605892,0.01651075
1756342063195,-0.17884067,-0.09258721,0.29001534,0.06867068,0.10226881,-0.03274753,0.98732942,0.15112861,-0.04553735,0.01634374
1756342063207,0.13945305,-0.08061244,0.03944290,0.07325468,0.07348591,-0.04354526,0.98728872,0.15154616,-0.04511848,0.01609553
1756342063218,0.09890926,0.35869090,-0.33379895,0.09066180,0.10200412,-0.05620943,0.98724168,0.15205386,-0.04454726,0.01578075
1756342063229,-0.07079952,0.10976302,0.02755955,0.07835342,0.12960820,-0.05753046,0.98721158,0.15249264,-0.04382145,0.01545858
1756342063240,-0.24619463,0.13767301,0.05911204,0.12554985,0.16434603,-0.04807784,0.98714849,0.15318317,-0.04291755,0.01519416
1756342063250,-0.34200930,0.20179992,0.15680687,0.14882027,0.16980428,-0.03447893,0.98706883,0.15395703,-0.04203457,0.01501487
1756342063262,0.04662111,0.14418612,0.09685646,0.13118358,0.17787093,-0.03129514,0.98699664,0.15471134,-0.04101181,0.01483492
1756342063274,0.08126964,0.18240058,-0.00265370,0.16358263,0.14311280,0.02081407,0.98687064,0.15573373,-0.04011736,0.01496501
1756342063284,-0.06210249,-0.40980771,0.22728138,0.21700309,0.19653800,-0.00428352,0.98673593,0.15684045,-0.03911501,0.01494316
1756342063296,0.15614216,-0.15496121,0.31310957,0.11399696,0.18200852,0.00044989,0.98667465,0.15747313,-0.03810486,0.01494566
1756342063307,0.06277148,-0.31177494,-0.30686627,0.12327977,0.18194120,-0.03171619,0.98660447,0.15817582,-0.03706780,0.01476487
1756342063318,-0.18620719,-0.17542918,-0.30453589,0.09247643,0.17117504,-0.06728786,0.98656166,0.15870294,-0.03609210,0.01438133
1756342063330,0.01050835,0.29973903,0.17456987,0.06025960,0.18333826,-0.07018430,0.98654967,0.15904943,-0.03503791,0.01397777
1756342063357,0.32778878,-0.24767524,-0.11806734,0.01797383,0.07648022,-0.05079197,0.98655610,0.15929118,-0.03400925,0.01329462
1756342063365,-3.43200054,0.96962522,1.15330947,0.15325954,0.43248304,-0.23106561,0.98652433,0.15995786,-0.03212795,0.01228949
1756342063376,1.73944669,-0.36437506,-0.76717402,0.10690728,0.22607657,-0.11837938,0.98647998,0.16050309,-0.03097496,0.01168575
1756342063389,0.16952797,-0.12909536,0.21869538,0.04637305,0.18527719,-0.09070476,0.98647459,0.16081378,-0.02973360,0.01107803
1756342063392,-23.35982827,7.48649453,11.53171952,0.15422919,0.95133234,-0.24714626,0.98648244,0.16102971,-0.02840173,0.01073203
1756342063409,3.96591393,-1.24752940,-1.98147754,0.05167800,0.13879625,0.00577437,0.98644266,0.16147672,-0.02720115,0.01078197
1756342063420,-0.58543654,0.28947273,-0.03475749,0.08702725,0.20928444,0.00387024,0.98639634,0.16194232,-0.02608147,0.01080268
1756342063425,-2.59411642,2.20570793,1.40086338,0.11846121,0.32045632,0.01977788,0.98636512,0.16226808,-0.02520022,0.01085707
1756342063443,1.33282621,-0.93999732,-0.65568206,0.06286421,0.07277897,0.02798609,0.98628781,0.16281815,-0.02456340,0.01110195
1756342063454,-0.44901227,0.23488593,0.11310104,0.06375528,0.13440307,-0.02423742,0.98624948,0.16316880,-0.02382419,0.01096864
1756342063465,0.04710177,-0.32578147,-0.10085584,0.01529358,0.13192339,-0.05425496,0.98625621,0.16325444,-0.02308542,0.01066481
1756342063470,-5.44675877,-0.34665896,0.41096456,0.07489199,0.38495892,-0.20100728,0.98625273,0.16343419,-0.02216151,0.01018240
1756342063481,2.28436315,0.28773826,-0.04483190,0.04409268,0.16750462,-0.02088117,0.98623327,0.16368551,-0.02120674,0.01006337
1756342063499,0.29433241,0.14667921,-0.04745626,0.09482904,0.11784258,-0.01134976,0.98611850,0.16451053,-0.02018151,0.00996463
1756342063510,-0.85178664,1.98913748,-0.01348301,0.21379683,0.16481964,-0.00136406,0.98592838,0.16576124,-0.01921731,0.00995665
1756342063522,-0.10852522,-0.52619656,-0.25856969,0.27537549,0.19955468,-0.00861887,0.98567661,0.16738595,-0.01803994,0.00990580
1756342063525,-22.02803660,27.21538787,4.19048017,1.15521140,0.80158460,0.05174164,0.98539202,0.16917653,-0.01679748,0.00998600
1756342063537,5.53702408,-6.72301405,-0.47715157,0.31370136,0.22622348,0.01998332,0.98510589,0.17094894,-0.01551932,0.01009890
1756342063554,0.47563314,-0.66435486,-0.06369386,0.20602791,0.14572123,0.02860598,0.98481146,0.17273108,-0.01425883,0.01034635
1756342063566,-0.99136607,0.99285071,0.25848082,0.32065337,0.21082867,0.02571085,0.98449339,0.17462294,-0.01301494,0.01049804
1756342063578,0.30280200,0.30175912,0.10111251,0.28890032,0.17318682,0.06544768,0.98417564,0.17645746,-0.01191521,0.01091363
1756342063587,-2.03756713,2.54012747,0.94119015,0.49073093,0.24410606,0.15133307,0.98381290,0.17849399,-0.01090217,0.01154167
1756342063597,1.46563671,-0.92509190,-0.46850726,0.42680651,0.18017738,0.14841942,0.98339253,0.18079875,-0.00992921,0.01234313
1756342063609,0.03817182,-0.45448777,-0.02496408,0.40915948,0.12601010,0.12620296,0.98294708,0.18319233,-0.00919205,0.01308142
1756342063614,-7.28301766,11.75322279,4.62371653,0.90563009,0.26401250,0.27406521,0.98252763,0.18541112,-0.00854522,0.01375288
1756342063631,2.48755635,-4.41883565,-1.59966559,0.26780059,0.05096195,0.04659158,0.98209339,0.18768743,-0.00811204,0.01414891
1756342063637,-5.20574276,7.28877586,4.54768662,0.73699193,0.17513978,0.11339304,0.98170322,0.18971415,-0.00763041,0.01446074
1756342063654,1.93635841,-2.32539387,-1.38222653,0.22715118,0.05228339,-0.00556534,0.98132559,0.19167901,-0.00717816,0.01441260
1756342063665,-0.67669170,1.54541140,0.81446396,0.35318920,0.06163981,0.05922335,0.98093823,0.19363921,-0.00683606,0.01474129
1756342063670,-3.56936240,9.83804196,5.56795447,0.79735868,0.02051578,0.36409824,0.98052888,0.19563261,-0.00678477,0.01565153
1756342063686,1.71876922,-3.93909103,-1.92284598,0.26154517,-0.04500339,0.12368708,0.98008195,0.19776420,-0.00715154,0.01665958
1756342063698,-0.15681482,0.18152019,0.36837132,0.35026847,-0.10284643,0.20885708,0.97964774,0.19977825,-0.00774291,0.01786051
1756342063709,-0.06253386,-0.20461311,0.49652035,0.24173066,-0.14452291,0.13574716,0.97934715,0.20114402,-0.00855947,0.01862748
1756342063720,0.56693974,-0.60197726,-0.42609859,0.19666815,-0.18464061,0.07600267,0.97911350,0.20219620,-0.00954729,0.01903410
1756342063733,0.37095866,-0.52379848,-0.36221381,0.11779455,-0.16623583,0.02832021,0.97894436,0.20294419,-0.01060289,0.01921393
1756342063736,-1.97267321,2.50760437,8.06305352,0.21161087,-0.58707637,-0.05400110,0.97884522,0.20336742,-0.01177704,0.01910593
1756342063755,0.56482382,-0.96843754,-2.05748065,0.03743873,-0.12134269,-0.02608190,0.97876462,0.20370998,-0.01288733,0.01886728
1756342063758,-2.16216636,4.89406078,13.38935299,0.02849568,-0.49637770,-0.15240684,0.97874652,0.20376270,-0.01380563,0.01858532
1756342063770,0.53854063,-1.57261525,-3.62500344,-0.01785967,-0.15083098,-0.00181315,0.97875540,0.20366090,-0.01466536,0.01857499
1756342063823,0.07950376,-0.05738166,-0.27800164,-0.00393035,-0.02534773,0.00874391,0.97876235,0.20355674,-0.01533708,0.01880670
1756342063825,-43.33679406,-19.97627177,149.34112441,0.46072291,-2.08473285,1.69461313,0.97859749,0.20401747,-0.01742181,0.02050132
1756342063850,3.23496236,1.44134516,-11.68241955,0.03715150,0.02924658,0.00488303,0.97850535,0.20448372,-0.01705477,0.02056260
1756342063863,-0.44343909,0.33988905,0.48896533,0.04640602,0.07176837,0.10323531,0.97843327,0.20479696,-0.01657033,0.02125944
1756342063882,0.25536505,0.16873049,-0.33712725,0.03178057,-0.00011333,0.09834268,0.97834971,0.20509728,-0.01657140,0.02218877
1756342063895,0.20661395,0.03998817,-0.18651372,0.06930598,-0.02474565,0.09575091,0.97824327,0.20552698,-0.01672483,0.02278243
1756342063906,0.18551210,-0.30757250,-0.25718722,0.00120918,-0.02553517,0.00454303,0.97823876,0.20553381,-0.01686910,0.02280810
1756342063917,0.08256860,-0.32033180,0.44182502,-0.04582490,-0.01970231,-0.04602823,0.97829516,0.20528407,-0.01697648,0.02255724
1756342063928,0.18409155,-0.03549973,0.27120175,-0.05721301,-0.03190163,-0.04459409,0.97836557,0.20496081,-0.01715672,0.02230529
1756342063940,0.08291091,0.14287941,-0.09909080,-0.01749039,-0.04216149,-0.00708873,0.97838359,0.20485849,-0.01740337,0.02226382
1756342063952,0.19629962,0.13545171,0.00355935,0.01306501,-0.05201659,0.03323591,0.97835812,0.20493362,-0.01770246,0.02245493
1756342063962,0.16527518,0.09948327,0.06547197,0.02785067,-0.05912995,0.03691616,0.97831618,0.20508401,-0.01802176,0.02265427
1756342063973,-0.01457660,0.05107849,-0.28054152,0.04723315,-0.04609796,-0.00937946,0.97825870,0.20534143,-0.01827300,0.02260315
1756342063983,-0.15173625,-0.15311392,-0.00316274,0.05766188,-0.02531710,0.00612261,0.97819442,0.20563263,-0.01840085,0.02263407
1756342063996,-0.15305623,-0.29433977,-0.24508486,0.03764293,-0.00548377,-0.02035363,0.97814723,0.20586789,-0.01843512,0.02250686
1756342064007,-0.04525581,-0.05581388,0.16242908,-0.00096225,0.00012756,-0.04138980,0.97815397,0.20586226,-0.01843438,0.02226473
1756342064018,0.31222864,0.13363995,0.17067550,-0.00158014,-0.00517498,-0.01728646,0.97815742,0.20585357,-0.01846284,0.02216966
1756342064028,0.32717219,-0.18789466,0.09745310,-0.01780326,0.02202286,-0.03148739,0.97818105,0.20576723,-0.01835603,0.02201694
1756342064039,-0.17157850,-0.05629476,-0.17964160,-0.03523940,0.04816835,-0.06362037,0.97823552,0.20556989,-0.01808628,0.02166067
1756342064052,-0.05359029,-0.00122999,-0.15869705,-0.01539500,0.02545904,-0.02491185,0.97826146,0.20547598,-0.01793098,0.02150871
1756342064063,0.03028534,-0.03805063,-0.08596486,-0.01961608,0.03050705,-0.00806070,0.97828936,0.20536319,-0.01775557,0.02146236
1756342064073,0.18956869,-0.06543553,-0.09189481,-0.05490682,0.04087053,-0.01418099,0.97835219,0.20508865,-0.01755122,0.02139145
1756342064084,-0.03360538,-0.32629235,-0.20452686,-0.00648711,0.04753917,-0.03608065,0.97836819,0.20505395,-0.01729688,0.02119842
1756342064095,-0.09456142,-0.05871166,-0.11002556,-0.04673245,0.04385364,-0.05429826,0.97843152,0.20480159,-0.01706007,0.02090521
1756342064107,-0.08807098,0.12018914,-0.03219921,-0.06220538,0.05714163,-0.02148228,0.97851895,0.20442525,-0.01671436,0.02077524
1756342064117,0.10265089,0.24995051,-0.10732822,-0.07589042,0.03483412,0.01108443,0.97860316,0.20403062,-0.01653323,0.02083288
1756342064128,0.14562558,0.02676198,-0.14895147,-0.06733895,0.03028774,-0.00944328,0.97868642,0.20365015,-0.01636210,0.02077953
1756342064140,-0.00933584,-0.19791972,-0.14003754,-0.08284159,-0.00546472,-0.02047383,0.97878563,0.20318210,-0.01639298,0.02066385
1756342064151,0.19741505,-0.13391101,-0.04929491,-0.10067382,-0.02478997,-0.02556786,0.97890107,0.20262839,-0.01652932,0.02052323
1756342064162,0.01225076,-0.08836729,-0.05588640,-0.08643740,-0.02776043,-0.05146836,0.97900727,0.20213138,-0.01668894,0.02022728
1756342064173,0.02660042,-0.09258745,-0.06964941,-0.08852086,-0.04109988,-0.06995174,0.97911166,0.20164451,-0.01691499,0.01984255
1756342064186,-0.04057451,0.17604828,-0.02004450,-0.05086855,-0.02883915,-0.04581447,0.97917972,0.20132658,-0.01709524,0.01955621
1756342064195,0.12252815,0.10621175,-0.22928765,-0.04417597,-0.05562901,-0.01959649,0.97921962,0.20111896,-0.01735669,0.01946411
1756342064207,-0.13174234,0.29088604,0.01828764,-0.01128540,-0.05086760,0.02476127,0.97922497,0.20105294,-0.01765427,0.01960896
1756342064217,0.05094859,0.08890418,-0.16160270,-0.00062337,-0.05083641,-0.00087481,0.97922080,0.20104960,-0.01792624,0.01960428
1756342064228,-0.01718013,-0.14759295,-0.03331904,-0.02801414,-0.05058624,-0.01183151,0.97924784,0.20089973,-0.01819688,0.01954098
1756342064241,-0.17024565,-0.05535615,0.27018953,-0.05338405,-0.04813287,-0.03586120,0.97931557,0.20056341,-0.01850012,0.01931506
1756342064253,-0.07998533,-0.08563240,0.05108970,-0.04370220,-0.02496942,-0.04723415,0.97937195,0.20030119,-0.01864993,0.01903165
1756342064262,0.12546410,-0.11635783,-0.29581564,-0.03257090,-0.03881584,-0.05451013,0.97940330,0.20015462,-0.01882461,0.01878636
1756342064273,-0.25781234,0.31973809,0.14375516,-0.02448051,-0.00266203,-0.02706194,0.97943501,0.20001264,-0.01884005,0.01862940
1756342064283,0.41830481,0.09724095,-0.30911589,-0.00215478,0.00852208,0.01075060,0.97943703,0.20000176,-0.01879701,0.01868369
1756342064295,-0.20131047,0.16114101,0.07933990,0.01279883,-0.00417282,0.01802304,0.97941971,0.20007471,-0.01882079,0.01878642
1756342064320,-0.14171107,0.00227394,0.23511842,-0.00610041,0.00209221,0.00483357,0.97943468,0.19999815,-0.01879454,0.01884708
1756342064330,0.35787132,-0.13542076,-0.91400591,-0.02360131,-0.00753977,0.04424425,0.97945319,0.19988368,-0.01883111,0.01906166
1756342064339,-0.33467913,0.09235444,0.49205016,-0.07520210,-0.01337423,-0.03132758,0.97952298,0.19954903,-0.01889062,0.01892226
1756342064349,-0.06980685,-0.06467167,0.01821833,-0.00687498,-0.00084745,-0.04222784,0.97953495,0.19951156,-0.01889524,0.01869211
1756342064361,-0.17080716,0.04898161,0.11904332,-0.02009027,0.00683700,-0.01394073,0.97956165,0.19939203,-0.01885456,0.01860917
1756342064373,0.02428460,0.00205654,0.11230302,-0.01952876,0.00717320,0.02453387,0.97958260,0.19927974,-0.01881331,0.01875024
1756342064383,-0.07962854,0.15291084,-0.01262410,0.00456750,-0.01317076,0.00435449,0.97957608,0.19930326,-0.01888114,0.01877266
1756342064395,0.06320304,-0.00495374,0.10196912,-0.00352371,-0.02693192,0.01571422,0.97957548,0.19928317,-0.01903465,0.01886223
1756342064405,-0.03518804,-0.16786709,-0.14951835,-0.00146109,-0.02234372,-0.01010118,0.97957578,0.19927521,-0.01915643,0.01880718
1756342064417,0.09342433,-0.06520435,0.02880631,-0.05438440,0.00318251,-0.02940723,0.97964118,0.19897066,-0.01913861,0.01864250
1756342064428,-0.04010366,-0.06123126,-0.04695372,-0.03165631,0.00026195,-0.00898813,0.97967948,0.19878705,-0.01913709,0.01859037
1756342064451,-0.05083587,0.04690003,0.14556528,0.00203411,0.00142601,-0.00434453,0.97967604,0.19881014,-0.01912090,0.01854106
1756342064453,-7.58994985,1.85004882,-15.69454774,-0.05746071,0.08785534,0.06525895,0.97968514,0.19876704,-0.01905501,0.01859000
1756342064461,1.10696132,-0.00682257,2.57662228,0.01425627,0.00367025,0.02989086,0.97967005,0.19883048,-0.01903868,0.01872302
1756342064472,-0.03306581,0.08371580,-0.09839699,0.02077282,0.00624467,0.03429469,0.97964414,0.19894370,-0.01900464,0.01890992
1756342064483,0.03744215,-0.19968166,0.19467205,-0.01083875,0.00170132,0.03671523,0.97965251,0.19888408,-0.01899529,0.01911186
1756342064496,0.13164174,-0.11614595,0.14923815,-0.03496778,0.00732214,0.01578678,0.97969512,0.19866903,-0.01895026,0.01920895
1756342064507,0.01633012,-0.34598380,-0.10138870,-0.01281902,-0.01109265,0.00550142,0.97970798,0.19859660,-0.01901293,0.01924003
1756342064518,0.03448926,-0.16512323,-0.15444151,-0.05312465,0.00285782,-0.00842417,0.97976673,0.19831239,-0.01899764,0.01919496
1756342064528,-0.06199982,0.08597448,0.06705265,-0.08870841,0.01199263,-0.02210473,0.97986715,0.19783336,-0.01893288,0.01907560
1756342064539,0.11528429,0.10343906,-0.10635624,-0.05670848,0.00359808,0.00098300,0.97992977,0.19752430,-0.01891327,0.01908095
1756342064550,0.06936031,0.15847509,-0.24677324,-0.01138872,-0.01238251,-0.03420308,0.97994486,0.19746109,-0.01898199,0.01889113
1756342064562,-0.08742295,0.15491745,0.01703030,-0.04170758,0.00402073,-0.02982500,0.97999825,0.19721502,-0.01895827,0.01871516
1756342064573,-0.11363140,-0.05825880,-0.06744827,-0.02654500,0.01151785,-0.00806778,0.98002997,0.19706769,-0.01889435,0.01867038
1756342064585,-0.01353308,0.01326916,0.15316381,-0.02911604,0.03608446,-0.02042915,0.98006983,0.19690028,-0.01868686,0.01855291
1756342064596,0.01733731,0.04380398,0.29198244,-0.03852618,-0.00959542,-0.02014172,0.98011425,0.19668453,-0.01874059,0.01844012
1756342064630,0.01754999,0.02255271,0.06155810,-0.00867851,-0.00254365,-0.00401503,0.98014465,0.19653526,-0.01878435,0.01837106
1756342064643,0.30481037,-0.11171702,-0.34367482,-0.04082156,-0.00838728,-0.03254480,0.98019900,0.19627808,-0.01883719,0.01816603
1756342064653,-0.30612023,-0.12041838,0.09308281,-0.01941861,-0.00677853,-0.03785629,0.98022171,0.19617905,-0.01887176,0.01797296
1756342064665,-0.02498230,-0.14180020,0.18421076,-0.03787893,-0.01444065,-0.03166011,0.98026661,0.19596314,-0.01895407,0.01779250
1756342064675,0.11937133,-0.09624053,0.10903619,-0.01867893,-0.01778990,-0.03388849,0.98028741,0.19586601,-0.01904658,0.01761628
