UnixTime(ms),Ax,Ay,Az,Gx,Gy,Gz,QuatW,QuatX,QuatY,QuatZ
1757977753577,0.00000000,0.00000000,0.00000000,0.00000000,0.00000000,0.00000000,0.99896314,-0.00105415,-0.00370248,0.04536328
1757977753594,-0.01938698,-0.01093096,-0.10394720,-0.00946990,-0.00448172,-0.00196196,0.99896367,-0.00113465,-0.00374058,0.04534661
1757977753604,-0.01779371,-0.05177491,-0.55614832,-0.01796420,-0.01515710,0.00657152,0.99896180,-0.00122357,-0.00381561,0.04537913
1757977753615,0.08144326,0.05216091,0.33803332,-0.00168395,-0.00950150,0.01095279,0.99895885,-0.00123283,-0.00386786,0.04543938
1757977753626,0.06630141,0.00122639,-0.08874136,-0.00551784,-0.01590468,0.00956964,0.99895600,-0.00126401,-0.00395773,0.04549344
1757977753637,0.04248567,-0.05436145,-0.10802080,-0.00210806,-0.02181743,0.00287534,0.99895477,-0.00127571,-0.00407881,0.04550940
1757977753647,0.06608347,0.01821142,0.06895842,-0.00703628,-0.01112668,-0.00504040,0.99895567,-0.00131194,-0.00413612,0.04548344
1757977753659,-0.06089140,-0.10183766,0.08433070,-0.00090405,-0.01445414,0.00497622,0.99895404,-0.00131705,-0.00421778,0.04551156
1757977753670,0.03259632,0.02388428,0.11913454,-0.01286930,-0.00758486,0.00452512,0.99895262,-0.00138848,-0.00425988,0.04553667
1757977753681,0.00483765,-0.00870776,0.03096094,-0.00356486,-0.00516839,-0.00028291,0.99895254,-0.00140826,-0.00428856,0.04553510
1757977753692,-0.01962764,0.09244968,0.00012993,-0.00332371,-0.00425910,-0.01302408,0.99895582,-0.00142737,-0.00431305,0.04546022
1757977753705,-0.00041798,0.01501375,-0.00440907,0.00431055,-0.01387612,-0.01614419,0.99896003,-0.00140065,-0.00439908,0.04536012
1757977753714,0.17501641,0.00817027,0.01276139,-0.00279066,-0.01217983,-0.01522182,0.99896304,-0.00141390,-0.00445694,0.04528782
1757977753725,-0.05738977,0.27568985,-0.06418284,-0.00474282,-0.02979963,-0.04882761,0.99897450,-0.00144023,-0.00462233,0.04501682
1757977753737,0.08043552,0.28613041,-0.12869683,-0.01783556,-0.01940739,-0.02979476,0.99898134,-0.00154011,-0.00473101,0.04484997
1757977753748,-0.00760263,-0.04371514,0.03801317,-0.00739607,-0.02104523,-0.00987671,0.99898320,-0.00158152,-0.00484886,0.04479466
1757977753759,-0.07602633,-0.31550928,0.09883423,-0.00134405,-0.01641521,-0.01450082,0.99898637,-0.00158905,-0.00494079,0.04471346
1757977753770,-0.04325326,-0.31109589,0.18158201,0.01633596,-0.01328187,-0.00420678,0.99898720,-0.00149675,-0.00501583,0.04468969
1757977753781,-0.03692023,0.22500623,0.07783046,0.01286460,-0.01763971,0.00039834,0.99898671,-0.00142535,-0.00511373,0.04469190
1757977753792,-0.03391398,0.13238524,-0.02566847,0.02536536,-0.02200366,0.00407196,0.99898527,-0.00128584,-0.00523475,0.04471430
1757977753804,0.03181011,0.18323210,0.07847991,0.03474480,-0.01079528,-0.00377652,0.99898613,-0.00109127,-0.00529520,0.04469315
1757977753815,-0.09911129,0.08690055,-0.04213936,0.04192210,-0.02704497,-0.00749194,0.99898741,-0.00085861,-0.00544530,0.04465157
1757977753826,-0.21118799,-0.20676790,-0.02950277,0.04275283,-0.00880252,0.00226966,0.99898676,-0.00062346,-0.00549372,0.04466405
1757977753837,-0.08779314,-0.06456191,0.06883839,0.03341926,-0.01689027,-0.00237499,0.99898693,-0.00043632,-0.00558830,0.04465075
1757977753848,0.00285099,-0.15062717,0.05131777,0.04909925,-0.02382725,-0.00951195,0.99898864,-0.00016136,-0.00572173,0.04459749
1757977753859,0.34926029,0.34337538,0.24188151,0.04752746,-0.01129845,-0.01821613,0.99899287,0.00010717,-0.00578557,0.04449456
1757977753870,0.01684186,0.06279522,0.01780939,0.06116499,-0.01692022,-0.00713165,0.99899399,0.00044663,-0.00587948,0.04445498
1757977753881,-0.05418164,0.06579199,0.04837647,0.04674316,-0.02087765,-0.00056510,0.99899329,0.00070606,-0.00599535,0.04445185
1757977753893,0.02842881,-0.00330175,0.02149690,0.05122969,-0.01667581,-0.00498674,0.99899372,0.00098782,-0.00608706,0.04442442
1757977753904,-0.00873325,-0.08622069,0.03729242,0.05450412,-0.01557630,0.00013231,0.99899279,0.00129577,-0.00617507,0.04442517
1757977753915,-0.04558216,-0.03440107,0.04786968,0.04606513,-0.01136746,-0.01695137,0.99899624,0.00155374,-0.00623873,0.04433024
1757977753926,0.20484352,0.12050799,-0.07431600,0.03481017,-0.01815045,0.00288441,0.99899462,0.00174171,-0.00633674,0.04434582
1757977753937,0.10240029,-0.05260484,-0.08284690,0.03863587,-0.01155960,0.02894508,0.99898653,0.00196000,-0.00640205,0.04450936
1757977753948,-0.03615600,0.01794286,0.02570241,0.03853112,-0.01064626,0.00661722,0.99898409,0.00217192,-0.00646061,0.04454575
1757977753959,-0.23682203,-0.18148695,0.11670042,0.03128977,-0.01225087,-0.00700497,0.99898500,0.00234715,-0.00652921,0.04450652
1757977753970,-0.01615560,0.02185757,0.01330461,0.02166291,-0.00524473,0.01683931,0.99898031,0.00246846,-0.00655858,0.04460082
1757977753982,-0.01729379,0.10341969,0.00161854,0.02859122,-0.00681514,0.01832090,0.99897516,0.00262571,-0.00659607,0.04470159
1757977753993,0.03314057,-0.15384101,-0.03009952,0.03462061,-0.01346831,0.00034826,0.99897404,0.00281959,-0.00667149,0.04470354
1757977754004,0.03471011,-0.02443444,0.06826265,0.01586613,-0.01225118,-0.03337519,0.99898160,0.00290764,-0.00673948,0.04451831
1757977754015,-0.02394658,0.01043650,0.06729358,0.00076685,-0.02890294,-0.00994780,0.99898297,0.00291194,-0.00690134,0.04446260
1757977754026,0.03176685,-0.14668099,0.06551756,0.01725589,-0.01427866,0.01055818,0.99897946,0.00300943,-0.00698201,0.04452225
1757977754037,-0.02677479,0.11396506,0.10967987,0.01165294,-0.02961281,0.00516210,0.99897685,0.00307352,-0.00714488,0.04455064
1757977754048,0.00674632,0.06455620,0.05857950,0.02375163,-0.00885336,0.01062971,0.99897345,0.00320535,-0.00719402,0.04460964
1757977754060,0.05708423,0.28300233,-0.04063623,0.03623076,-0.01060658,0.01214188,0.99896935,0.00340643,-0.00725289,0.04467703
1757977754071,0.05167736,-0.04752930,-0.03955424,0.05364196,-0.02016053,0.01686927,0.99896322,0.00370682,-0.00736579,0.04477149
1757977754082,-0.00086387,0.02763938,-0.01427106,0.04323014,-0.02738992,-0.00927442,0.99896348,0.00394675,-0.00751780,0.04472002
1757977754093,0.03886932,-0.11577321,-0.06758467,0.05272515,-0.02961352,-0.00379176,0.99896195,0.00424201,-0.00768364,0.04469879
1757977754104,0.01657650,-0.00731364,0.01562647,0.02264212,-0.02819187,-0.00078084,0.99896035,0.00437107,-0.00784433,0.04469434
1757977754115,0.01506146,-0.09658160,0.03248972,0.04416458,-0.03282113,-0.00030731,0.99895794,0.00460956,-0.00802156,0.04469268
1757977754126,0.13586187,0.24930302,0.08391054,0.03839883,-0.02200594,0.00466725,0.99895476,0.00482459,-0.00814480,0.04471881
1757977754137,-0.00383556,-0.01873724,-0.00608161,0.04328038,-0.03355040,0.01050980,0.99894942,0.00506480,-0.00833100,0.04477714
1757977754149,0.07643482,0.13400281,0.01161035,0.03203386,-0.03018622,-0.00803947,0.99894909,0.00524259,-0.00849853,0.04473252
1757977754160,-0.01548047,-0.33089503,-0.22059669,0.06815947,-0.03584749,-0.01027643,0.99894788,0.00562087,-0.00869749,0.04467549
1757977754171,0.00041095,0.05214824,-0.03393788,0.03651514,-0.04616030,-0.02249230,0.99895005,0.00582536,-0.00895599,0.04454953
1757977754182,0.05473452,-0.11405616,-0.05670413,0.03692802,-0.05257960,-0.02345737,0.99895197,0.00603031,-0.00924780,0.04441934
1757977754193,0.07360171,-0.10886342,0.01332249,0.02732802,-0.04818080,-0.02669841,0.99895516,0.00618471,-0.00952002,0.04426850
1757977754205,-0.00466792,-0.08542290,-0.05974935,0.01415371,-0.05680375,-0.01373087,0.99895499,0.00626468,-0.00984097,0.04419092
1757977754216,0.07205097,-0.12004642,-0.01852861,0.01703849,-0.04571956,-0.01336275,0.99895514,0.00635924,-0.01009471,0.04411675
1757977754227,-0.09351753,-0.00769253,-0.30434505,0.01321863,-0.04762811,-0.00390770,0.99895290,0.00643327,-0.01036143,0.04409487
1757977754238,-0.01822989,-0.00142121,-0.04051086,0.01856746,-0.04573064,0.00433476,0.99894842,0.00653817,-0.01061980,0.04411936
1757977754249,0.04500187,-0.01757268,0.01996532,0.02561774,-0.03796465,0.00489455,0.99894398,0.00668163,-0.01083241,0.04414677
1757977754261,0.00674347,0.04915901,0.20427143,0.01523944,-0.04821916,0.00181013,0.99893996,0.00676774,-0.01110484,0.04415700
1757977754272,0.00356188,0.00833959,0.02734769,-0.00332762,-0.04290456,-0.00077478,0.99893760,0.00674927,-0.01134297,0.04415270
1757977754283,0.02767941,0.01103580,0.06330391,0.00079533,-0.03864983,-0.00400159,0.99893608,0.00675372,-0.01155940,0.04413029
1757977754294,-0.01425494,-0.00807780,-0.03231119,0.00638030,-0.04644770,0.00546678,0.99893144,0.00678945,-0.01181951,0.04416090
1757977754305,0.01425494,0.11403950,0.02280790,0.00080348,-0.03396009,-0.00142529,0.99892949,0.00679395,-0.01200969,0.04415292
1757977754316,-0.10629865,0.10980162,0.02698716,0.02323620,-0.03120927,-0.01034534,0.99892904,0.00692291,-0.01218290,0.04409551
1757977754328,-0.25833033,0.23994728,0.02709082,0.02547525,-0.03456244,0.00737806,0.99892389,0.00706430,-0.01237472,0.04413645
1757977754339,-0.02005102,0.03315483,-0.00820881,0.01145152,-0.02906788,0.00130641,0.99892105,0.00712900,-0.01253895,0.04414384
1757977754350,0.12297041,-0.08648257,0.00061648,0.00132397,-0.02392252,0.01501364,0.99891564,0.00713635,-0.01267172,0.04422716
1757977754361,0.18963575,-0.37443385,-0.09481787,0.02641808,-0.01870174,0.00337330,0.99891243,0.00728297,-0.01277552,0.04424588
1757977754373,0.02075029,-0.11676685,0.03822813,-0.01104912,-0.01474554,0.00094544,0.99891157,0.00721999,-0.01285957,0.04425127
1757977754384,-0.00776570,-0.14324526,0.10586808,-0.02941538,-0.02511177,-0.01868297,0.99891552,0.00705673,-0.01299894,0.04414758
1757977754395,0.04547388,-0.03918494,0.01161035,-0.02369811,-0.02080395,0.00375364,0.99891401,0.00692521,-0.01311440,0.04416841
1757977754406,0.01025260,0.10045275,-0.00168213,0.00047944,-0.01503685,0.00904508,0.99891061,0.00692792,-0.01319936,0.04421952
1757977754417,-0.00656721,0.11107751,-0.01183297,0.01000445,-0.01791501,-0.01364981,0.99891226,0.00698344,-0.01329879,0.04414376
1757977754428,0.10734439,0.04520057,-0.05965670,0.00908761,-0.01075407,-0.00620673,0.99891263,0.00703433,-0.01335901,0.04410901
1757977754440,0.01520527,-0.05321843,-0.06842370,0.01620273,-0.01515654,0.00160233,0.99891046,0.00712507,-0.01344389,0.04411798
1757977754451,0.07132150,0.00711632,0.02674116,0.02933120,-0.02016678,-0.00271647,0.99890845,0.00728639,-0.01355480,0.04410304
1757977754462,-0.05294197,0.01914481,0.01174952,-0.00137173,-0.01402051,-0.04816364,0.99891931,0.00727871,-0.01363332,0.04383332
1757977754473,0.04634576,-0.06405050,0.01126969,-0.02601780,-0.02388532,-0.02254907,0.99892410,0.00713171,-0.01376827,0.04370592
1757977754484,0.04314496,-0.09675293,0.08908120,-0.00955270,-0.02219062,-0.02494678,0.99892882,0.00707869,-0.01389143,0.04356746
1757977754495,-0.01539362,0.00845879,0.00488007,-0.01988855,-0.03783584,-0.04340435,0.99893721,0.00696731,-0.01410331,0.04332440
1757977754507,0.01900658,0.01758109,0.11974147,-0.03445479,-0.02843991,-0.03390022,0.99894449,0.00677437,-0.01426257,0.04313456
1757977754518,-0.00285099,-0.01140395,0.10643687,-0.01557422,-0.02441508,-0.02677216,0.99894958,0.00668715,-0.01439930,0.04298463
1757977754529,-0.05204790,-0.01670284,0.21966371,-0.01591106,-0.03163620,-0.00555543,0.99894895,0.00659884,-0.01457488,0.04295380
1757977754540,-0.05865500,0.08212642,-0.01053067,-0.01253170,-0.04152235,-0.02123084,0.99895109,0.00652867,-0.01480740,0.04283491
1757977754551,0.09304695,0.05984428,-0.00485492,-0.00050654,-0.03731844,-0.01054696,0.99895053,0.00652586,-0.01501452,0.04277637
1757977754562,0.01992267,0.07278580,-0.15484372,-0.00604684,-0.03519226,-0.01263669,0.99895080,0.00649199,-0.01521160,0.04270561
1757977754573,-0.02300474,-0.05022082,0.02465472,0.01453015,-0.03711331,-0.01400233,0.99895043,0.00657264,-0.01541758,0.04262790
1757977754585,-0.02376679,0.09253723,0.02118121,0.01206694,-0.03453077,-0.00248334,0.99894757,0.00664021,-0.01561095,0.04261399
1757977754596,0.02785102,0.05417732,0.01539408,0.02147861,-0.02730528,-0.00048018,0.99894451,0.00675942,-0.01576249,0.04261132
1757977754607,-0.04863045,0.10036024,-0.04117861,0.02658284,-0.03272587,-0.00231887,0.99894110,0.00690961,-0.01594739,0.04259822
1757977754618,-0.08788249,0.04344464,-0.07224790,0.03814466,-0.04015535,-0.01174688,0.99893881,0.00712131,-0.01617026,0.04253303
1757977754629,-0.28392582,-0.13100844,-0.17580233,0.03608109,-0.02953869,-0.01371824,0.99893793,0.00732337,-0.01633567,0.04245620
1757977754640,-0.03667109,-0.08598917,0.00516592,0.03473867,-0.02682075,-0.02835985,0.99894073,0.00751617,-0.01648453,0.04229881
1757977754652,0.01258544,-0.00410953,0.09181378,0.01071057,-0.02999414,-0.02543383,0.99894351,0.00757615,-0.01665250,0.04215638
1757977754663,0.15775464,0.04086415,0.11784082,0.01915128,-0.03127239,-0.01451956,0.99894318,0.00768339,-0.01682762,0.04207507
1757977754674,-0.05964127,0.04563801,0.04001425,0.01514318,-0.01554544,-0.00379601,0.99894196,0.00776744,-0.01691390,0.04205400
1757977754685,-0.08476133,-0.04704142,-0.03778189,0.03116331,-0.01384246,-0.00634329,0.99894075,0.00794507,-0.01699280,0.04201784
1757977754696,-0.06024565,0.04738239,0.07308691,0.01929000,-0.00849776,-0.00426120,0.99894010,0.00805020,-0.01703911,0.04199462
1757977754707,-0.06302688,-0.01732825,0.01319998,0.00581763,-0.00883031,0.00775336,0.99893716,0.00808278,-0.01708856,0.04203804
1757977754719,-0.11118851,0.07222502,-0.01900658,0.01445448,-0.01253698,-0.00505431,0.99893649,0.00816372,-0.01715877,0.04200974
1757977754730,-0.10875912,0.45682527,0.05907686,0.00311000,-0.00749000,-0.00477822,0.99893675,0.00818083,-0.01719996,0.04198346
1757977754741,-0.04518545,-0.01720340,0.00972624,-0.00449388,-0.00848152,0.00354133,0.99893529,0.00815544,-0.01724789,0.04200346
1757977754752,-0.03519745,-0.17166470,0.08932490,-0.00901578,-0.01261387,0.01120635,0.99893177,0.00810405,-0.01731978,0.04206734
1757977754763,0.07107273,-0.29406514,0.14176520,-0.01738160,-0.01079370,0.01253893,0.99892861,0.00800845,-0.01737915,0.04213630
1757977754774,0.01190941,0.11388700,0.04568498,-0.01020295,-0.00734449,0.03188572,0.99892087,0.00795182,-0.01741991,0.04231327
1757977754785,-0.07933741,0.31106068,-0.04257129,0.01308253,-0.00817696,0.02849103,0.99891279,0.00802443,-0.01746529,0.04247140
1757977754797,-0.00481158,0.08339352,-0.09200214,0.06373267,-0.00675993,0.02223832,0.99890389,0.00838133,-0.01750315,0.04259593
1757977754808,-0.02242268,0.11386802,0.05606503,0.07172184,-0.00634707,0.00476761,0.99889863,0.00878656,-0.01753901,0.04262287
1757977754819,-0.18807743,-0.12169464,0.00672989,0.06081242,-0.01309136,-0.00432715,0.99889535,0.00912407,-0.01761167,0.04259885
1757977754830,-0.20152115,-0.30313360,-0.01191764,0.06207439,-0.00889427,0.00865565,0.99888917,0.00947169,-0.01766148,0.04264732
1757977754841,-0.09272732,-0.06856932,0.00815489,0.06946954,-0.00608919,0.00919741,0.99888266,0.00985724,-0.01769527,0.04269837
1757977754853,0.03677762,0.09084663,0.06332327,0.05086987,-0.00640762,-0.00720300,0.99888083,0.01015229,-0.01773243,0.04265659
1757977754864,0.19954206,0.24324255,0.11340981,0.04083217,-0.00049651,0.02018094,0.99887385,0.01037278,-0.01773512,0.04276557
1757977754875,-0.05455790,-0.11584820,-0.09718295,0.06778869,-0.01003907,0.03378598,0.99886084,0.01074901,-0.01779083,0.04295308
1757977754886,-0.04462266,-0.01045362,-0.02589005,0.05384212,-0.00818611,0.00617482,0.99885524,0.01105052,-0.01783667,0.04298766
1757977754897,-0.03624780,-0.00251385,-0.07449976,0.05139753,-0.00402616,0.01084601,0.99884906,0.01133578,-0.01785902,0.04304785
1757977754908,-0.01919494,0.09467333,-0.06681413,0.05093883,-0.00246504,0.03628760,0.99883675,0.01162104,-0.01787282,0.04325106
1757977754920,0.21287373,0.09930940,-0.12924477,0.06626273,0.00120787,0.04227053,0.99882221,0.01199211,-0.01786606,0.04348778
1757977754931,0.21093867,0.17821977,-0.03438185,0.03450776,0.00832159,0.00769145,0.99881886,0.01218363,-0.01781988,0.04353047
1757977754942,-0.10062305,-0.12674634,-0.00580518,0.02290518,-0.00668517,0.00014378,0.99881660,0.01231075,-0.01785698,0.04353127
1757977754953,-0.14572315,-0.20199048,0.01663629,0.01110377,0.00690558,0.01830298,0.99881201,0.01237349,-0.01781796,0.04363468
1757977754964,-0.28867254,-0.18689607,0.08545963,0.01500238,-0.00323461,0.02375578,0.99880495,0.01245600,-0.01783575,0.04376533
1757977754975,0.00570197,-0.07040211,-0.04948623,0.01685451,-0.00001582,0.02893982,0.99879665,0.01255039,-0.01783584,0.04392740
1757977754987,-0.02712394,-0.00128785,0.01813820,0.01467290,0.00745843,0.01471075,0.99879270,0.01263329,-0.01779370,0.04401051
1757977754998,-0.07102350,-0.09362345,-0.04693802,0.01685042,0.00075284,0.02865387,0.99878457,0.01272681,-0.01778952,0.04416954
1757977755009,0.07667938,-0.04493417,-0.02469210,0.01341417,0.01281411,0.03753289,0.99877540,0.01280327,-0.01771648,0.04438348
1757977755020,-0.17524487,-0.21087738,-0.01168827,0.01537833,0.00100335,0.03756207,0.99876531,0.01288708,-0.01771101,0.04458819
1757977755031,-0.24433222,-0.54159896,-0.17408427,0.01396158,0.00598176,0.03073511,0.99875726,0.01296457,-0.01767781,0.04475877
1757977755043,0.02887707,0.00867287,-0.02286778,0.01231770,0.01622161,0.04100132,0.99874739,0.01303539,-0.01758454,0.04499453
1757977755053,-0.01142086,0.09087395,0.02682027,-0.00114281,0.01059888,0.06284280,0.99873300,0.01302917,-0.01752678,0.04533702
1757977755065,0.18738114,0.35941940,0.00316000,-0.00215333,0.01521401,0.04273195,0.99872384,0.01301722,-0.01744234,0.04557419
1757977755076,0.00305682,-0.01043549,-0.03364897,-0.00440909,0.01370918,0.03869200,0.99871529,0.01299164,-0.01736283,0.04579860
1757977755087,0.03795965,0.01800144,0.04645996,0.00880948,0.02099805,0.04981877,0.99870437,0.01303877,-0.01725049,0.04606513
1757977755098,0.01387303,0.15340267,-0.04602435,0.00361566,0.00392735,0.04599316,0.99869257,0.01305902,-0.01722849,0.04632269
1757977755109,0.01140395,0.04751646,-0.01520527,-0.00012844,-0.00134503,0.03220229,0.99868407,0.01305830,-0.01723602,0.04650302
1757977755121,-0.16915859,-0.05036745,0.03041053,-0.00709041,-0.00063722,0.02904644,0.99867694,0.01301860,-0.01723959,0.04666568
1757977755132,-0.24348533,0.04104417,0.08708471,0.00226416,-0.00545003,0.05064843,0.99866320,0.01303105,-0.01726957,0.04694425
1757977755143,-0.02980578,0.16638536,0.05892041,0.01339831,-0.00699388,0.05983985,0.99864573,0.01310608,-0.01730873,0.04727935
1757977755154,0.22368496,0.24854579,0.12738415,0.01964043,-0.00426077,0.06370470,0.99862675,0.01321705,-0.01733281,0.04763929
1757977755165,0.11878208,0.18510440,0.10273987,0.03414666,-0.00322810,0.05968651,0.99860822,0.01340485,-0.01735056,0.04796756
1757977755176,0.05615081,0.14329660,0.22674199,0.04491233,-0.00791761,0.06877208,0.99858526,0.01365861,-0.01739530,0.04835612
1757977755187,-0.00938418,0.23064872,0.15066059,0.05396591,-0.02375310,0.06385506,0.99856159,0.01395812,-0.01752713,0.04871052
1757977755199,-0.00193506,0.16496375,0.00387012,0.11724610,-0.02088307,0.04751178,0.99853735,0.01460884,-0.01764303,0.04897421
1757977755210,-0.08272144,0.71951475,0.25535601,0.12182203,-0.01829655,0.06366602,0.99850777,0.01529104,-0.01774549,0.04933074
1757977755221,-0.14064872,-0.64432317,-0.39153561,0.14231548,-0.01049058,0.07568431,0.99847317,0.01608801,-0.01780424,0.04975457
1757977755232,-0.12292806,-0.04539181,0.19352314,0.13169204,0.00552148,0.08048374,0.99843931,0.01681890,-0.01777359,0.05020126
1757977755243,-0.01026527,-0.18736895,-0.16708670,0.13109546,-0.00398490,0.07656518,0.99840463,0.01755303,-0.01779591,0.05063002
1757977755254,0.19956912,0.03801317,0.10073489,0.11382430,-0.00456187,0.06262665,0.99837491,0.01819045,-0.01782145,0.05098073
1757977755266,0.19481748,0.06652304,0.02660922,0.09450931,-0.00797911,0.05056580,0.99834983,0.01871970,-0.01786614,0.05126390
1757977755277,-0.08194759,-0.05195175,-0.16660448,0.08072230,-0.01564351,0.04416364,0.99832736,0.01916367,-0.01795218,0.05150680
1757977755288,0.01871285,0.06860513,-0.09486013,0.06853469,-0.00633401,0.03824785,0.99830821,0.01954747,-0.01798765,0.05172099
1757977755299,0.13819256,-0.18862071,-0.21961188,0.07922462,0.00026033,0.04464941,0.99828666,0.01998716,-0.01798620,0.05196879
1757977755310,-0.02729260,-0.05889567,0.16436118,0.07509895,0.00149797,0.03959836,0.99826655,0.02041147,-0.01797774,0.05219252
1757977755322,0.03358954,-0.10258808,-0.49047744,0.04816527,-0.00436962,0.03160846,0.99825143,0.02067879,-0.01800199,0.05236795
1757977755332,-0.01263897,-0.01992147,-0.22466127,0.04815373,-0.00749389,0.00736376,0.99824304,0.02094363,-0.01804321,0.05240845
1757977755344,0.05501542,-0.10091632,-0.27728877,0.04191259,-0.00111500,0.02559029,0.99823044,0.02117834,-0.01804945,0.05255175
1757977755355,0.14323840,-0.33342688,-0.19351854,0.04107931,-0.00490939,0.04459974,0.99821169,0.02141044,-0.01807719,0.05280374
1757977755366,0.13531711,-0.22981390,-0.19069746,0.00919404,-0.01239103,0.01966152,0.99820357,0.02146147,-0.01814596,0.05291286
1757977755377,-0.02987347,-0.13304232,-0.33299626,0.00267946,-0.02879834,-0.02200438,0.99820688,0.02147674,-0.01831011,0.05278744
1757977755388,0.01556969,-0.22538211,-0.48316220,0.00000014,-0.01392656,-0.01879494,0.99821090,0.02147674,-0.01838601,0.05268501
1757977755399,0.02557003,-0.45369850,-0.70153524,0.00481094,-0.01459734,-0.14072899,0.99824940,0.02150320,-0.01846629,0.05191100
1757977755411,0.21860284,-1.17676515,-3.13198625,0.08818069,0.01891752,-0.25430841,0.99831419,0.02200142,-0.01835941,0.05047416
1757977755422,-0.13163529,1.52967672,-0.24086457,0.15712168,0.08126819,-0.40256189,0.99841497,0.02288916,-0.01790024,0.04819968
1757977755433,0.13036037,0.45123938,-1.36855717,0.18475683,0.13939061,-0.37821243,0.99850286,0.02390532,-0.01713360,0.04611951
1757977755444,0.62472490,-0.88754984,-0.84078299,0.10893831,0.18869588,-0.22000810,0.99856128,0.02450993,-0.01608633,0.04489847
1757977755455,0.26597230,-1.55385667,-0.11515250,-0.03375141,0.21152329,-0.22421848,0.99863994,0.02432092,-0.01490180,0.04364284
1757977755466,0.28794973,-1.04678757,-0.40864154,-0.20698270,0.19136699,-0.26034369,0.99874556,0.02316182,-0.01383015,0.04218492
1757977755477,0.49085700,-1.51114692,-0.00169318,-0.34501200,0.13866813,-0.23752339,0.99885329,0.02124700,-0.01306054,0.04086666
1757977755489,0.41843049,-1.49245954,0.51863513,-0.46269440,0.06554390,-0.23981406,0.99896477,0.01863278,-0.01269022,0.03951171
1757977755500,0.30548240,-0.76208347,0.09897911,-0.66883480,-0.03801539,-0.24328635,0.99907689,0.01492075,-0.01290120,0.03816148
1757977755511,0.16254493,-0.67920559,-0.30380421,-0.68614716,-0.12356550,-0.24166000,0.99916774,0.01111263,-0.01358699,0.03682026
1757977755522,0.25538137,0.48312951,-0.47098031,-0.66640825,-0.14772612,-0.23505603,0.99923888,0.00734742,-0.01442164,0.03549220
1757977755533,-0.10646271,0.39185270,-0.75039166,-0.61053050,-0.19655555,-0.19629156,0.99927950,0.00398951,-0.01550270,0.03441259
1757977755544,0.32565188,0.29328022,0.67501016,-0.52728869,-0.19120451,-0.09963689,0.99928880,0.00103669,-0.01657344,0.03385463
1757977755556,0.11099808,0.10638071,1.01609585,-0.55313237,-0.22777173,-0.03635731,0.99927232,-0.00203319,-0.01783758,0.03365284
1757977755567,0.36862868,0.16641505,0.87851664,-0.50458986,-0.26705158,0.02671795,0.99923014,-0.00483367,-0.01931971,0.03380113
1757977755578,-0.21787823,1.04423008,0.20382401,-0.51620379,-0.33179908,0.06412762,0.99916144,-0.00775022,-0.02119438,0.03416345
1757977755589,0.27792066,0.90539340,-0.20556145,-0.37033906,-0.35562598,0.05676556,0.99908875,-0.00980560,-0.02316810,0.03447850
1757977755600,-0.41894020,0.77789359,-0.24188233,-0.23860031,-0.38631998,0.03920480,0.99901532,-0.01112983,-0.02531218,0.03469608
1757977755611,-0.18513439,0.33493110,-0.01102724,-0.18726110,-0.36564501,0.00990500,0.99894717,-0.01217850,-0.02735979,0.03475155
1757977755623,-0.22427768,-0.31598445,1.01875286,-0.20294381,-0.31607486,0.03078814,0.99887661,-0.01331498,-0.02912981,0.03492397
1757977755634,-0.32222182,-0.14247733,0.86407281,-0.26825349,-0.28332788,0.07559033,0.99879380,-0.01480379,-0.03070228,0.03534349
1757977755645,-0.16351246,0.70871524,0.48569973,-0.32373349,-0.23457556,0.10313126,0.99870426,-0.01660051,-0.03200417,0.03591587
1757977755656,-0.29023516,0.68242438,0.12764022,-0.22569909,-0.20705737,0.08959531,0.99862574,-0.01787571,-0.03317405,0.03642208
1757977755667,-0.15066596,0.25412948,-0.22802602,-0.16902503,-0.21070748,0.11498035,0.99854623,-0.01880535,-0.03433294,0.03705448
1757977755678,-0.42061569,-0.00014687,0.23236412,-0.15401488,-0.17447076,0.09536756,0.99847558,-0.01966783,-0.03530998,0.03758853
1757977755690,-0.36479770,-0.23908983,0.27531407,-0.18395267,-0.14485396,0.08572901,0.99840632,-0.02071636,-0.03613564,0.03807719
1757977755700,-0.04174176,-0.33804905,0.11586565,-0.24332068,-0.10881959,0.10610291,0.99833473,-0.02203029,-0.03672327,0.03865015
1757977755712,-0.37625995,-0.43991441,0.48804682,-0.29708869,-0.06989009,0.12101302,0.99825569,-0.02369399,-0.03711465,0.03932782
1757977755723,-0.48865415,0.11837117,0.78679140,-0.36921016,-0.05144727,0.11194532,0.99816962,-0.02574310,-0.03740019,0.03994911
1757977755734,-0.13162637,0.54821096,0.46749994,-0.40345794,-0.01022878,0.10125793,0.99808536,-0.02796212,-0.03745644,0.04050603
1757977755745,-0.25724472,-0.00748140,0.05180540,-0.30999479,-0.00357367,0.08834881,0.99801362,-0.02971359,-0.03747663,0.04100520
1757977755756,0.08588969,-0.24739965,-0.39023794,-0.30028701,0.01304785,0.08333562,0.99794497,-0.03141021,-0.03740291,0.04147605
1757977755767,-0.09588706,-0.62583351,-0.09764822,-0.29730324,0.01210449,0.11254034,0.99786873,-0.03304538,-0.03733634,0.04209502
1757977755779,-0.02218587,0.12579766,0.17157761,-0.36126542,0.03341646,0.11041634,0.99778039,-0.03506847,-0.03714921,0.04271335
1757977755790,0.00044921,0.05175850,0.09708120,-0.32426111,0.03701689,0.10783713,0.99769734,-0.03686812,-0.03694376,0.04331185
1757977755801,-0.10933082,0.55391055,-0.21285645,-0.26142661,0.03124696,0.05615167,0.99763550,-0.03831904,-0.03677034,0.04362349
1757977755812,0.16907115,0.81803370,0.04058986,-0.17436215,0.02426440,0.08680927,0.99758065,-0.03930418,-0.03663325,0.04411396
1757977755823,0.23266431,-0.22741572,-0.39315613,-0.06038755,0.01521286,0.08226727,0.99755046,-0.03963631,-0.03654958,0.04456643
1757977755834,-0.07275821,0.40849968,0.14124169,-0.04080483,0.01187814,0.04043832,0.99753380,-0.03986278,-0.03648366,0.04479087
1757977755846,-0.03597949,0.26757155,0.16773404,-0.02596909,0.01189078,0.00274961,0.99752957,-0.04001340,-0.03641469,0.04480681
1757977755857,-0.30519856,-0.03414982,-0.21490772,-0.01695541,0.04291413,0.00721444,0.99753258,-0.04010496,-0.03618295,0.04484577
1757977755868,0.13330404,-0.13126148,0.14410812,-0.02621149,0.06243971,0.06662856,0.99752253,-0.04025043,-0.03583641,0.04521556
1757977755879,0.19800236,0.14049033,0.36268328,-0.07979655,0.08153374,0.08829681,0.99749817,-0.04069729,-0.03537982,0.04571002
1757977755890,-0.02755955,-0.05369360,0.11403950,-0.09121155,0.06039576,0.03939806,0.99747900,-0.04120808,-0.03504161,0.04593065
1757977755901,-0.27634881,0.06745106,-0.31361051,-0.08416456,0.01763758,-0.02612156,0.99746978,-0.04167098,-0.03494460,0.04578698
1757977755912,0.13361628,0.43077557,-0.00749896,-0.07639851,0.02586395,0.01281507,0.99745358,-0.04209882,-0.03479976,0.04585875
1757977755923,-0.07067283,-0.02887902,-0.26522398,-0.00824628,0.04159548,0.05770876,0.99744490,-0.04214458,-0.03456891,0.04617903
1757977755935,-0.05376937,0.21587649,-0.02876447,0.01991405,0.05639356,0.03848731,0.99745054,-0.04203207,-0.03425028,0.04639648
1757977755946,-0.32550084,-0.07899064,-0.05198972,0.01596762,0.03924097,0.00321395,0.99746090,-0.04194345,-0.03403250,0.04641432
1757977755957,0.42502829,-0.02346714,0.39281984,-0.02860598,0.05969479,-0.01348111,0.99746901,-0.04210364,-0.03369821,0.04633883
1757977755968,0.16907575,0.12043149,-0.05578843,-0.05877052,0.04811823,0.00909115,0.99746183,-0.04242982,-0.03343115,0.04638928
1757977755979,0.23220704,0.19253834,-0.02902588,0.00043119,0.07137758,0.03618879,0.99746577,-0.04242743,-0.03303500,0.04659013
1757977755990,0.24480907,-0.30995658,-0.51274817,0.05011606,0.03752659,0.04933225,0.99747156,-0.04215179,-0.03282861,0.04686146
1757977756001,-0.00901949,0.00469981,-0.27334922,0.06751432,0.01999637,-0.02839138,0.99749860,-0.04177371,-0.03271663,0.04670247
1757977756012,-0.03999697,0.02087099,-0.42740608,0.06968840,0.00217473,-0.04987455,0.99752804,-0.04138694,-0.03270456,0.04642566
1757977756024,0.09844097,-0.36074454,0.14563679,0.06908549,0.01594195,-0.07562751,0.99756861,-0.04097933,-0.03261050,0.04597946
1757977756035,0.33131560,-1.05311390,-0.22030284,0.01969406,0.05016671,-0.04207219,0.99759159,-0.04087594,-0.03234712,0.04575858
1757977756046,0.30448506,0.01759577,0.43232753,-0.07043460,0.05160669,0.02913069,0.99757640,-0.04129150,-0.03204265,0.04593045
1757977756058,0.29351396,-0.56101943,-0.27056384,-0.14137607,0.04615847,0.03516908,0.99754280,-0.04207614,-0.03178647,0.04612564
1757977756065,0.56098408,-0.35466756,-1.82412750,-0.21485752,0.02217652,0.02044543,0.99750569,-0.04292483,-0.03169887,0.04620640
1757977756077,-0.05445747,0.22748354,0.03077142,-0.18270687,-0.01548790,0.02070065,0.99745300,-0.04394798,-0.03178560,0.04632232
1757977756088,-0.09140291,0.14244834,-0.05876764,-0.13724227,-0.04685655,0.00475083,0.99740803,-0.04473713,-0.03205503,0.04634964
1757977756098,0.25583278,-0.57244790,-0.86720309,-0.09934952,-0.08736931,-0.00115368,0.99737103,-0.04524381,-0.03250061,0.04634376
1757977756110,-0.32155887,0.31709167,1.05220900,-0.12660526,-0.09853199,0.00000435,0.99731911,-0.04597179,-0.03306717,0.04634378
1757977756121,0.14644188,0.45741422,0.03249216,-0.14947292,-0.10780399,0.01988517,0.99725537,-0.04680137,-0.03366548,0.04645415
1757977756208,-0.16359102,0.27491625,0.47877821,-0.00927596,-0.01393999,0.00751653,0.99720029,-0.04720580,-0.03427326,0.04678187
1757977756210,359.37396272,-509.94571560,-1601.23521764,-2.97462979,-3.35672795,3.28123616,0.99688394,-0.04943677,-0.03679081,0.04924279
1757977756245,-15.25237429,21.55416153,66.95660977,0.00010475,0.01716957,0.06376066,0.99683894,-0.04943492,-0.03648777,0.05036817
1757977756269,-0.00619198,0.03326865,0.11260396,0.00186492,0.02526974,0.04143203,0.99682597,-0.04941273,-0.03618706,0.05086121
1757977756291,-0.17219488,-0.09426260,0.79612913,-0.03270674,0.01620803,-0.00136206,0.99681529,-0.04977250,-0.03600877,0.05084623
1757977756306,-0.47375016,0.30757247,-0.38165268,-0.12607987,0.03625780,-0.09573442,0.99681380,-0.05071180,-0.03573865,0.05013301
1757977756319,0.21401353,0.06784749,-0.42585452,-0.03519173,0.10808350,-0.06845665,0.99684962,-0.05094230,-0.03503070,0.04968462
1757977756331,-0.08565221,-0.84754185,0.40560893,0.03360561,0.12637670,-0.02492658,0.99689480,-0.05073563,-0.03425348,0.04953132
1757977756344,-0.04505685,0.08594234,0.26278612,-0.00796321,0.11715847,-0.11496901,0.99695260,-0.05078540,-0.03352124,0.04881276
1757977756356,-0.30309675,1.80320177,0.22757686,0.00452114,0.07046107,-0.09559306,0.99699746,-0.05075737,-0.03308439,0.04822008
1757977756368,0.63629026,0.32024144,0.13875705,0.13349979,0.07611159,-0.03568731,0.99706330,-0.04995637,-0.03262772,0.04800596
1757977756380,-0.30464596,0.23014016,0.21358331,0.17502461,0.03898387,-0.06597729,0.99714197,-0.04890622,-0.03239381,0.04761010
1757977756391,0.08942575,0.08664645,0.43920398,0.17993183,0.02856335,-0.08263632,0.99722007,-0.04787161,-0.03222957,0.04713494
1757977756403,0.05293950,-0.27424645,0.63277507,0.12282755,0.02443660,-0.06736849,0.99727746,-0.04715307,-0.03208662,0.04674083
1757977756415,0.04750647,0.32315607,0.38616991,0.09038611,-0.00025845,-0.02801062,0.99730966,-0.04662883,-0.03208812,0.04657837
1757977756427,0.22645475,0.39799738,-0.06743784,0.09031742,0.01621121,-0.01611933,0.99734330,-0.04607338,-0.03198842,0.04647924
1757977756439,0.03776772,0.24751221,0.09143324,0.13816592,0.01413586,-0.00149133,0.99738371,-0.04525820,-0.03190502,0.04647044
1757977756450,0.02377826,-0.06212276,-0.08799597,0.16684555,-0.00095213,0.00228064,0.99742454,-0.04433221,-0.03191030,0.04648309
1757977756461,-0.08592333,-0.27053739,0.45363752,0.14091315,-0.00705743,0.02562908,0.99745157,-0.04353605,-0.03195018,0.04662790
1757977756473,0.28600365,-0.18054523,0.31064024,0.13957674,-0.01142772,0.03191532,0.99747537,-0.04274046,-0.03201531,0.04680982
1757977756484,-0.30376149,0.11233300,-0.04662733,0.10818640,-0.02697743,0.00525895,0.99749559,-0.04211298,-0.03217178,0.04684032
1757977756496,-0.05979764,-0.19037460,-0.02839382,0.12170597,-0.04189934,0.01562152,0.99751258,-0.04142534,-0.03240852,0.04692858
1757977756507,0.00066595,0.09136354,0.30940804,0.10278200,-0.02947953,0.01704382,0.99752607,-0.04086518,-0.03256918,0.04702147
1757977756518,0.15308424,-0.13036691,0.16317428,0.09951667,-0.02635562,0.03921449,0.99753367,-0.04029794,-0.03271941,0.04724499
1757977756529,0.23266231,0.17669289,-0.15862944,0.11933962,-0.02412684,0.03589483,0.99754680,-0.03961173,-0.03285813,0.04745139
1757977756541,-0.06615117,-0.36773193,-0.07663785,0.13370289,-0.02547282,0.01666775,0.99756710,-0.03886300,-0.03300078,0.04754473
1757977756552,-0.05138388,-0.29669809,0.16743577,0.08332493,-0.02964286,0.04017237,0.99756894,-0.03838804,-0.03316975,0.04777371
1757977756563,-0.29601305,0.28220030,0.47795949,0.04166198,-0.03182690,0.02675924,0.99756480,-0.03815682,-0.03334639,0.04792222
1757977756574,0.13564879,-0.02139953,-0.49966766,0.07244608,-0.01328155,0.01393928,0.99757400,-0.03775112,-0.03342076,0.04800028
1757977756586,-0.04437856,-0.41714099,0.44150169,0.04911685,-0.02529398,0.02468684,0.99757294,-0.03747361,-0.03356367,0.04813976
1757977756597,-0.05500976,-0.23533682,0.16276700,0.08093941,-0.02069252,0.02136966,0.99758018,-0.03702035,-0.03367955,0.04825943
1757977756608,0.03991382,-0.04989228,0.09123160,0.00629986,-0.01053314,0.03670525,0.99756953,-0.03698507,-0.03373854,0.04846498
1757977756620,-0.02516658,0.11082713,-0.06578563,0.03884563,-0.01524102,0.02743616,0.99756714,-0.03676171,-0.03382617,0.04862274
1757977756630,0.08241418,0.18301175,-0.05602794,0.08780946,0.00179925,0.02298058,0.99757899,-0.03627876,-0.03381628,0.04874913
1757977756642,-0.15488637,-0.00653999,0.02564161,0.04187060,-0.00053117,0.01518633,0.99758323,-0.03604428,-0.03381925,0.04883418
1757977756653,-0.52657449,0.12147840,0.43995127,0.03096777,0.01551604,0.00076761,0.99759229,-0.03586931,-0.03373159,0.04883851
1757977756664,0.08387284,0.05132198,0.03227622,0.04436793,0.02410440,0.00939827,0.99760297,-0.03562529,-0.03359901,0.04889020
1757977756675,-0.02868575,0.04722308,-0.12555017,0.06067023,0.02575313,-0.01298858,0.99762382,-0.03527947,-0.03345222,0.04881617
1757977756686,-0.08556731,-0.06744520,0.04423589,0.07806723,0.02270124,-0.00968369,0.99764550,-0.03485400,-0.03332850,0.04876339
1757977756698,0.09476264,0.48370010,-0.18746768,0.05244315,0.01843655,-0.00540751,0.99766064,-0.03456032,-0.03322525,0.04873311
1757977756709,-0.02045855,0.20384838,-0.34427363,0.10974003,0.01407784,0.01209584,0.99768141,-0.03393480,-0.03314501,0.04880206
1757977756720,0.05401320,-0.01198661,-0.19755867,0.17515758,0.01261979,0.01792495,0.99771119,-0.03297144,-0.03307560,0.04890064
1757977756731,0.18635091,-0.33398886,0.05598303,0.16805412,0.01859546,0.02326701,0.99773890,-0.03203033,-0.03297147,0.04903094
1757977756742,-0.10768083,-0.00282052,0.22066580,0.11231250,0.00154518,0.01836866,0.99775398,-0.03140700,-0.03296289,0.04913289
1757977756754,-0.08160025,-0.24984295,0.16780955,0.08275150,-0.00692580,0.02044501,0.99776160,-0.03093945,-0.03300202,0.04924840
1757977756765,-0.02097452,-0.34763966,0.03204207,0.07356940,-0.01209763,0.01240285,0.99776862,-0.03052747,-0.03306977,0.04931786
1757977756776,0.13247431,0.34220772,0.13008168,0.01624051,-0.00519109,0.02454503,0.99776372,-0.03043814,-0.03309832,0.04945285
1757977756787,-0.21086259,-0.29057365,-0.24054206,0.06027259,-0.01825155,0.02777690,0.99776283,-0.03009760,-0.03320144,0.04960979
1757977756798,0.10150496,-0.38686190,-0.18395044,0.08331494,-0.01537676,0.02061853,0.99776813,-0.02963520,-0.03328678,0.04972423
1757977756809,-0.12958309,0.10647479,-0.03029521,0.04226511,-0.02410969,0.00264747,0.99776990,-0.02939641,-0.03342300,0.04973918
1757977756820,0.28285249,0.28442366,0.15081471,0.02731392,-0.02753207,0.02434770,0.99776248,-0.02924481,-0.03357580,0.04987431
1757977756832,0.03289600,-0.43200185,-0.31347951,0.03769201,-0.01266623,0.02412816,0.99775951,-0.02903562,-0.03364610,0.05000823
1757977756843,-0.01644800,-0.04160376,-0.06772705,0.02848249,-0.01683509,0.04692041,0.99774786,-0.02887755,-0.03373954,0.05026863
1757977756854,-0.09832054,-0.03133518,-0.02926329,0.01343159,-0.00453070,0.04055848,0.99773771,-0.02880233,-0.03376491,0.05049576
1757977756865,-0.01995691,-0.09835907,0.03801317,0.01169184,0.00012344,0.03838024,0.99772872,-0.02873686,-0.03376422,0.05071069
1757977756876,-0.01520527,-0.11071335,-0.08362897,0.01394143,-0.01885773,0.03865687,0.99771636,-0.02865878,-0.03386982,0.05092717
1757977756887,-0.00270390,-0.03413996,-0.09666655,0.02034479,-0.01891910,0.02970029,0.99770760,-0.02854587,-0.03397482,0.05109201
1757977756898,-0.02322070,-0.01257788,-0.19350587,0.03475284,-0.01599094,0.02067930,0.99770419,-0.02835299,-0.03406357,0.05120678
1757977756910,0.00858721,-0.07058976,-0.09445073,0.01080948,-0.00707920,0.02621712,0.99769701,-0.02829246,-0.03410321,0.05135359
1757977756921,0.19694446,-0.17188774,0.18438276,0.00286199,-0.00117917,0.04551158,0.99768397,-0.02827629,-0.03410988,0.05161073
1757977756932,0.08400381,0.09237337,0.08175195,0.02303855,0.00310888,0.03650685,0.99767767,-0.02814842,-0.03409262,0.05181335
1757977756943,0.05514917,0.11997364,-0.06966211,0.05425448,-0.00017164,0.02018004,0.99768027,-0.02784731,-0.03409358,0.05192534
1757977756955,-0.05816699,0.18107195,-0.33675898,0.04961770,0.00100603,0.02514873,0.99768084,-0.02756945,-0.03408794,0.05206618
1757977756966,-0.17295991,0.18816517,-0.17866188,0.06480411,-0.00175485,0.01272515,0.99768674,-0.02720655,-0.03409777,0.05213744
1757977756977,-0.00190050,0.07249991,0.02468928,0.05812085,0.01226722,0.01229826,0.99769424,-0.02688398,-0.03402969,0.05220569
1757977756988,-0.06579199,-0.05273035,-0.00967529,0.04737447,0.01544198,0.00139173,0.99770381,-0.02662105,-0.03394398,0.05221342
1757977756999,-0.07356061,-0.07138599,0.04404048,0.02778682,0.01652626,-0.00905205,0.99771374,-0.02646544,-0.03385144,0.05216273
1757977757010,0.05846181,-0.15624690,0.02144029,0.02866174,0.02994964,-0.00236931,0.99772464,-0.02630064,-0.03367922,0.05214910
1757977757022,0.16109594,-0.09160485,0.05840174,0.02614244,0.03014493,0.01272176,0.99773050,-0.02615293,-0.03350891,0.05222098
1757977757032,0.10040610,0.13579798,0.10166423,0.05613377,0.04896479,-0.00351718,0.99774791,-0.02585543,-0.03324939,0.05220234
1757977757044,0.01330550,0.12865051,-0.03132477,0.06823103,0.05529072,-0.00352764,0.99776979,-0.02545969,-0.03292871,0.05218188
1757977757055,-0.33303182,0.29573858,-0.02503769,0.07415498,0.07062385,-0.00939931,0.99779556,-0.02505183,-0.03254028,0.05213018
1757977757066,-0.23703941,0.11664981,-0.02689007,0.07933566,0.06630558,-0.00176548,0.99781854,-0.02461945,-0.03217891,0.05212056
1757977757077,-0.07643892,0.11445502,-0.02064402,0.07598714,0.09075216,0.01584328,0.99784018,-0.02420152,-0.03167977,0.05220770
1757977757088,-0.06408627,0.03860793,-0.00213876,0.08024508,0.09602021,0.01494530,0.99786373,-0.02374814,-0.03113726,0.05229214
1757977757100,-0.03474752,-0.04641778,0.07617972,0.08508455,0.09418339,0.00741513,0.99788977,-0.02325890,-0.03059570,0.05233478
1757977757111,-0.05339197,-0.04523567,0.11445269,0.08665768,0.09813317,0.00260421,0.99791690,-0.02277362,-0.03004616,0.05234936
1757977757122,0.00665230,-0.03278636,0.07982765,0.08211522,0.08656932,-0.00213645,0.99794239,-0.02231378,-0.02956137,0.05233740
1757977757133,-0.03288971,0.01846257,0.04861463,0.10489058,0.09517592,0.01467611,0.99796540,-0.02175786,-0.02905694,0.05241518
1757977757144,0.05279151,-0.01924856,0.00546058,0.09500085,0.09635778,0.00950377,0.99798984,-0.02122110,-0.02851252,0.05246888
1757977757155,-0.11811835,-0.03891724,-0.00210250,0.09344715,0.09822292,0.01141610,0.99801303,-0.02069780,-0.02796247,0.05253281
1757977757166,-0.00285099,-0.05844524,0.08362897,0.07368197,0.12068084,0.03123843,0.99803098,-0.02028518,-0.02728666,0.05270774
1757977757177,-0.12038829,-0.15854523,-0.03236040,0.05177388,0.12009494,0.03705158,0.99804390,-0.01999783,-0.02662013,0.05291338
1757977757189,0.06417759,-0.18445272,-0.00451509,0.03893304,0.11619951,0.02813872,0.99805737,-0.01977397,-0.02595198,0.05307518
1757977757200,-0.01739093,-0.04690412,0.05225847,0.02731753,0.11804697,0.02758618,0.99806892,-0.01962372,-0.02530272,0.05322690
1757977757212,0.10418413,-0.05278874,-0.07736226,0.04085909,0.10535755,0.03231393,0.99807893,-0.01938470,-0.02468638,0.05341594
1757977757222,-0.05613507,0.08537910,0.15174237,0.05502461,0.10193250,0.02864523,0.99808934,-0.01910132,-0.02416143,0.05356346
1757977757233,0.20715330,-0.09406875,-0.09425789,0.05245294,0.09175680,0.01389947,0.99810304,-0.01880758,-0.02364759,0.05364130
1757977757244,0.12006552,0.06275432,-0.06381711,0.02979887,0.08180323,0.03598872,0.99810609,-0.01863922,-0.02318540,0.05384463
1757977757256,0.01650793,-0.03410327,-0.19205029,0.06329377,0.08274584,0.03652708,0.99811220,-0.01828794,-0.02272616,0.05404736
1757977757267,0.03735198,-0.09784005,-0.03638699,0.02698032,0.06834409,0.00484993,0.99812256,-0.01813010,-0.02232635,0.05407573
1757977757278,-0.04290081,0.01016525,0.09726359,0.03061339,0.07573157,0.01302534,0.99813065,-0.01796785,-0.02192497,0.05414476
1757977757289,0.10071696,0.16380626,-0.01409356,0.06022636,0.05092612,0.02430136,0.99813550,-0.01763058,-0.02163979,0.05428085
1757977757300,0.05961536,0.19372615,-0.04224302,0.10254455,0.06486308,0.03124662,0.99814368,-0.01706146,-0.02127980,0.05445427
1757977757311,0.01884391,0.08264867,0.01715729,0.08595689,0.06054903,0.02853767,0.99815023,-0.01658010,-0.02094072,0.05461408
1757977757323,-0.14188990,-0.17821113,0.03880484,0.05811460,0.06116063,0.02687488,0.99815443,-0.01625757,-0.02060128,0.05476324
1757977757334,-0.12832012,-0.20303654,0.03186599,0.04375605,0.05607251,0.03065652,0.99815539,-0.01601253,-0.02028727,0.05493491
1757977757345,0.14380445,-0.16560691,-0.03452659,0.05806769,0.05300513,0.02919852,0.99815758,-0.01567864,-0.01998250,0.05510280
1757977757356,0.13537865,0.16915000,-0.00506570,0.03924492,0.03965781,0.03132549,0.99815580,-0.01546672,-0.01976834,0.05527196
1757977757367,0.20148982,-0.04843397,-0.01861981,0.03435353,0.04707154,0.01853896,0.99815822,-0.01527262,-0.01950239,0.05537671
1757977757379,0.05105092,-0.07541557,0.07685643,0.01461238,0.03933829,0.01069072,0.99816046,-0.01518933,-0.01927816,0.05543764
1757977757390,-0.05401425,-0.05972197,-0.02534806,0.00602252,0.01881355,0.01130151,0.99815951,-0.01515651,-0.01917563,0.05549924
1757977757401,0.10964149,0.04702281,0.05086186,-0.00521398,0.04352471,0.00512242,0.99816210,-0.01518545,-0.01893406,0.05552767
1757977757412,0.04052169,0.02814173,-0.06575250,0.00874782,0.02113463,0.01829906,0.99815938,-0.01513646,-0.01881571,0.05563014
1757977757423,0.17680735,-0.03661926,-0.09813512,0.04452210,0.02577882,-0.00262527,0.99816659,-0.01488936,-0.01867264,0.05561557
1757977757434,0.21725723,-0.09675378,-0.00157532,0.03246978,0.01131031,-0.00616288,0.99817239,-0.01470753,-0.01860930,0.05558106
1757977757445,0.04751646,-0.04609096,-0.10263555,0.02955891,0.00240134,-0.01920878,0.99818105,-0.01454200,-0.01859585,0.05547349
1757977757456,-0.01656894,0.09623893,0.04322783,0.02064480,-0.00104983,-0.00826736,0.99818516,-0.01442742,-0.01860168,0.05542761
1757977757468,-0.04559438,0.00528547,-0.01272773,0.02737074,-0.01185995,0.00366699,0.99818498,-0.01427689,-0.01866691,0.05544778
1757977757479,-0.01286814,-0.00281903,0.09969070,0.01501240,-0.01252080,0.00059814,0.99818469,-0.01419357,-0.01873640,0.05545109
1757977757490,0.02643799,0.03431887,0.10463895,0.01025591,-0.00874926,-0.00403020,0.99818583,-0.01413613,-0.01878540,0.05542853
1757977757501,-0.02570864,0.05631971,0.06470352,0.01013626,-0.02001730,0.00106611,0.99818420,-0.01407988,-0.01889649,0.05543444
1757977757512,0.00362152,0.06012330,-0.04321857,0.01476582,-0.02261224,0.02121407,0.99817636,-0.01399719,-0.01902312,0.05555324
1757977757523,-0.03041053,0.05226810,-0.03231119,0.01805203,-0.01982941,0.00749447,0.99817331,-0.01389610,-0.01913416,0.05559521
1757977757534,-0.00760263,-0.09503292,-0.12354279,0.03179694,-0.02421184,0.01529663,0.99816839,-0.01371803,-0.01926975,0.05568087
1757977757546,0.03566901,0.00328701,0.07508719,0.02801400,-0.01754422,0.00153581,0.99816815,-0.01356256,-0.01936712,0.05568940
1757977757557,0.01596724,0.02667771,0.04342405,0.02304427,-0.02126206,0.01758328,0.99816208,-0.01343351,-0.01948619,0.05578786
1757977757568,-0.01425494,0.04228965,0.08743028,0.03274292,-0.03245268,0.01649527,0.99815580,-0.01325015,-0.01966792,0.05588024
1757977757579,0.00760263,0.14587553,0.04751646,0.03672680,-0.02012574,-0.00277441,0.99815715,-0.01304448,-0.01978063,0.05586470
1757977757590,0.05252302,0.04058440,0.05029425,0.05395541,-0.01153329,0.01651772,0.99815462,-0.01274503,-0.01984464,0.05595637
1757977757602,-0.11857711,-0.00125854,-0.02893795,0.05299166,-0.02565117,0.01502857,0.99815077,-0.01244827,-0.01998828,0.05604053
1757977757613,-0.01995691,-0.00522681,0.02090724,0.03280151,-0.01671193,0.00448967,0.99814976,-0.01226458,-0.02008187,0.05606567
1757977757624,0.23750254,-0.17873809,0.10679105,0.02756662,-0.00936601,0.02246786,0.99814357,-0.01211159,-0.02013385,0.05619037
1757977757635,0.00885262,-0.21201758,0.00440062,0.03318822,-0.01302410,0.02281933,0.99813713,-0.01192574,-0.02020679,0.05631816
1757977757646,-0.05987074,-0.07127469,0.10073489,0.01515769,-0.01561415,0.00481721,0.99813484,-0.01184085,-0.02029423,0.05634514
1757977757657,-0.20201494,0.07395552,0.06807260,0.01208913,-0.00287542,0.01604667,0.99813028,-0.01177376,-0.02031019,0.05643419
1757977757668,-0.14095693,0.12294776,-0.06366349,0.04609340,-0.00010392,0.03757927,0.99812136,-0.01151563,-0.02031077,0.05664464
1757977757680,-0.01710592,0.17676122,0.05511909,0.07818228,0.01220548,0.02532845,0.99811964,-0.01107781,-0.02024242,0.05678648
1757977757691,-0.06885008,0.13539796,-0.14618332,0.07896970,0.00727219,0.01546859,0.99812034,-0.01063953,-0.02020206,0.05687233
1757977757702,0.04067580,0.03211856,-0.02428048,0.06385717,0.02754860,0.01636911,0.99812197,-0.01028193,-0.02004778,0.05696400
1757977757713,-0.04319050,-0.04235484,-0.04468589,0.06434519,0.02000402,0.02685560,0.99811932,-0.00992803,-0.01993776,0.05711170
1757977757724,-0.08822108,-0.22651181,0.04556184,0.04949693,0.02143500,0.00380273,0.99812317,-0.00965333,-0.01981880,0.05713281
1757977757737,-0.01081669,-0.29401922,0.05856843,0.00938963,0.02840205,-0.01569637,0.99813294,-0.00959417,-0.01963986,0.05703392
1757977757746,-0.10752158,0.02281553,0.25164455,-0.00637857,0.03615323,-0.00676156,0.99813795,-0.00962511,-0.01946452,0.05700113
1757977757758,0.16957007,-0.04584114,-0.21477439,0.01424803,0.03595395,0.00287569,0.99814170,-0.00954532,-0.01926318,0.05701723
1757977757769,0.03539686,0.21458024,-0.17343052,0.04515787,0.03725033,-0.00158671,0.99814848,-0.00929695,-0.01905830,0.05700850
1757977757780,-0.03381444,0.14039817,-0.09005665,0.04092778,0.05633698,0.00034607,0.99815645,-0.00906775,-0.01874282,0.05701044
1757977757791,0.02755955,-0.01187911,-0.06652304,0.05746035,0.07030969,0.00374276,0.99816544,-0.00874598,-0.01834908,0.05703140
1757977757802,0.00538478,-0.01945522,-0.13715343,0.05773207,0.05828983,0.01810847,0.99816839,-0.00841979,-0.01801974,0.05713371
1757977757813,0.05859974,0.00610485,0.00118158,0.05767637,0.05429657,0.00246418,0.99817565,-0.00809969,-0.01771840,0.05714739
1757977757825,0.09868799,-0.39330068,0.12384376,0.04837220,0.05184793,0.00286498,0.99818195,-0.00783122,-0.01743064,0.05716329
1757977757836,0.07407630,-0.06939075,0.06941554,0.03484200,0.04485528,0.00588607,0.99818600,-0.00763262,-0.01717497,0.05719684
1757977757847,0.06034328,-0.04870746,0.05255212,0.05660710,0.04213935,0.00541027,0.99819063,-0.00731845,-0.01694109,0.05722687
1757977757858,-0.00195265,0.44819977,-0.12420630,0.05762284,0.03411565,0.00503213,0.99819448,-0.00700153,-0.01675346,0.05725454
1757977757869,0.03421185,0.17710680,-0.09461823,0.07143825,0.02656261,0.00735559,0.99819733,-0.00660147,-0.01660471,0.05729574
1757977757880,0.06223287,0.17970130,-0.06202554,0.08844685,0.01591332,0.00547869,0.99820017,-0.00611059,-0.01651639,0.05732614
1757977757891,0.08847479,0.06898876,-0.11338882,0.08672888,0.02643615,0.00878140,0.99820264,-0.00562491,-0.01636835,0.05737532
1757977757903,-0.04181448,-0.09883423,-0.10453621,0.07208546,0.01156840,-0.01049748,0.99820927,-0.00522123,-0.01630356,0.05731653
1757977757914,0.01249094,-0.14457821,-0.00341302,0.03304629,0.01005829,-0.00967291,0.99821416,-0.00503948,-0.01624824,0.05726333
1757977757925,0.15823503,-0.26538450,0.00267390,0.03366591,0.01629575,-0.00591877,0.99821844,-0.00485263,-0.01615780,0.05723048
1757977757936,-0.00967529,-0.11658729,0.07740235,0.02461082,0.00786595,-0.02295310,0.99822709,-0.00471604,-0.01611414,0.05710309
1757977757947,0.05527320,0.02543629,0.08934806,0.03580617,0.00988762,-0.00861942,0.99823167,-0.00451553,-0.01605877,0.05705482
1757977757958,-0.12930338,0.18573972,-0.04371159,0.05830833,0.01096102,-0.01176230,0.99823779,-0.00419191,-0.01599794,0.05698954
1757977757970,-0.06937115,0.20080879,-0.03998429,0.06160997,0.01326718,-0.00639781,0.99824245,-0.00384382,-0.01592298,0.05695340
1757977757981,-0.01935915,0.10034478,-0.14699596,0.07236603,0.01627080,-0.00929432,0.99824830,-0.00344219,-0.01583268,0.05690181
1757977757992,-0.00483765,-0.10207434,-0.02515576,0.06632982,0.01809472,-0.01649825,0.99825630,-0.00307406,-0.01573225,0.05681025
1757977758003,0.00449480,-0.24432021,0.01289366,0.04275056,0.01653887,-0.00563883,0.99826026,-0.00283465,-0.01563963,0.05677867
1757977758014,-0.01900658,-0.18769001,0.03231119,-0.00564936,0.02132345,0.00407996,0.99826073,-0.00286629,-0.01552022,0.05680152
1757977758025,0.07680555,-0.34816387,0.03878770,-0.00035218,0.02910155,-0.00700036,0.99826556,-0.00286830,-0.01535434,0.05676161
1757977758036,-0.03076093,-0.02256682,0.12054411,0.01154241,0.03022901,-0.01937687,0.99827426,-0.00280539,-0.01518960,0.05665601
1757977758047,-0.08037973,0.18571486,0.05878666,0.03719625,0.04644958,-0.02327340,0.99828593,-0.00260081,-0.01493412,0.05652801
1757977758058,-0.27269375,0.29489415,-0.02019498,0.04653592,0.05093671,-0.02213051,0.99829770,-0.00234254,-0.01465142,0.05640518
1757977758070,-0.08272728,0.07803834,-0.04609043,0.05983288,0.06567442,-0.01747998,0.99830939,-0.00200448,-0.01428036,0.05630642
1757977758081,-0.14300351,0.01443996,-0.01496979,0.03144576,0.06511400,-0.02463048,0.99832265,-0.00182839,-0.01391573,0.05616849
1757977758092,-0.05701975,-0.17771155,-0.04371514,0.02318662,0.07455910,-0.01713999,0.99833401,-0.00169854,-0.01349819,0.05607251
1757977758104,-0.09115777,-0.13972079,0.06003276,0.00906191,0.08067446,-0.01479563,0.99834484,-0.00164734,-0.01304238,0.05598891
1757977758114,-0.12281879,-0.10048176,0.04610391,-0.03235447,0.08738191,-0.01757317,0.99835611,-0.00182529,-0.01256178,0.05589226
1757977758126,0.33595345,-0.00049260,0.15369132,-0.02025913,0.09848705,-0.00010365,0.99836260,-0.00193672,-0.01202010,0.05589169
1757977758137,0.05952869,0.03434315,0.05197514,-0.03040534,0.08372734,0.00814246,0.99836526,-0.00210851,-0.01154704,0.05593769
1757977758148,-0.03652218,0.01890626,0.00966020,0.00989342,0.08546910,-0.03091228,0.99838021,-0.00205409,-0.01107696,0.05576768
1757977758159,-0.33161304,0.11659675,-0.17427309,0.01922503,0.06841625,-0.01237639,0.99838847,-0.00194643,-0.01069383,0.05569837
1757977758170,-0.03642899,0.09402087,-0.16520810,0.03409964,0.05102993,0.01511428,0.99838710,-0.00175206,-0.01040296,0.05578452
1757977758181,0.10736668,0.04741670,-0.03593234,0.04151580,0.07106351,0.00764640,0.99838908,-0.00152788,-0.01001922,0.05582581
1757977758192,0.02667961,-0.06302090,-0.06518554,0.01502152,0.03315236,-0.00901952,0.99839388,-0.00144376,-0.00983357,0.05577530
1757977758204,0.10133142,-0.08104354,0.07598561,-0.02731888,0.03044404,-0.00816155,0.99839782,-0.00159538,-0.00966460,0.05573000
1757977758215,0.11076843,-0.13440240,0.05182651,-0.04289441,0.00503079,-0.00347342,0.99839878,-0.00183773,-0.00963618,0.05571038
1757977758226,-0.18823155,-0.01846440,-0.06630573,-0.03522833,-0.00961059,0.00426102,0.99839656,-0.00203325,-0.00968952,0.05573403
1757977758237,0.01125347,0.03074097,0.05953067,-0.04077761,-0.02867890,-0.00433395,0.99839585,-0.00226364,-0.00985155,0.05570954
1757977758248,0.05048769,0.03191664,-0.01733239,-0.02051407,-0.02752057,0.00915410,0.99839131,-0.00237544,-0.01000154,0.05575943
1757977758259,0.36674418,-0.11340899,0.02605469,-0.02001895,-0.03444002,0.01607542,0.99838399,-0.00248855,-0.01019613,0.05585026
1757977758271,-0.01518845,0.08842266,0.03019187,-0.00896559,-0.05491091,0.01056988,0.99837736,-0.00253876,-0.01050363,0.05590945
1757977758282,0.08598917,-0.03253317,-0.01155852,-0.00371660,-0.05771981,0.02478541,0.99836618,-0.00255938,-0.01082397,0.05604701
1757977758293,-0.06336384,-0.00149399,-0.00374995,-0.01997619,-0.06042815,0.01915305,0.99835613,-0.00267125,-0.01116237,0.05615426
1757977758304,-0.01140395,-0.14920168,-0.03041053,-0.00943330,-0.04455865,0.02604935,0.99834495,-0.00272408,-0.01141190,0.05630014
1757977758315,-0.05227250,-0.02016694,-0.01003812,-0.02133749,-0.03097548,0.02265849,0.99833554,-0.00284250,-0.01158381,0.05642590
1757977758326,0.13840739,-0.08180273,-0.07730719,-0.02608559,-0.02660555,0.02488593,0.99832567,-0.00298597,-0.01173014,0.05656277
1757977758337,-0.07526673,0.10424434,-0.05436950,-0.00160926,-0.01469459,0.01541923,0.99831967,-0.00299514,-0.01181390,0.05665066
1757977758349,-0.08553962,0.08752731,-0.05202551,0.00628860,-0.00645352,-0.00011395,0.99831939,-0.00296056,-0.01184940,0.05665003
1757977758360,-0.24904616,0.07323539,0.08639892,-0.00443907,-0.01346644,-0.00917932,0.99832135,-0.00298564,-0.01192548,0.05659817
1757977758371,-0.04374431,-0.09634195,0.06702495,-0.01148042,-0.01081199,-0.00320884,0.99832145,-0.00304935,-0.01198549,0.05658036
1757977758382,-0.04483995,-0.02530457,0.06429544,-0.02244293,-0.00944462,-0.00534750,0.99832210,-0.00317279,-0.01203743,0.05655095
1757977758393,-0.04100238,0.01552492,0.00217712,-0.03368706,-0.01626369,0.01730459,0.99831489,-0.00336144,-0.01212851,0.05664785
1757977758404,-0.02375823,0.11071335,0.11974147,-0.02410343,0.00019186,0.02385456,0.99830685,-0.00349642,-0.01212744,0.05678144
1757977758415,-0.12532960,0.00799939,-0.06288941,-0.00002832,-0.00040827,0.02824854,0.99829789,-0.00349657,-0.01212970,0.05693822
1757977758427,-0.12572598,0.13177042,0.08513579,-0.00346993,-0.00144077,0.03860675,0.99828537,-0.00351601,-0.01213777,0.05715442
1757977758438,-0.05503687,0.05958080,0.05729156,0.00701816,0.00121081,0.03413275,0.99827473,-0.00347706,-0.01213105,0.05734385
1757977758449,-0.04644141,0.09239905,0.06966211,-0.00306492,0.01204969,0.03313147,0.99826490,-0.00349407,-0.01206417,0.05752773
1757977758460,-0.01855018,0.03102939,0.07920659,0.00177353,0.00872139,0.03401732,0.99825471,-0.00348431,-0.01201621,0.05771483
1757977758471,0.02843558,0.03473977,0.01604400,0.00343813,0.01874525,0.03030824,0.99824606,-0.00346471,-0.01190936,0.05788758
1757977758482,-0.03307423,0.09418134,0.06563923,0.00349148,0.02003074,0.04095831,0.99823424,-0.00344534,-0.01179819,0.05811490
1757977758494,-0.07124044,0.02471712,-0.03220845,0.02398846,0.01607994,0.02309684,0.99822821,-0.00331100,-0.01170814,0.05824425
1757977758505,-0.05360548,0.06152227,0.03071715,0.04102523,0.03063679,0.02170893,0.99822392,-0.00308536,-0.01153964,0.05836364
1757977758516,0.01180386,0.02293924,-0.01342227,0.03602505,0.02909628,0.03620941,0.99821461,-0.00288542,-0.01137815,0.05856461
1757977758527,-0.03192847,-0.11948987,0.02902588,0.04011026,0.03361220,0.01675700,0.99821187,-0.00266281,-0.01119161,0.05865761
1757977758538,0.01367275,-0.10015699,-0.00001712,0.04726203,0.01548517,0.01918356,0.99820719,-0.00239814,-0.01110489,0.05876504
1757977758549,0.04181448,-0.09835907,0.08743028,0.03653242,0.01852002,0.02042452,0.99820207,-0.00219356,-0.01100118,0.05887941
1757977758560,0.08430463,0.08613603,0.07627932,0.01598947,0.01441922,0.02491585,0.99819498,-0.00210482,-0.01092115,0.05901770
1757977758571,-0.01064282,0.06821082,-0.02709082,0.00837156,0.00099328,0.01738272,0.99818942,-0.00205836,-0.01091564,0.05911417
1757977758583,0.10303062,0.10649582,-0.04723428,0.02446833,0.00123173,0.04518504,0.99817462,-0.00192011,-0.01090868,0.05936947
1757977758594,-0.04789122,0.12208642,-0.11571313,0.05637681,-0.00260634,0.02739034,0.99816604,-0.00161004,-0.01092301,0.05952011
1757977758605,0.01833271,-0.04580587,-0.13263139,0.05937604,-0.01021941,0.01583459,0.99816061,-0.00127753,-0.01098024,0.05960879
1757977758616,0.08468473,-0.21075726,-0.08075414,0.04540166,-0.00578711,0.02074255,0.99815366,-0.00102555,-0.01101236,0.05972391
1757977758627,-0.03046342,-0.37942183,0.02467689,-0.00192743,-0.01138821,0.03118050,0.99814238,-0.00103644,-0.01107670,0.05990008
1757977758638,-0.01272914,-0.29474067,0.00990432,0.01545210,-0.01579637,0.02117746,0.99813450,-0.00095146,-0.01116358,0.06001655
1757977758650,0.01727871,-0.07249284,0.01499792,-0.01490235,-0.01979355,-0.00600954,0.99813520,-0.00103491,-0.01127443,0.05998290
1757977758661,0.13209575,0.37728068,0.00380132,-0.01087875,-0.01077527,0.00465722,0.99813288,-0.00109583,-0.01133477,0.06000898
1757977758672,0.00554175,0.13645910,-0.04672666,-0.01959318,-0.01951522,0.00636204,0.99812943,-0.00120359,-0.01144210,0.06004397
1757977758683,0.02401741,0.04606505,-0.09475646,0.00629334,-0.01313025,0.00618163,0.99812654,-0.00116835,-0.01151563,0.06007859
1757977758694,-0.07779973,0.03623052,-0.05518373,0.01639529,-0.01477643,0.01422183,0.99812094,-0.00107736,-0.01159764,0.06015752
1757977758705,0.02732624,-0.07988448,0.01783061,0.01170641,-0.00643902,0.01836337,0.99811433,-0.00101122,-0.01163402,0.06026127
1757977758716,0.01711459,-0.05361497,0.12990700,-0.00151299,0.00033584,0.02190599,0.99810706,-0.00101954,-0.01163218,0.06038176
1757977758728,0.06598740,-0.00433696,0.03265677,-0.00183096,-0.00845240,0.01537274,0.99810128,-0.00102979,-0.01167951,0.06046784
1757977758739,-0.03171995,0.03298663,0.07906236,-0.00605638,-0.01105793,0.00656960,0.99809834,-0.00106310,-0.01174033,0.06050398
1757977758750,0.05016010,0.06738698,0.00977975,-0.00299046,-0.00910434,0.01536280,0.99809251,-0.00107985,-0.01179131,0.06059001
1757977758761,-0.11118813,0.09329747,-0.00101936,0.01165445,-0.01097459,0.00366802,0.99809062,-0.00101517,-0.01185222,0.06061037
1757977758772,0.01161035,0.02563953,-0.05031153,0.02316729,-0.00906139,0.00247819,0.99808930,-0.00088659,-0.01190251,0.06062412
1757977758783,0.01116591,0.03141884,-0.00709746,0.01261059,-0.00921552,0.01388722,0.99808388,-0.00081408,-0.01195550,0.06070397
1757977758794,-0.05060428,0.05923318,0.02247528,0.02526440,-0.00413664,0.01978778,0.99807715,-0.00067639,-0.01197805,0.06081181
1757977758806,0.05116723,0.03265401,-0.05640901,0.05002612,-0.00089142,0.02169497,0.99806976,-0.00039374,-0.01198308,0.06093439
1757977758817,-0.00428967,0.12082558,0.01948758,0.03748129,-0.00364747,0.00654663,0.99806736,-0.00018572,-0.01200333,0.06097072
1757977758828,-0.21748972,-0.26323055,-0.14950199,0.03420291,-0.01426440,-0.00801721,0.99806912,0.00000240,-0.01208178,0.06092663
1757977758839,-0.02773592,-0.02535528,-0.01178013,0.03642518,-0.00228416,-0.02152526,0.99807636,0.00020820,-0.01209468,0.06080501
1757977758850,-0.01713115,0.01154271,0.03113379,0.02924095,0.00332358,0.00320134,0.99807545,0.00037195,-0.01207607,0.06082294
1757977758861,0.07844661,0.16502992,0.01586877,0.02937128,0.01864557,0.02190460,0.99806926,0.00053349,-0.01197352,0.06094342
1757977758873,-0.03132083,0.02420777,-0.02458302,0.02851637,0.01073655,0.01465148,0.99806479,0.00069604,-0.01191232,0.06102693
1757977758884,-0.03748948,-0.02705845,-0.03166470,0.03643435,0.01183837,0.02332196,0.99805755,0.00089642,-0.01184721,0.06115520
1757977758895,-0.02311516,0.00797332,-0.07031300,0.03430214,0.01378135,0.01570974,0.99805292,0.00108680,-0.01177073,0.06124239
1757977758906,0.00030821,-0.01837303,-0.00571910,0.02896529,0.01168020,0.02236463,0.99804581,0.00124901,-0.01170532,0.06136763
1757977758917,0.04094986,-0.07046651,-0.02378368,0.02825045,0.00825445,0.02712210,0.99803663,0.00141003,-0.01165827,0.06152223
1757977758928,0.10161105,0.40413120,-0.05680321,0.03164925,0.00765911,0.02778349,0.99802760,0.00158094,-0.01161691,0.06167226
1757977758939,0.08873366,-0.02263076,-0.01504107,0.01131623,0.00486725,0.02486660,0.99801912,0.00164488,-0.01158941,0.06181275
1757977758951,-0.03057032,-0.11980455,-0.09020558,0.01927756,-0.00196253,0.00147534,0.99801830,0.00175283,-0.01160040,0.06182102
1757977758962,-0.08266890,-0.42302936,-0.00348339,0.00365079,0.00560956,0.02216099,0.99801106,0.00177291,-0.01156955,0.06194290
1757977758973,0.02561522,-0.16846933,-0.03940803,0.01781773,-0.00418858,0.02729418,0.99800129,0.00187091,-0.01159258,0.06209302
1757977758984,0.04763168,0.01385088,0.00426951,0.00277582,-0.00431866,0.02471405,0.99799220,0.00188673,-0.01161720,0.06223389
1757977758995,-0.00404451,-0.02617696,-0.05368480,0.02097626,-0.00731508,0.01946005,0.99798482,0.00200210,-0.01165743,0.06234092
1757977759006,0.00144119,0.05793496,0.05757466,-0.00165669,-0.00836126,0.02465842,0.99797590,0.00199307,-0.01170300,0.06247531
1757977759017,0.10342506,-0.08242026,0.06829925,0.00137014,-0.01100045,0.01621469,0.99796936,0.00200088,-0.01176570,0.06256773
1757977759028,-0.07606179,-0.13202995,0.23559614,-0.02078096,-0.01952740,0.01253909,0.99796403,0.00188762,-0.01187213,0.06263607
1757977759040,0.12325873,0.06759060,0.02160090,-0.00961269,-0.01932693,0.03890525,0.99794901,0.00183331,-0.01198132,0.06285588
1757977759051,-0.00373433,0.12183266,-0.05041351,0.01539492,-0.01641365,0.02311503,0.99793949,0.00192029,-0.01207406,0.06298648
1757977759062,0.05970440,0.13674120,-0.25508449,0.01999181,-0.01610959,-0.00226015,0.99793899,0.00202925,-0.01216186,0.06297417
1757977759073,0.01616213,0.03567745,-0.00601262,0.00383038,-0.01667222,0.00407239,0.99793634,0.00205089,-0.01225606,0.06299718
1757977759084,-0.03360901,-0.02333959,-0.06721802,0.01746871,-0.01313270,0.00925668,0.99793192,0.00214959,-0.01233026,0.06304948
1757977759095,0.02046253,-0.05732473,0.04359295,0.00605798,-0.00872384,0.01062667,0.99792755,0.00218291,-0.01237824,0.06310792
1757977759106,-0.00591120,-0.06699365,-0.05911204,-0.01149089,-0.01487688,-0.00017966,0.99792674,0.00211971,-0.01246006,0.06310693
1757977759118,0.17506791,-0.04094191,0.10021653,-0.03035081,-0.01939807,-0.00310423,0.99792682,0.00194974,-0.01256869,0.06308955
1757977759129,0.12581337,0.11649658,0.07373956,-0.04942563,-0.05036451,0.00834162,0.99792083,0.00167543,-0.01284821,0.06313585
1757977759140,-0.02015383,-0.00521825,0.02955438,-0.02637836,-0.04738719,0.00072459,0.99791736,0.00152771,-0.01311358,0.06313990
1757977759151,-0.02113013,0.10834513,0.03636347,-0.00642810,-0.03154325,0.00724985,0.99791242,0.00149107,-0.01329338,0.06318123
1757977759162,-0.09432001,-0.03949445,-0.03142272,0.01166864,-0.02105683,0.01595434,0.99790521,0.00155525,-0.01340919,0.06326898
1757977759173,0.00005277,0.08793522,0.00073884,0.01480593,-0.03795634,0.01571732,0.99789669,0.00163742,-0.01361985,0.06335621
1757977759185,0.01191301,0.02548264,0.05500937,0.03292567,-0.03562552,0.00176650,0.99789290,0.00182675,-0.01382469,0.06336637
1757977759196,-0.07212848,-0.04982606,-0.00366152,0.02409613,-0.02812988,0.00261092,0.99788964,0.00195686,-0.01397660,0.06338046
1757977759207,0.00463334,-0.08834899,0.02361621,-0.00477733,-0.01988990,0.01848338,0.99788148,0.00192987,-0.01408897,0.06348490
1757977759218,-0.04613722,-0.23246060,0.09880059,0.00337512,-0.01065159,0.02066966,0.99787323,0.00194877,-0.01414862,0.06360065
1757977759229,-0.13439659,-0.38718078,0.15921185,-0.00374101,-0.00970898,0.00102663,0.99787216,0.00192838,-0.01420154,0.06360624
1757977759240,-0.00346180,0.02386868,-0.00841484,-0.01085979,-0.01071020,0.01241430,0.99786703,0.00186811,-0.01426098,0.06367514
1757977759251,0.01445793,0.20186432,0.02376853,-0.00576474,-0.00174846,0.01533711,0.99786142,0.00183554,-0.01427086,0.06376179
1757977759262,0.05387217,0.45802244,-0.13055218,0.01786004,-0.00896763,0.01270725,0.99785606,0.00193377,-0.01432018,0.06383168
1757977759274,0.05437611,0.16102896,-0.04806938,0.05414928,-0.00746272,-0.00425805,0.99785635,0.00223701,-0.01436197,0.06380784
1757977759285,-0.02091719,0.05633881,-0.09693650,0.03220939,-0.02286808,-0.00795370,0.99785693,0.00242060,-0.01449232,0.06376250
1757977759296,0.07862593,0.03134494,0.07649997,0.00832545,-0.02197794,0.00357529,0.99785380,0.00246639,-0.01461320,0.06378217
1757977759307,-0.02758562,-0.14876531,-0.00788161,0.00266898,-0.03373072,-0.00255935,0.99785193,0.00248107,-0.01479872,0.06376809
1757977759318,0.07854902,-0.09122296,0.00656591,-0.00277799,-0.02075925,0.00167134,0.99784964,0.00246551,-0.01491497,0.06377745
1757977759329,0.23451766,0.19055343,0.13828461,0.00070542,-0.02270447,0.02423702,0.99783932,0.00246936,-0.01503871,0.06390954
1757977759340,-0.06572965,0.05640945,-0.01103777,0.02368409,-0.01702174,0.00250319,0.99783664,0.00260199,-0.01513403,0.06392356
1757977759352,-0.13391090,0.10044359,-0.06139979,0.03607409,-0.01078164,0.00503367,0.99783334,0.00280581,-0.01519495,0.06395200
1757977759363,-0.25467003,0.03456921,-0.03590316,0.05531104,-0.01721921,0.01775099,0.99782473,0.00311002,-0.01528965,0.06404963
1757977759374,0.06790297,-0.03162062,-0.00663197,0.05153778,-0.01300149,0.01556118,0.99781715,0.00339605,-0.01536181,0.06413600
1757977759385,-0.01658367,-0.12438610,0.01065054,0.03162357,-0.02305389,-0.00180548,0.99781518,0.00357315,-0.01549091,0.06412588
1757977759396,-0.01025664,-0.13996008,0.07663454,0.00065965,-0.01467538,0.00191730,0.99781323,0.00357677,-0.01557163,0.06413643
1757977759407,0.01669444,-0.17401574,0.07301523,-0.01859220,-0.00754703,0.01272628,0.99780827,0.00347080,-0.01561464,0.06420897
1757977759418,-0.06958573,-0.03745357,0.04150192,0.01913344,-0.01085925,0.00884214,0.99780379,0.00357699,-0.01567491,0.06425804
1757977759430,-0.05294446,-0.10873135,0.20652108,0.01016744,-0.00889896,0.00569105,0.99780075,0.00363393,-0.01572475,0.06428991
1757977759441,-0.02280790,0.08647995,-0.06462238,0.01896682,-0.00658890,0.00997099,0.99779617,0.00374014,-0.01576164,0.06434575
1757977759452,-0.05901929,0.00648763,-0.05416437,0.04846410,0.00552820,0.01008310,0.99779200,0.00400912,-0.01573096,0.06440171
1757977759463,0.05418164,0.10304187,-0.17996046,0.01074894,0.01015439,0.01963818,0.99778561,0.00406877,-0.01567461,0.06451070
1757977759474,-0.02999341,-0.19060328,0.02322070,0.00651640,-0.00057319,0.00173428,0.99778479,0.00410494,-0.01567779,0.06452033
1757977759486,0.10637931,-0.10259865,0.09341348,-0.02655583,-0.00163656,0.00696452,0.99778269,0.00395357,-0.01568712,0.06456003
1757977759496,0.01957990,-0.03851430,0.04873458,-0.02668792,-0.00594251,0.02127132,0.99777530,0.00380946,-0.01571921,0.06467489
1757977759508,-0.01376217,0.04705889,0.03083290,-0.00719122,-0.00180281,0.00887696,0.99777207,0.00376919,-0.01572930,0.06472460
1757977759519,0.04972166,0.19225987,-0.00156709,-0.00772405,-0.00256086,0.00256210,0.99777107,0.00372554,-0.01574377,0.06473908
1757977759530,0.32066320,0.09894914,-0.05483237,0.01196727,-0.00078812,0.00881629,0.99776757,0.00379196,-0.01574814,0.06478801
1757977759541,0.09288282,0.10400940,-0.02902588,0.03240580,0.00283269,0.01251110,0.99776261,0.00397182,-0.01573242,0.06485745
1757977759552,-0.11610352,-0.00241882,-0.02322070,0.03207662,-0.01225527,-0.00805707,0.99776372,0.00414984,-0.01580044,0.06481273
1757977759563,-0.25086977,0.03444729,0.08489607,0.02128242,-0.01407610,-0.04490111,0.99777826,0.00426902,-0.01587927,0.06456128
1757977759574,0.05575388,0.05860895,0.12139038,0.01121228,-0.00818250,-0.00563847,0.99777930,0.00433125,-0.01592468,0.06452999
1757977759586,0.04642914,-0.04430589,0.06785864,0.02413940,-0.00141671,0.01011722,0.99777491,0.00446643,-0.01593261,0.06458665
1757977759597,-0.04601126,0.10189962,0.08396358,0.03011082,-0.01787100,0.01418774,0.99776726,0.00463806,-0.01603448,0.06466752
1757977759608,0.02130121,0.12885615,0.10855008,0.03215813,-0.00465520,0.00770156,0.99776333,0.00481172,-0.01605961,0.06470910
1757977759620,0.00550366,-0.01933925,0.03108549,0.04125625,-0.01644737,0.01441447,0.99775533,0.00504688,-0.01615336,0.06479127
1757977759630,-0.05759103,-0.35304755,0.18055100,0.04924535,-0.00625327,0.00170088,0.99775275,0.00531773,-0.01618776,0.06480062
1757977759641,-0.00197040,-0.14827271,0.02758562,0.03763535,-0.00320921,0.00393272,0.99774994,0.00552472,-0.01620541,0.06482225
1757977759653,0.08096152,-0.08219070,0.04490578,-0.00026710,0.00466215,0.01853433,0.99774345,0.00552318,-0.01617860,0.06492882
1757977759664,-0.03242595,0.23567715,-0.00753893,0.00209380,-0.01664982,0.02076737,0.99773446,0.00553470,-0.01627018,0.06504305
1757977759675,0.00886681,0.14925791,0.05123044,0.04224129,-0.00320798,-0.01296334,0.99773750,0.00576703,-0.01628782,0.06497175
1757977759686,-0.04219798,0.11913800,-0.15517857,0.07657424,-0.00743077,-0.00003440,0.99773423,0.00619967,-0.01632980,0.06497155
1757977759697,-0.00570197,0.10874120,-0.01843470,0.06545293,0.00677625,-0.00052106,0.99773270,0.00656621,-0.01629186,0.06496863
1757977759708,-0.00095033,-0.05131777,0.02090724,0.04259974,0.00749702,0.00872967,0.99772860,0.00680477,-0.01624987,0.06501752
1757977759720,0.03151541,-0.16646873,-0.04072276,0.03155658,0.00734520,0.00604513,0.99772567,0.00699253,-0.01620617,0.06505349
1757977759731,-0.24042587,-0.12378222,0.17697203,0.01898567,0.00750271,-0.00858357,0.99772849,0.00709031,-0.01616753,0.06500928
1757977759742,0.05002524,-0.18534687,-0.11057204,0.01686481,0.00327285,-0.00837452,0.99773111,0.00718306,-0.01614953,0.06496322
1757977759753,0.08997546,0.01972823,0.02196122,0.01615588,0.00378613,-0.00907909,0.99773419,0.00727596,-0.01612776,0.06491102
1757977759764,0.05371486,0.01976827,0.02827098,0.02352527,0.00023170,-0.00348436,0.99773451,0.00740535,-0.01612648,0.06489186
1757977759775,-0.02207394,0.06762195,0.01725780,0.02545283,0.00934664,-0.01450166,0.99773943,0.00754406,-0.01607555,0.06481282
1757977759786,0.00367752,0.01461331,-0.02640747,0.00481738,0.00952255,-0.00756375,0.99774289,0.00757152,-0.01602127,0.06476971
1757977759797,-0.00048376,-0.07453795,-0.01033729,0.01281218,0.00686923,0.00423438,0.99774143,0.00764263,-0.01598314,0.06479321
1757977759808,-0.02743423,0.08771271,0.00603824,0.00111459,0.00350949,0.00475529,0.99774001,0.00764871,-0.01596402,0.06481912
1757977759820,0.03051705,-0.11020569,-0.04878617,0.00108186,0.01040057,0.01386432,0.99773581,0.00765482,-0.01590525,0.06489746
1757977759831,-0.34276225,-0.11423268,0.07082657,-0.00414778,0.00442192,0.00134152,0.99773589,0.00763180,-0.01588071,0.06490490
1757977759842,-0.00483765,-0.13255152,0.05418164,0.00581871,0.01407295,0.00778856,0.99773407,0.00766409,-0.01580261,0.06494813
1757977759853,0.07827801,0.03523923,0.08005025,-0.00250537,0.01428754,0.01008605,0.99773177,0.00765006,-0.01572260,0.06500461
1757977759864,0.15110234,0.15015201,0.03421185,0.00549355,0.00974830,-0.00108037,0.99773278,0.00768083,-0.01566801,0.06499856
1757977759875,-0.01278521,0.17431078,0.00855227,0.01483217,0.01182030,0.00317333,0.99773203,0.00776314,-0.01560240,0.06501617
1757977759887,0.04261061,0.09091706,-0.11170156,0.03830268,0.01946126,0.00439463,0.99773030,0.00799488,-0.01548466,0.06504276
1757977759898,-0.16627393,0.22048175,0.18323370,0.04190358,0.01985817,0.01186030,0.99772618,0.00820858,-0.01538339,0.06510325
1757977759909,0.04541683,-0.07289613,-0.14997292,0.06027969,0.02228056,0.02504802,0.99771637,0.00853711,-0.01526196,0.06523976
1757977759920,-0.02461577,-0.06180923,0.08222388,0.02719224,0.01908417,0.01700787,0.99771040,0.00869074,-0.01515413,0.06533586
1757977759931,-0.09218928,-0.17156093,0.16014751,0.03254535,0.01471040,-0.00116737,0.99771047,0.00887137,-0.01507249,0.06532938
1757977759942,0.06177140,-0.01258544,0.07388595,0.02221207,0.02384581,0.02975061,0.99770045,0.00899576,-0.01493895,0.06549598
1757977759954,0.02375823,0.04561580,-0.11784082,0.03447933,0.02989024,0.03668300,0.99768767,0.00918884,-0.01477157,0.06570140
1757977759964,-0.13102816,0.07742003,-0.10884672,0.04096011,0.03271005,0.01550701,0.99768265,0.00941208,-0.01459330,0.06578592
1757977759975,0.04043207,0.06722110,-0.04613961,0.02769085,0.04059421,0.01946702,0.99767732,0.00956576,-0.01436800,0.06589396
1757977759987,-0.00086769,-0.05839582,-0.15340834,0.03929026,0.03106778,0.02955842,0.99766654,0.00978971,-0.01419091,0.06606244
1757977759998,0.04055985,-0.14078825,0.05886652,0.03870829,0.03178107,0.02125772,0.99765909,0.01000455,-0.01401453,0.06618042
1757977760009,-0.02231347,-0.12707314,0.03694059,0.02684565,0.02179766,-0.01596576,0.99766509,0.01015220,-0.01389464,0.06609261
1757977760021,0.09151782,0.00911921,-0.06367165,0.00771438,0.01464631,0.00685666,0.99766310,0.01019887,-0.01380603,0.06613409
1757977760031,-0.11648009,-0.11081071,0.07126431,0.02144695,0.02447992,0.02837121,0.99765400,0.01030932,-0.01367996,0.06628021
1757977760042,0.01301938,0.10561099,-0.05654880,0.02625949,0.01822365,0.02183657,0.99764581,0.01045506,-0.01357882,0.06640140
1757977760054,0.04448568,0.12737835,-0.00501705,0.03579597,0.02124069,0.02400340,0.99763634,0.01065552,-0.01345987,0.06653582
1757977760064,-0.05066336,0.09417254,0.13176855,0.04942294,0.00874055,0.00989173,0.99763053,0.01092240,-0.01341267,0.06658923
1757977760076,0.10375420,-0.07437586,0.05636156,0.01939089,0.02449177,0.01313910,0.99762618,0.01103293,-0.01327307,0.06666413
1757977760087,0.01879044,-0.10022840,0.09374850,0.02976370,0.02371416,0.01486576,0.99762056,0.01119812,-0.01314145,0.06674663
1757977760098,-0.03096094,0.04402258,-0.00387012,0.03009917,0.00966543,0.00473578,0.99761762,0.01136517,-0.01308781,0.06677291
1757977760109,0.04289438,0.09470407,-0.00709860,0.03975287,0.01591949,-0.00596596,0.99761847,0.01158977,-0.01299787,0.06673921
1757977760121,0.16150996,-0.14517225,-0.21659139,0.05123601,0.01957714,-0.00432088,0.99761813,0.01187926,-0.01288725,0.06671479
1757977760132,0.19730749,-0.13100176,0.00905881,0.03377288,0.03166705,-0.00039102,0.99761828,0.01206670,-0.01271150,0.06671262
1757977760143,-0.04162613,-0.03238825,-0.01308201,0.02714854,0.02615670,0.00004073,0.99761827,0.01221873,-0.01256502,0.06671285
1757977760154,-0.24328426,0.26799282,0.14254937,0.03148703,0.02375936,0.00469923,0.99761600,0.01239505,-0.01243197,0.06673917
1757977760165,-0.14791105,0.21556035,0.05706695,0.05639787,0.03493719,0.01252766,0.99760981,0.01270806,-0.01223807,0.06680870
1757977760176,-0.05963101,0.15794299,-0.01854426,0.05209716,0.03010570,0.00542945,0.99760607,0.01299981,-0.01206948,0.06683910
1757977760187,-0.06777086,0.08210758,0.12366300,0.07232476,0.03878493,-0.01608577,0.99760909,0.01337228,-0.01186974,0.06675626
1757977760198,0.08513288,-0.10354436,-0.10042119,0.06629432,0.02634051,-0.00870811,0.99760905,0.01374353,-0.01172223,0.06670749
1757977760209,0.02185757,-0.02660922,0.01900658,0.05714245,0.02012974,-0.00057934,0.99760612,0.01406353,-0.01160950,0.06670425
1757977760220,0.02650711,-0.14122536,-0.00900241,0.04416352,0.01859227,-0.00173468,0.99760445,0.01431305,-0.01150446,0.06669445
1757977760231,-0.07582033,-0.10612094,-0.03789685,0.05765325,0.03066637,0.00478313,0.99760006,0.01462726,-0.01133733,0.06672052
1757977760243,0.01758545,0.02671384,-0.01485652,0.07231084,0.02492488,0.01021244,0.99759179,0.01503220,-0.01119775,0.06677771
1757977760254,-0.00964425,0.17904800,0.03074157,0.06710358,0.02465688,0.01187301,0.99758307,0.01541134,-0.01105843,0.06684479
1757977760265,-0.08796186,0.19382299,0.14786730,0.06889047,0.01614447,0.00925520,0.99757471,0.01579023,-0.01096964,0.06689569
1757977760276,0.14458826,-0.12534842,-0.05079941,0.06242938,0.01973750,0.02780992,0.99755987,0.01613984,-0.01085911,0.06705143
1757977760287,-0.02633062,-0.10689040,0.08538446,0.06019644,0.02175294,0.02089965,0.99754791,0.01647393,-0.01073838,0.06716742
1757977760298,-0.12964893,-0.07401599,-0.08901270,0.05351256,0.01748273,0.00814439,0.99754096,0.01677092,-0.01064135,0.06721262
1757977760309,-0.03049706,0.06612043,-0.05828589,0.04620812,0.01782732,-0.00128170,0.99753809,0.01703200,-0.01054063,0.06720538
1757977760321,0.25357831,0.19246984,0.08642691,0.04891660,0.02018513,0.00295009,0.99753349,0.01730349,-0.01042860,0.06722175
1757977760332,0.15071707,0.10001572,-0.19051103,0.05718546,0.00745328,0.01623534,0.99752219,0.01762372,-0.01038686,0.06731267
1757977760343,0.09658016,-0.10720571,0.07225371,0.08092193,0.01328357,0.01264818,0.99751018,0.01807284,-0.01031314,0.06738287
1757977760354,-0.11092310,0.11337598,-0.05070134,0.08380031,-0.01170420,0.02963822,0.99748966,0.01854212,-0.01037868,0.06754884
1757977760365,-0.15015201,-0.10596170,-0.00380132,0.07595145,-0.03158501,0.03821533,0.99746529,0.01896745,-0.01055556,0.06776285
1757977760376,0.10378480,-0.10762036,0.12852591,0.07492234,-0.04088290,0.03211149,0.99744275,0.01938327,-0.01078246,0.06794107
1757977760387,0.03386353,-0.02950964,-0.01161035,0.05259322,-0.04245364,0.04716746,0.99741659,0.01967516,-0.01101808,0.06820285
1757977760399,-0.03386353,-0.01693176,-0.07740235,0.07329403,-0.03372081,0.06953534,0.99737994,0.02008194,-0.01120523,0.06858877
1757977760410,-0.00022260,0.00633553,-0.00874988,0.06039109,-0.02335499,0.03827385,0.99735683,0.02042013,-0.01133601,0.06880310
1757977760421,0.10168522,0.14635069,-0.11784082,0.05855774,-0.03205489,0.02061605,0.99734003,0.02074806,-0.01151552,0.06891855
1757977760432,0.12734411,0.22047636,-0.04181448,0.06564576,-0.02857173,0.02923738,0.99731913,0.02111567,-0.01167552,0.06908228
1757977760443,0.02660922,0.06319689,-0.04751646,0.09755737,-0.01710156,0.02487187,0.99729663,0.02166199,-0.01177129,0.06922156
1757977760454,-0.28190522,-0.07069443,-0.00853499,0.09059506,-0.02480306,-0.00660342,0.99728649,0.02216480,-0.01190895,0.06918491
1757977760466,-0.18673316,-0.02322070,0.05805176,0.07485565,-0.01859162,-0.01433827,0.99728145,0.02258025,-0.01201213,0.06910534
1757977760477,-0.05293457,0.03552492,0.06269782,0.07449522,-0.02270119,-0.00293851,0.99727170,0.02298997,-0.01213699,0.06908918
1757977760488,0.02831884,-0.03902596,0.00286857,0.05423563,-0.00745188,0.00616562,0.99726157,0.02329911,-0.01217946,0.06912432
1757977760499,-0.16239216,-0.07736415,-0.00509226,0.04810811,0.00080135,0.00176181,0.99725467,0.02356611,-0.01217502,0.06913410
1757977760510,-0.07178838,-0.16658585,0.00741428,0.03448571,0.02017104,-0.00571520,0.99725368,0.02375923,-0.01206206,0.06910209
1757977760521,-0.25749238,0.27693368,0.05444080,0.02621857,0.01646785,0.00430092,0.99724965,0.02390475,-0.01197066,0.06912596
1757977760532,-0.11513599,0.27187574,-0.00967529,0.02249473,0.02813936,0.00764202,0.99724557,0.02402959,-0.01181449,0.06916838
1757977760544,-0.06404876,0.06572682,0.00505130,0.05021835,0.02553000,0.00224441,0.99723957,0.02431081,-0.01167152,0.06918094
1757977760555,-0.12404244,-0.26079235,-0.15409632,0.05846777,0.02965741,-0.00001789,0.99723352,0.02463531,-0.01150692,0.06918085
1757977760566,0.19896125,-0.20957326,-0.08676248,0.06265496,0.04379467,0.00941898,0.99722393,0.02498618,-0.01126167,0.06923359
1757977760577,-0.03530618,-0.15716737,-0.13111750,0.07160249,0.05059560,0.00852648,0.99721374,0.02538357,-0.01098087,0.06928091
1757977760588,-0.01257788,-0.07498352,0.04063623,0.06034264,0.05449650,0.02182771,0.99720002,0.02571847,-0.01067841,0.06940206
1757977760599,-0.08030493,0.01354541,-0.02515576,0.03088972,0.05286301,0.01393911,0.99719330,0.02588991,-0.01038502,0.06947942
1757977760610,-0.06207105,-0.15159890,-0.02414350,0.04564808,0.04926685,0.00714272,0.99718668,0.02614554,-0.01010913,0.06951942
1757977760622,-0.11879114,-0.23900778,-0.11594016,0.05449106,0.05040450,0.01029521,0.99717743,0.02645069,-0.00982686,0.06957707
1757977760633,-0.13418512,-0.00479346,0.13788700,0.04030564,0.04817060,0.00055346,0.99717369,0.02668446,-0.00954747,0.06958028
1757977760644,-0.05203871,0.14893952,-0.02687138,0.04563305,0.04416324,-0.00797152,0.99717227,0.02694001,-0.00930016,0.06953564
1757977760656,0.19386715,0.18864034,-0.07602633,0.04917667,0.02566210,0.00948095,0.99716242,0.02721540,-0.00915645,0.06958873
1757977760667,0.19732163,0.10832810,0.02653005,0.06485301,0.04338266,0.00034705,0.99715465,0.02757209,-0.00891785,0.06959064
1757977760678,0.01052274,-0.08406093,-0.08877802,0.05721270,0.02934867,0.01547830,0.99714114,0.02789248,-0.00875349,0.06967732
1757977760689,0.04892070,-0.13430517,0.02890494,0.03466763,0.03667288,0.02333107,0.99712845,0.02808489,-0.00854996,0.06980681
1757977760700,-0.10740432,-0.09164683,-0.04765344,0.02969107,0.03506834,0.01361155,0.99712008,0.02825116,-0.00835358,0.06988303
1757977760711,0.09952287,-0.05305130,0.12747794,0.00848296,0.03154572,0.03048540,0.99710843,0.02829781,-0.00818007,0.07005070
1757977760722,-0.05688152,0.27400581,0.01734783,0.01266790,0.03045161,0.01773485,0.99710082,0.02836875,-0.00800955,0.07015002
1757977760733,0.06133445,0.14818748,0.24481948,0.00550098,0.01463134,0.01193159,0.99709593,0.02839928,-0.00792834,0.07021624
1757977760745,0.05224658,0.14271058,-0.03870117,0.01989371,0.01977147,0.01123975,0.99708925,0.02850969,-0.00781861,0.07027862
1757977760756,0.01477719,0.00487579,-0.14345690,0.04690883,0.01502762,0.01157313,0.99707780,0.02877238,-0.00773446,0.07034343
1757977760767,0.07222502,-0.13779773,-0.09693357,0.03798135,0.01757396,0.00460424,0.99707057,0.02898508,-0.00763604,0.07036921
1757977760778,0.00799939,-0.07244808,-0.07285841,0.03774606,0.01169411,0.01051627,0.99706084,0.02919457,-0.00757114,0.07042758
1757977760789,0.04053882,-0.09308089,-0.03993095,0.01824143,0.01141939,0.00259795,0.99705730,0.02929672,-0.00750719,0.07044213
1757977760800,-0.00220286,-0.14893041,-0.01582602,0.01319817,0.01075571,0.00046426,0.99705541,0.02936997,-0.00744750,0.07044470
1757977760812,0.04494800,-0.12846995,0.08410841,0.00448221,0.01370369,-0.00514438,0.99705727,0.02939507,-0.00737076,0.07041589
1757977760823,-0.15952140,-0.21626440,0.07380867,0.00696808,0.00512955,-0.02257916,0.99706518,0.02943374,-0.00734229,0.07029058
1757977760834,-0.10352564,-0.01451294,0.00193506,0.00156563,0.00360715,-0.02406604,0.99707448,0.02944243,-0.00732227,0.07015701
1757977760845,0.00601019,0.16171863,-0.05986218,0.02693779,-0.00024479,-0.00079440,0.99707032,0.02959329,-0.00732364,0.07015257
1757977760856,0.10981470,0.21890809,-0.14496525,0.06630363,0.00285817,-0.01140213,0.99706395,0.02995795,-0.00730792,0.07008985
1757977760867,0.19375215,0.12590635,-0.01460090,0.03057623,0.01329165,-0.02062080,0.99706742,0.03012765,-0.00723415,0.06997541
1757977760878,0.05312175,-0.04115337,-0.09140709,0.01311682,0.00474599,0.01264322,0.99706035,0.03020176,-0.00720733,0.07004684
1757977760890,0.00881051,-0.17966934,-0.05014028,0.03643754,0.00441132,0.00203880,0.99705359,0.03040399,-0.00718285,0.07005816
1757977760901,0.04833836,-0.15440708,0.12010106,0.00287783,0.00926258,-0.03835900,0.99706854,0.03042011,-0.00713098,0.06984335
1757977760912,0.00095033,-0.05321843,0.03421185,-0.02777379,-0.01116122,-0.05045659,0.99709258,0.03026457,-0.00719348,0.06956079
1757977760923,0.11250641,-0.00438062,0.26220414,-0.00258878,-0.01075177,-0.02271837,0.99710129,0.03025034,-0.00725262,0.06943584
1757977760934,0.12138295,0.09553400,0.07319262,-0.00126741,-0.01367319,-0.01394546,0.99710638,0.03024324,-0.00732919,0.06935774
1757977760945,-0.05343008,-0.04800500,0.01758830,0.00967379,-0.01418709,-0.01756488,0.99711094,0.03029693,-0.00740793,0.06926026
1757977760956,-0.05823549,0.01479003,-0.14667603,-0.01274982,-0.00227376,-0.02535063,0.99712287,0.03022553,-0.00742066,0.06911830
1757977760968,-0.03509022,-0.08071527,-0.01454749,-0.01961085,-0.00782637,-0.01370054,0.99713110,0.03011669,-0.00746410,0.06904226
1757977760979,0.02337296,-0.05495214,0.06383472,-0.01638743,-0.01669467,-0.02335715,0.99714222,0.03002492,-0.00755759,0.06891146
1757977760990,0.08172831,0.02518372,0.07222502,0.00237974,-0.01145524,-0.01437856,0.99714689,0.03003825,-0.00762174,0.06883094
1757977761001,0.03525611,0.11880465,0.05538236,0.02398807,-0.01014225,-0.01826766,0.99714941,0.03017018,-0.00767752,0.06873047
1757977761012,-0.04508016,0.23636414,-0.03538680,0.02299855,-0.01589773,-0.02805232,0.99715563,0.03029897,-0.00776655,0.06857337
1757977761023,-0.02293563,0.02502186,0.06606843,0.05102262,-0.00641562,-0.01812250,0.99715362,0.03058215,-0.00780215,0.06847279
1757977761034,-0.04450635,0.06917835,0.12771387,0.03291713,-0.00528244,-0.01583626,0.99715380,0.03076484,-0.00783147,0.06838490
1757977761045,-0.00823619,-0.08813233,-0.07421129,0.03345420,-0.00618542,-0.02354157,0.99715676,0.03095218,-0.00786611,0.06825307
1757977761057,0.03056356,0.01007267,-0.11088577,0.01541689,-0.00964403,-0.02451136,0.99716298,0.03103774,-0.00791963,0.06811703
1757977761068,0.10062305,-0.03870117,-0.05031153,0.01731979,-0.00078933,-0.02017725,0.99716759,0.03113387,-0.00792401,0.06800505
1757977761079,-0.01122416,-0.02294488,0.03811590,0.01387760,-0.00266896,-0.02141062,0.99717321,0.03121158,-0.00793896,0.06788515
1757977761090,-0.07962248,0.04008336,-0.03265412,0.02180966,-0.00686928,-0.02226194,0.99717752,0.03133263,-0.00797708,0.06776159
1757977761101,-0.14222681,0.15141834,-0.09094776,0.03725103,-0.01215321,-0.03466167,0.99718351,0.03153937,-0.00804453,0.06756922
1757977761112,0.03614903,0.03321371,-0.09354339,0.03392028,0.00556494,-0.00368637,0.99717909,0.03173102,-0.00801309,0.06754839
1757977761123,0.25412948,-0.01519214,0.00653894,0.02292088,0.00824030,0.00690775,0.99717286,0.03185709,-0.00796777,0.06758639
1757977761135,0.17867628,-0.21177898,0.10616436,0.00816778,0.02836330,0.03316175,0.99716017,0.03190242,-0.00781035,0.06777043
1757977761146,-0.04655757,-0.08734895,0.04631784,-0.00308417,0.02516288,0.01864216,0.99715471,0.03188515,-0.00766944,0.06787483
1757977761157,-0.29080072,-0.01092879,0.02660922,0.00789989,0.02440340,0.01431229,0.99714888,0.03192938,-0.00753278,0.06795498
1757977761168,-0.09112053,0.12044876,0.01929875,0.02208215,0.02400692,0.00448562,0.99714425,0.03205194,-0.00739954,0.06797987
1757977761179,0.08270432,0.06261471,-0.00202052,0.03230176,0.02746733,-0.02240861,0.99714810,0.03223283,-0.00724573,0.06785439
1757977761190,-0.03120282,-0.01286728,-0.06955845,0.02768901,0.01189549,-0.02202078,0.99715190,0.03238650,-0.00717971,0.06773217
1757977761202,0.06228509,0.05694270,0.00811632,0.01097610,0.01720276,-0.02817821,0.99716130,0.03244797,-0.00708337,0.06757437
1757977761213,0.04745213,-0.04923169,-0.01205956,0.00965068,0.01988034,-0.02041764,0.99716801,0.03250153,-0.00697304,0.06746105
1757977761224,0.04230249,-0.15220249,0.24763352,0.02160228,0.01945276,-0.02674444,0.99717493,0.03262250,-0.00686410,0.06731129
1757977761235,0.02891358,-0.05734771,0.21648469,0.00994685,0.00712437,-0.01716320,0.99717982,0.03267771,-0.00682456,0.06721603
1757977761246,0.03596696,0.08106907,0.06104367,0.03196487,-0.00298567,-0.02656154,0.99718384,0.03285671,-0.00684128,0.06706729
1757977761257,0.13012406,0.19152762,-0.20478795,0.04660050,0.00646265,-0.01820599,0.99718232,0.03311535,-0.00680541,0.06696624
1757977761268,0.00096753,0.16786634,-0.03676611,0.05059578,0.00279357,-0.02713697,0.99718317,0.03339615,-0.00678991,0.06681563
1757977761279,0.10449317,0.10352564,-0.01354541,0.03410678,0.00393205,-0.01643309,0.99718306,0.03358544,-0.00676809,0.06672443
1757977761291,0.04446718,-0.06164595,-0.11569708,0.04953483,-0.00237502,-0.01820381,0.99718038,0.03386532,-0.00678150,0.06662158
1757977761302,0.02888469,-0.15561812,0.01832648,0.04612768,-0.01615011,-0.02807828,0.99718143,0.03411902,-0.00687033,0.06646715
1757977761313,0.11090525,-0.14633441,0.07833469,0.03037198,-0.01247666,-0.04303657,0.99719106,0.03428758,-0.00693958,0.06622829
1757977761324,0.12885950,-0.01461880,0.28722201,0.02674339,-0.02022443,-0.03557164,0.99719832,0.03443735,-0.00705283,0.06602909
1757977761335,0.10548654,0.05511909,0.03041053,0.02563851,-0.02463479,-0.01001197,0.99719608,0.03458092,-0.00719079,0.06597303
1757977761346,-0.03908127,0.05250142,-0.04184564,0.03693145,-0.02664879,-0.04820305,0.99720553,0.03478589,-0.00733869,0.06570550
1757977761357,-0.10666803,0.05392904,-0.38617610,0.01140902,-0.01861055,-0.07332775,0.99722950,0.03484978,-0.00744291,0.06529486
1757977761369,-0.05491593,-0.03409677,-0.15603138,0.00535226,-0.04177171,-0.04293841,0.99724228,0.03487949,-0.00767474,0.06505655
1757977761380,0.07248186,-0.05601377,0.13183035,-0.01292949,-0.03259480,-0.03618192,0.99725659,0.03480708,-0.00785727,0.06485394
1757977761391,-0.06055697,-0.12973100,-0.02852484,0.00123471,-0.03482584,-0.04268114,0.99727018,0.03481393,-0.00805055,0.06461706
1757977761402,-0.00555643,0.06109932,0.13470702,-0.01336613,-0.01643378,-0.03679449,0.99728537,0.03473908,-0.00814258,0.06441101
1757977761413,-0.08534127,0.03897329,-0.08367401,0.00111890,-0.02363109,-0.02243905,0.99729211,0.03474529,-0.00827374,0.06428647
1757977761424,-0.19350587,-0.04160376,-0.00774023,0.00475359,-0.02444746,-0.01695390,0.99729612,0.03477168,-0.00840942,0.06419238
1757977761436,-0.15794299,-0.10620570,-0.08426252,0.01697236,-0.01959628,-0.02503057,0.99730088,0.03486672,-0.00851916,0.06405220
1757977761447,-0.07671125,0.00073429,-0.03688706,-0.00316696,-0.00554964,-0.01430133,0.99730633,0.03484915,-0.00854996,0.06397283
1757977761458,-0.03289600,-0.00774023,-0.04450635,0.00000650,0.00541414,-0.01529489,0.99731203,0.03484918,-0.00851991,0.06388795
1757977761469,-0.09185285,-0.00409599,-0.01702318,0.00132999,0.02343172,-0.00664073,0.99731529,0.03485670,-0.00838752,0.06385043
1757977761480,-0.21431168,0.01178753,-0.04446481,0.02287493,0.04872131,-0.01777385,0.99731935,0.03498251,-0.00811955,0.06375267
1757977761491,-0.08402553,0.13810162,0.00721249,0.01351413,0.04125077,-0.00220212,0.99731934,0.03505751,-0.00789061,0.06374045
1757977761502,-0.09129153,0.01230719,-0.09371444,0.03108042,0.06001040,-0.00695265,0.99731830,0.03523156,-0.00755455,0.06370151
1757977761513,-0.20104741,-0.08304771,-0.16473915,0.03756065,0.06272846,0.00053219,0.99731330,0.03544002,-0.00720641,0.06370447
1757977761524,0.06192188,0.07836988,0.08707764,0.01864874,0.08749543,-0.00594263,0.99731511,0.03554352,-0.00672081,0.06367148
1757977761536,0.08792507,-0.00069388,0.01118618,0.01167470,0.08510667,-0.00414398,0.99731738,0.03560949,-0.00623996,0.06364807
1757977761548,0.06266164,-0.09052765,-0.08858941,0.02523518,0.07749927,-0.01411175,0.99732025,0.03576594,-0.00575946,0.06356058
1757977761558,-0.86853091,-0.33678675,0.02590626,0.02686820,0.10942800,-0.00274976,0.99731936,0.03589357,-0.00523968,0.06354752
1757977761569,0.33373157,0.08233225,-0.16916535,0.01661490,0.08881345,0.00354334,0.99731721,0.03598744,-0.00473788,0.06356754
1757977761580,-0.06552657,-0.07446123,-0.05651056,0.01942043,0.08797459,0.01016487,0.99731192,0.03609523,-0.00424963,0.06362395
1757977761591,-0.08223999,0.05998682,-0.07353223,0.00489500,0.07764716,0.01095933,0.99730880,0.03612239,-0.00381868,0.06368478
1757977761602,0.15085405,-0.24531335,-0.06232789,0.00144344,0.08820025,0.02122731,0.99730268,0.03613048,-0.00332476,0.06380365
1757977761614,0.03645512,0.04724480,0.14029175,-0.01037215,0.06561744,0.00971575,0.99730246,0.03607291,-0.00296059,0.06385757
1757977761625,0.12637666,-0.04587265,0.20878132,0.00257758,0.05092207,-0.02891656,0.99731310,0.03608734,-0.00267542,0.06369564
1757977761636,-0.09883423,-0.10833752,-0.02850987,0.00968912,0.02267238,-0.03994701,0.99732573,0.03614160,-0.00254846,0.06347194
1757977761647,0.37857177,0.14689169,0.03483106,0.01551640,-0.00120152,-0.03476063,0.99733484,0.03622772,-0.00255512,0.06327901
1757977761658,0.18615321,0.29185842,-0.10329976,0.01066515,-0.00757451,-0.03024080,0.99734337,0.03628798,-0.00259792,0.06310815
1757977761669,0.05140749,-0.02475762,-0.14446155,0.01670476,-0.00056253,-0.02106717,0.99734737,0.03638069,-0.00260104,0.06299123
1757977761681,0.09390573,-0.01804455,0.00684914,-0.00375895,-0.00058589,-0.01742568,0.99735466,0.03635851,-0.00260450,0.06288842
1757977761693,0.05221387,-0.20081189,0.07402257,-0.00002445,0.00267591,-0.01073782,0.99735874,0.03635837,-0.00258858,0.06282453
1757977761702,-0.11901227,-0.35200303,0.36636065,-0.01844842,0.00129091,-0.01259697,0.99736571,0.03627074,-0.00258245,0.06276469
1757977761714,0.22276599,0.09744039,-0.00543853,-0.01828567,-0.00556035,-0.01994623,0.99737627,0.03616925,-0.00261331,0.06265399
1757977761725,0.20277969,0.42133400,0.12765232,-0.00187079,-0.02331237,-0.02853486,0.99738633,0.03615877,-0.00274386,0.06249420
1757977761736,0.07046055,0.31452181,-0.01762139,0.01891578,-0.02437592,-0.02189964,0.99738981,0.03626565,-0.00288158,0.06237046
1757977761747,-0.02229592,0.15786505,-0.11555519,0.04668316,-0.01131122,-0.02107532,0.99738752,0.03652007,-0.00294323,0.06225560
1757977761759,-0.13786359,-0.33727002,-0.23788519,0.04586538,0.00121545,-0.02315837,0.99738615,0.03678380,-0.00293624,0.06212244
1757977761770,-0.07290965,-0.18131920,0.01105507,0.00814720,0.00625039,-0.01032718,0.99738815,0.03682901,-0.00290155,0.06206513
1757977761781,-0.03114034,-0.06253830,-0.01914521,0.00561864,0.01518825,0.00946489,0.99738405,0.03685964,-0.00281877,0.06211671
1757977761792,0.06376336,-0.12939914,-0.05358916,0.02362050,0.01873493,0.00920703,0.99737609,0.03699427,-0.00271198,0.06216919
1757977761803,-0.02660103,0.01009004,0.01834554,-0.00163986,0.00659839,-0.02257126,0.99738455,0.03698493,-0.00267437,0.06204053
1757977761814,-0.05793282,0.04316721,0.00580942,-0.02565745,0.01394770,-0.02550305,0.99739843,0.03684638,-0.00259905,0.06190282
1757977761826,0.02834464,-0.08198679,-0.01960526,-0.02033313,0.00693104,-0.01054275,0.99740647,0.03673149,-0.00255989,0.06184325
1757977761837,-0.01254771,-0.08079059,0.02928359,-0.03576028,0.01511267,0.00056897,0.99741384,0.03653124,-0.00247526,0.06184644
1757977761848,-0.12082783,-0.16161690,0.03564316,-0.03810440,0.02189663,0.00582030,0.99741980,0.03632166,-0.00235483,0.06187845
1757977761859,-0.02305103,-0.08141698,0.03897287,-0.04563529,0.02844668,0.02233151,0.99742168,0.03606382,-0.00219411,0.06200462
1757977761870,-0.07488839,-0.04208402,0.10316147,-0.05174588,0.03078195,0.03496079,0.99742034,0.03578439,-0.00202788,0.06219341
1757977761882,0.10182460,0.10182460,-0.04856675,-0.04099812,0.02031277,0.01964647,0.99742202,0.03553841,-0.00190601,0.06231129
1757977761892,-0.18213666,0.00941700,0.05192497,-0.03167036,0.01830483,0.01713152,0.99742247,0.03537847,-0.00181357,0.06239780
1757977761906,0.23272905,0.12854916,-0.17441907,-0.02097139,0.02210304,0.02514579,0.99741671,0.03522643,-0.00165332,0.06258011
1757977761914,-1.40160677,-0.48434325,0.72729593,-0.06635969,0.05572206,0.06547225,0.99741062,0.03498753,-0.00145272,0.06281581
1757977761925,0.37976752,0.18186532,-0.20087148,-0.03797940,0.05497580,0.04566986,0.99740246,0.03477865,-0.00115035,0.06306699
1757977761936,-0.16444150,0.17580225,0.10626408,-0.01697709,0.05700760,0.03155913,0.99739490,0.03468357,-0.00083111,0.06324373
1757977761947,0.06557271,0.14207421,0.03041053,0.01784582,0.04990160,0.04121844,0.99737695,0.03478351,-0.00055166,0.06347455
1757977761958,0.19690278,0.15918434,0.04072758,0.03487208,0.04225336,0.03427793,0.99735782,0.03498054,-0.00031293,0.06366822
1757977761970,0.21005631,0.14003754,-0.00373433,0.03923455,0.04504898,0.02987159,0.99733928,0.03520221,-0.00005841,0.06383699
1757977761981,-0.01225343,0.04746873,0.00893257,0.03559712,0.03803488,0.01669418,0.99732658,0.03539622,0.00014888,0.06392798
1757977761992,0.09798872,-0.11952790,-0.00920643,0.00930767,0.03110683,0.01968593,0.99731745,0.03544927,0.00032619,0.06404019
1757977762003,0.10790404,-0.18889042,0.15532046,-0.01233941,0.03973554,0.01844941,0.99731317,0.03538017,0.00054871,0.06414350
1757977762014,-0.00353428,-0.12542112,0.04651247,-0.02352100,0.02270778,0.01802338,0.99731124,0.03524728,0.00067701,0.06424534
1757977762025,0.13497462,-0.08919679,0.04183494,-0.02450348,0.02213427,0.03104982,0.99730483,0.03511128,0.00079986,0.06441766
1757977762039,0.12699622,0.11184842,-0.17100964,-0.00812892,0.01395818,0.01614134,0.99729979,0.03505804,0.00089128,0.06452339
1757977762048,-0.13094455,0.09743869,0.52892501,0.01224554,0.01710954,0.01700871,0.99729290,0.03511253,0.00096742,0.06459908
1757977762059,0.19443438,0.14300130,-0.31815449,-0.00146544,-0.00359427,0.01368397,0.99728808,0.03510403,0.00094657,0.06467844
1757977762070,0.03936461,-0.02387307,0.14837629,-0.01959178,0.00583197,0.01513177,0.99728645,0.03499726,0.00097836,0.06476091
1757977762081,0.06731000,-0.19206895,0.03217720,-0.01969938,-0.01226501,0.01311700,0.99728562,0.03488891,0.00091090,0.06483306
1757977762092,0.08971738,-0.07052800,0.09811115,-0.03273063,-0.02695264,0.00193949,0.99729149,0.03470398,0.00075862,0.06484401
1757977762113,0.06439571,0.08686069,-0.29587548,-0.00298261,-0.01375778,0.00241739,0.99729103,0.03467296,0.00061554,0.06486915
1757977762127,0.02442538,0.38460736,1.12398887,0.06209466,-0.03452502,0.00930792,0.99727212,0.03509831,0.00037904,0.06493291
1757977762134,0.51224555,0.60332466,-0.14378641,0.09366558,-0.04012400,0.02135947,0.99725547,0.03543082,0.00023660,0.06500874
1757977762145,-0.10342526,-0.23447699,-0.83444254,0.05357693,-0.03098244,-0.00234173,0.99724564,0.03573085,0.00006310,0.06499563
1757977762157,-0.00081286,-0.17623852,-0.08011135,0.02678459,-0.02010879,0.00976753,0.99723645,0.03588487,-0.00005253,0.06505179
1757977762168,-0.12953269,-0.16965243,0.22565121,0.01800735,-0.02306911,-0.00804396,0.99723573,0.03598661,-0.00018287,0.06500634
1757977762179,0.02894109,-0.15824242,0.06161652,-0.00670191,-0.02324713,-0.01320595,0.99724193,0.03594874,-0.00031421,0.06493173
1757977762191,0.05075057,0.06922599,0.04808803,-0.03263756,-0.02861415,0.00045993,0.99724838,0.03576271,-0.00047731,0.06493435
1757977762202,0.04219473,0.18528991,-0.10090045,0.01841324,-0.02062243,0.02279053,0.99723608,0.03586766,-0.00059486,0.06506425
1757977762213,-0.04127745,0.06099891,-0.11924598,0.05660604,-0.03061927,-0.00236732,0.99722518,0.03619032,-0.00076939,0.06505076
1757977762225,0.01647237,-0.15338646,-0.03244457,0.02224657,-0.02516700,-0.01537226,0.99722615,0.03631490,-0.00091033,0.06496468
1757977762236,0.07523436,-0.04792730,-0.11680142,0.01761591,-0.01881877,0.00474173,0.99722048,0.03641795,-0.00102042,0.06499242
1757977762247,0.07822441,-0.09276865,0.00031447,0.02885522,-0.02843087,0.01738347,0.99720848,0.03657377,-0.00117394,0.06508629
1757977762258,0.06915248,0.07679645,-0.06135562,0.01607083,-0.02576724,-0.02326185,0.99721358,0.03666537,-0.00132082,0.06495369
1757977762270,-0.05196651,0.05281946,0.01130482,-0.01384140,-0.03833088,-0.04775235,0.99723332,0.03658855,-0.00153355,0.06468867
1757977762281,0.12122928,-0.01473841,0.08255491,0.00677644,-0.03779145,-0.01481954,0.99723703,0.03662718,-0.00174896,0.06460420
1757977762293,0.00247125,0.13797026,-0.02620456,0.02023253,-0.04316582,-0.00969912,0.99723588,0.03674453,-0.00199933,0.06454794
1757977762304,0.04017241,0.14565683,0.03271546,0.04063756,-0.04940548,-0.00790428,0.99722985,0.03696803,-0.00227106,0.06450447
1757977762314,0.01301525,0.12463878,0.06300328,0.04145727,-0.03665407,0.00118097,0.99722073,0.03718983,-0.00246716,0.06451079
1757977762326,-0.09681349,0.14552562,-0.21697530,0.03626292,-0.03853333,0.00981577,0.99720892,0.03739472,-0.00268487,0.06456625
1757977762337,-0.02119318,0.05090568,-0.05954275,0.04233457,-0.03670347,0.00663211,0.99719702,0.03763179,-0.00289041,0.06460339
1757977762348,0.05079529,-0.02027492,-0.00504497,0.03575744,-0.05070551,-0.00678851,0.99719110,0.03783024,-0.00317182,0.06456571
1757977762360,0.07542285,-0.29525852,0.02153342,0.02202176,-0.04305666,-0.00776248,0.99718833,0.03795797,-0.00342155,0.06452069
1757977762371,0.02249447,-0.14109002,-0.02300831,0.01476712,-0.05081918,-0.00242504,0.99718480,0.03804657,-0.00372647,0.06450614
1757977762383,0.12071362,0.02281726,0.04430447,0.02114327,-0.03942141,-0.00159868,0.99717992,0.03816709,-0.00395117,0.06449702
1757977762393,0.18940103,0.11690585,0.07270635,0.03337609,-0.05311579,0.00823498,0.99717007,0.03832896,-0.00420878,0.06453696
1757977762403,-0.05340278,0.05381068,-0.08675403,0.02030288,-0.05015143,-0.00593311,0.99716678,0.03843758,-0.00447709,0.06450522
1757977762414,0.00054324,-0.08486998,-0.17030162,0.04592755,-0.05387584,-0.00764678,0.99715835,0.03869019,-0.00477341,0.06446316
1757977762426,-0.07169503,-0.18966725,-0.25185878,0.03636575,-0.05191897,-0.01272533,0.99715343,0.03890111,-0.00507454,0.06438936
1757977762437,0.04518188,-0.18161344,-0.10453847,0.02536733,-0.04342653,-0.01689198,0.99715269,0.03904824,-0.00532641,0.06429138
1757977762448,0.15844455,-0.10875248,0.02310729,0.02039265,-0.05470603,-0.00937753,0.99715011,0.03915428,-0.00561088,0.06424262
1757977762460,-0.01532824,0.15352118,0.09279268,0.00814695,-0.06352052,-0.00706657,0.99714873,0.03920235,-0.00598565,0.06420093
1757977762470,0.22866352,0.13440006,0.14260001,0.01905312,-0.06155175,-0.01726730,0.99714863,0.03930333,-0.00631188,0.06410941
1757977762483,-0.20727537,0.04899732,-0.16311589,0.02480756,-0.05542774,-0.00545269,0.99714219,0.03946458,-0.00667216,0.06407397
1757977762492,0.52540391,0.40659085,0.25449429,0.06220659,-0.05868892,0.00529858,0.99712774,0.03974451,-0.00693626,0.06409781
1757977762503,-0.33077790,-0.00537464,-0.22026518,0.04482874,-0.04611780,-0.00110265,0.99711627,0.03999555,-0.00719452,0.06409164
1757977762515,-0.00817719,-0.03187104,-0.06196661,0.04525212,-0.04444384,0.00511633,0.99710228,0.04025122,-0.00744563,0.06412054
1757977762526,0.12871098,0.14691446,0.12127535,0.04027765,-0.03593130,-0.00151980,0.99709199,0.04048080,-0.00765044,0.06411188
1757977762537,0.07553838,0.10712053,0.00088445,0.05033056,-0.03312942,-0.00430119,0.99708052,0.04076517,-0.00783762,0.06408758
1757977762548,0.05431217,0.11424549,-0.01964464,0.04453478,-0.03718536,0.00436736,0.99706754,0.04100566,-0.00803842,0.06411116
1757977762560,-0.14806809,-0.16053748,-0.13993381,0.05694608,-0.03254109,-0.01047023,0.99705656,0.04132741,-0.00822227,0.06405201
1757977762571,-0.00925575,-0.04930547,-0.07265888,0.04683133,-0.02484347,-0.01654050,0.99705050,0.04158732,-0.00836016,0.06396021
1757977762582,0.01745695,-0.03735821,-0.02164353,0.05927158,-0.03178861,-0.00606493,0.99703727,0.04191924,-0.00853817,0.06392624
1757977762593,-0.02375823,0.02043208,-0.11784082,0.05596226,-0.03253917,-0.01036500,0.99702618,0.04223263,-0.00872039,0.06386820
1757977762606,-0.12139081,-0.09512367,-0.08982138,0.06084233,-0.02341286,-0.00662105,0.99701053,0.04263419,-0.00887492,0.06382450
1757977762615,0.54687167,0.41410907,-0.03915942,0.09110472,-0.02690078,0.00598203,0.99699079,0.04303049,-0.00899193,0.06385052
1757977762626,-0.26016936,-0.46505340,-0.08288505,0.07160493,-0.02306388,0.01059072,0.99696823,0.04343506,-0.00912225,0.06391036
1757977762638,0.03783564,-0.18640200,-0.01045533,0.04777511,-0.02341572,0.00186903,0.99695441,0.04370738,-0.00925571,0.06392101
1757977762649,0.03184830,0.00226844,0.02361803,0.02516073,-0.02828309,-0.00639896,0.99694899,0.04384954,-0.00941551,0.06388486
1757977762660,0.10255557,0.13036905,-0.06754109,0.02756473,-0.02825519,0.01209694,0.99693691,0.04399701,-0.00956668,0.06394958
1757977762671,-0.09905649,-0.00670912,-0.03944657,0.05367122,-0.01625361,0.00423909,0.99692035,0.04431367,-0.00966258,0.06397459
1757977762682,0.09986889,0.02457897,-0.12725827,0.05521511,-0.02349665,-0.01461044,0.99691096,0.04460907,-0.00978828,0.06389642
1757977762693,-0.02226222,0.11455276,-0.10597611,0.04721125,-0.01898610,-0.00754272,0.99690085,0.04487109,-0.00989366,0.06385456
1757977762706,-0.09365917,-0.02030858,-0.07859753,0.05804183,-0.02042295,0.02112534,0.99687429,0.04523966,-0.01002334,0.06398871
1757977762716,0.49600550,0.15590527,-0.37263336,0.09780596,-0.00789889,-0.00083321,0.99685297,0.04570424,-0.01006086,0.06398475
1757977762727,-0.18810144,-0.20386823,0.08972402,0.03247778,-0.01655322,-0.02797219,0.99685375,0.04589423,-0.01015770,0.06382111
1757977762738,0.17283580,-0.07308232,-0.18204040,0.02557664,-0.01344082,-0.01210845,0.99685091,0.04602851,-0.01022826,0.06375754
1757977762749,0.02337353,-0.15491412,0.00254185,0.00074442,-0.01343703,0.00466590,0.99684834,0.04603257,-0.01030149,0.06378297
1757977762760,-0.13309134,-0.11411132,0.01908279,-0.01430615,-0.01419162,-0.00613110,0.99685345,0.04595174,-0.01038168,0.06374833
1757977762787,-0.31743757,-0.04195585,0.18485024,-0.00578876,-0.00492299,-0.00441545,0.99686007,0.04587475,-0.01044715,0.06368961
1757977762789,39.80645026,-1.57499819,-27.36218174,-0.11628753,-0.11894426,-0.04958295,0.99686986,0.04571776,-0.01060773,0.06362267
1757977762806,-5.96341262,0.31433733,4.06785526,0.01444582,-0.02092451,-0.00539913,0.99686535,0.04583766,-0.01078140,0.06357786
1757977762811,6.02355005,0.79539561,-5.47223701,0.04436288,-0.09527414,-0.05838244,0.99686688,0.04594413,-0.01101006,0.06343774
1757977762830,-1.60662145,-0.28039851,1.36545973,0.00961468,-0.02924840,-0.01382395,0.99686793,0.04603787,-0.01129523,0.06330295
1757977762856,-0.06846249,-0.02553224,0.18552803,-0.01247541,-0.01193961,-0.00589427,0.99687862,0.04587382,-0.01145224,0.06322544
1757977762894,0.21755173,-0.09577779,-0.17363381,-0.03712239,-0.03145013,-0.01359274,0.99691991,0.04517221,-0.01204664,0.06296854
1757977762931,0.04233632,0.05607109,-0.18494830,-0.03815098,-0.04273447,-0.02464798,0.99697047,0.04446641,-0.01283723,0.06251255
1757977762967,0.00960843,-0.01900833,-0.00126728,-0.07001045,-0.05158238,-0.03903935,0.99705754,0.04320272,-0.01376829,0.06180789
1757977763004,-0.09980994,0.17170361,0.07635933,-0.01252711,-0.04685325,-0.01294011,0.99706979,0.04297536,-0.01461868,0.06157303
1757977763043,-0.05655134,-0.06053107,-0.01444035,-0.01301090,-0.04397326,-0.00513902,0.99707397,0.04271969,-0.01548275,0.06147205
1757977763081,-0.10054192,-0.07853727,0.04614636,-0.00908141,-0.02783861,-0.00323863,0.99707679,0.04254669,-0.01601308,0.06141035
1757977763119,-0.03190650,0.09865333,-0.02416367,0.01557744,-0.01038103,0.00092628,0.99705985,0.04284266,-0.01621032,0.06142795
1757977763157,-0.10129111,0.01441119,-0.00775705,-0.00455042,0.00274121,-0.00123523,0.99706583,0.04275643,-0.01615837,0.06140455
1757977763194,-0.06830710,0.10599832,0.01999391,0.04511366,0.00481940,0.01254571,0.99701708,0.04358653,-0.01606970,0.06163539
1757977763230,0.00721819,0.00206863,0.00492950,0.04288521,-0.01283080,-0.00367422,0.99698262,0.04437561,-0.01630578,0.06156778
1757977763269,0.03414592,-0.18225059,0.02049422,-0.00467521,-0.02108650,0.00496016,0.99697404,0.04428608,-0.01670959,0.06166277
1757977763306,-0.04510991,0.06197599,0.07898018,0.02685089,-0.02192192,0.01387364,0.99692882,0.04478551,-0.01711734,0.06192082
1757977763343,-0.05636188,0.03537559,0.00284821,0.03602569,-0.02055028,0.00457112,0.99688691,0.04545018,-0.01749649,0.06200515
1757977763381,-0.02448112,0.17784878,0.03137920,0.05439651,-0.01036183,0.02735088,0.99680421,0.04647284,-0.01769129,0.06251935
1757977763427,-0.02349241,-0.07484737,0.08232217,0.03954167,-0.01086955,0.00045842,0.99675542,0.04739811,-0.01794564,0.06253008
1757977763466,-0.01327646,-0.14518042,-0.15105989,0.02791863,0.01934852,0.02389284,0.99670689,0.04794113,-0.01756931,0.06299479
1757977763497,0.01271589,0.01417630,-0.10434319,-0.00851585,0.02827733,0.01996042,0.99670122,0.04780828,-0.01712818,0.06330618
1757977763532,-0.04127544,-0.16507251,0.10046989,-0.06281393,0.01999337,0.00434658,0.99675310,0.04673731,-0.01678730,0.06338029
1757977763563,0.07987869,0.11420068,-0.09073929,-0.01865857,-0.01543699,0.01284645,0.99674979,0.04643970,-0.01703352,0.06358519
1757977763597,-0.05123361,0.07836103,0.05524174,-0.02721476,-0.01119296,0.02418848,0.99674167,0.04597841,-0.01722324,0.06399518
1757977763622,-0.03171775,0.00046216,-0.01055044,0.05667913,-0.01059589,0.03743946,0.99667602,0.04668973,-0.01735622,0.06446505
1757977763632,-0.21854583,1.47267909,-3.86725332,0.25421777,0.01042623,0.08054932,0.99659130,0.04794811,-0.01730461,0.06486377
1757977763674,0.06506513,-0.39448375,0.96803583,-0.01832162,-0.00159469,-0.00615991,0.99661750,0.04756427,-0.01733802,0.06473472
1757977763702,-0.08680610,-0.03921507,-0.11257268,-0.00037267,0.00215966,0.02577083,0.99659478,0.04755906,-0.01730778,0.06509551
1757977763705,-11.38209232,-6.33232828,-31.66895892,-0.12454532,0.19003705,0.33960885,0.99657386,0.04735978,-0.01700372,0.06563888
1757977763734,1.27864774,0.76897760,3.53852480,-0.01089679,0.01367622,0.02675967,0.99655929,0.04720396,-0.01680815,0.06602154
1757977763746,-0.44205694,-0.07284995,-1.41329379,-0.04868967,0.03965206,0.02032564,0.99656883,0.04691669,-0.01657420,0.06614147
1757977763762,0.18741377,-0.27419003,0.73153135,-0.05839837,0.02550267,0.03026703,0.99657782,0.04645826,-0.01637401,0.06637906
1757977763774,0.09412318,-0.92881435,-0.19119310,-0.06351282,0.03457536,0.03139551,0.99658710,0.04604225,-0.01614754,0.06658470
1757977763787,0.35176352,1.03480079,0.43061889,-0.06045323,0.03620738,0.03869828,0.99659186,0.04567047,-0.01592486,0.06682270
1757977763799,-0.22499021,0.05017006,-0.16244958,-0.03545194,0.01356142,-0.00019831,0.99660287,0.04545953,-0.01584417,0.06682152
1757977763807,-0.16103525,-0.21020694,-1.08328199,-0.04505623,0.01733267,0.02073230,0.99660670,0.04527480,-0.01577311,0.06690652
1757977763826,0.25906622,0.12668266,0.78573768,-0.01512716,0.00538968,0.00299017,0.99661207,0.04513260,-0.01572245,0.06693463
1757977763868,-0.00367703,0.06773108,0.17013990,-0.01102371,0.00186814,-0.00211135,0.99662615,0.04490055,-0.01568312,0.06689018
1757977763899,0.06314415,-0.13928709,-0.59574451,-0.05641409,-0.00805654,0.02808824,0.99663401,0.04400921,-0.01581042,0.06733398
1757977763933,0.03767768,0.10960062,0.08470360,0.00824261,-0.01584045,0.01219584,0.99660977,0.04414769,-0.01607654,0.06753887
1757977763964,-0.02695479,0.05346886,0.09960863,-0.02445640,-0.02823883,0.00645628,0.99661257,0.04376494,-0.01651847,0.06763991
1757977763995,0.11302196,0.18697482,0.03735248,0.03162733,-0.03947273,-0.00213020,0.99658293,0.04425359,-0.01712833,0.06760700
1757977764018,0.15006436,-0.10087675,-0.12133766,0.00796906,-0.06030644,-0.00246878,0.99656900,0.04434284,-0.01780376,0.06757935
1757977764028,0.83196461,-1.65833705,-1.43713421,-0.11103054,-0.06672462,-0.04586413,0.99660474,0.04375993,-0.01815406,0.06733856
1757977764051,-0.52729913,0.33928095,0.89223029,-0.00888742,-0.02062948,0.02249067,0.99658767,0.04365950,-0.01838718,0.06759270
1757977764073,-0.09544138,0.34042105,0.06838887,0.04209912,-0.01159862,-0.02252441,0.99658166,0.04412470,-0.01851534,0.06734381
1757977764085,0.31345118,0.14950274,-0.61071498,0.00957261,-0.00454812,0.02538323,0.99656864,0.04418070,-0.01854195,0.06749230
1757977764107,-0.18179628,-0.20260126,0.53701599,0.00535646,0.00042954,-0.00955070,0.99657326,0.04424015,-0.01853718,0.06738629
1757977764118,0.35828648,-0.23566249,-0.58255174,-0.08899416,-0.02316352,-0.07307892,0.99662210,0.04372399,-0.01867153,0.06696243
1757977764140,-0.26934614,0.23632173,0.43692035,-0.01617349,-0.01121692,0.00107942,0.99662673,0.04354770,-0.01879379,0.06697420
1757977764175,-0.00327474,0.00865155,0.04455004,-0.00887950,-0.00533627,0.00472904,0.99662618,0.04339231,-0.01888718,0.06705695
1757977764207,0.13231629,-0.06227433,-0.17866907,-0.01330241,-0.00713307,0.00163246,0.99663153,0.04317814,-0.01900202,0.06708324
1757977764219,1.29562919,0.09974324,-0.80728396,-0.00325129,-0.03280297,-0.00135283,0.99662931,0.04315993,-0.01918572,0.06707566
1757977764263,-0.35695138,0.00842701,0.34292436,0.01520676,-0.00491698,-0.00087147,0.99661383,0.04349752,-0.01929487,0.06705632
1757977764285,0.49132874,-0.02276188,-0.30624571,0.03082603,-0.03665682,-0.05075188,0.99662875,0.04384277,-0.01970543,0.06648789
1757977764319,-0.21786744,0.02992640,0.25048309,0.01161147,-0.02034892,-0.04092260,0.99665914,0.04403900,-0.02004933,0.06579630
1757977764356,-0.01860236,0.07999693,0.00517414,0.03043419,-0.01455591,-0.01359426,0.99664537,0.04459595,-0.02031570,0.06554753
1757977764390,-0.03191530,0.00648960,-0.13378304,0.03763751,-0.02904363,-0.01874955,0.99662731,0.04523391,-0.02080799,0.06522972
1757977764424,0.10768616,-0.09204053,0.21533586,0.00724557,-0.03039839,-0.01278670,0.99662497,0.04535817,-0.02132932,0.06501043
1757977764458,0.00664456,0.05819273,-0.01816576,0.02862907,-0.03288254,-0.01523788,0.99660740,0.04584629,-0.02188997,0.06475062
1757977764493,-0.00057133,-0.11607856,-0.02227942,-0.00812296,-0.01516261,-0.01330151,0.99662316,0.04570414,-0.02215531,0.06451785
1757977764526,-0.02708661,0.10589977,0.14476824,0.01150703,-0.00887049,-0.01747624,0.99662970,0.04589113,-0.02229946,0.06423386
1757977764557,-0.04416038,-0.03052172,-0.06735366,0.01784637,0.00939290,-0.01371083,0.99663389,0.04617132,-0.02215199,0.06401860
1757977764596,-0.07353692,0.01464888,-0.00242814,0.02423656,-0.01480733,-0.04558675,0.99666227,0.04664635,-0.02244222,0.06312510
1757977764631,0.11428424,0.05714986,0.12320359,0.00034541,-0.00760599,0.00473847,0.99665375,0.04665238,-0.02257494,0.06320779
1757977764651,0.30474999,-0.56976837,0.23881245,-0.04533746,0.01807378,0.03071751,0.99665950,0.04619221,-0.02239149,0.06351957
1757977764685,-0.15933678,0.18883289,-0.07938608,0.02306306,0.00262124,-0.03019990,0.99667462,0.04657851,-0.02234759,0.06301372
1757977764707,0.01221479,0.25022469,0.11824831,0.06398592,0.00134309,-0.00787079,0.99664753,0.04727596,-0.02233295,0.06292793
1757977764719,0.69885216,-0.23628446,0.58783403,-0.00313566,0.01574545,-0.02117265,0.99665882,0.04725668,-0.02223611,0.06279772
1757977764753,-0.31912367,0.06001753,-0.35146766,-0.02066414,-0.01226364,-0.04105642,0.99671431,0.04690642,-0.02244398,0.06210181
1757977764763,1.27636312,-0.06929570,1.25385266,0.00177165,-0.06341481,-0.06085769,0.99672584,0.04691545,-0.02276740,0.06179144
1757977764786,-0.53769651,-0.02982595,-0.46650595,0.01719757,-0.01302706,-0.00340644,0.99671542,0.04711495,-0.02291851,0.06175192
1757977764797,0.51489005,0.09705737,0.61191779,-0.00622723,-0.01301945,-0.00014044,0.99671543,0.04708319,-0.02298491,0.06175120
1757977764808,-0.28132278,-0.24746677,-0.20584594,-0.02117082,-0.01757586,-0.00954394,0.99672230,0.04696040,-0.02308685,0.06169585
1757977764830,-0.24399842,-0.05501605,-0.25465150,-0.00391628,-0.01445337,-0.00294472,0.99672264,0.04691712,-0.02324656,0.06166331
1757977764852,-0.01852712,0.03657279,0.00521131,-0.00027499,-0.01310202,-0.01407662,0.99672898,0.04691410,-0.02339068,0.06150847
1757977764863,1.37203196,0.61271592,1.65078382,0.06414582,-0.02727925,-0.03152820,0.99671955,0.04726369,-0.02353935,0.06133664
1757977764897,-0.50582057,-0.12211752,-0.57369055,0.01376962,-0.00298638,-0.00554345,0.99671311,0.04749433,-0.02358937,0.06124379
1757977764933,0.11965273,0.00171472,0.22115608,-0.00093525,-0.00656635,-0.00684382,0.99671867,0.04747750,-0.02370757,0.06112060
1757977764970,-0.02903008,0.05679400,0.03048968,-0.00805248,-0.00464716,0.00104210,0.99672254,0.04732812,-0.02379377,0.06113993
1757977765005,-0.04947478,0.12849443,0.05801842,0.02776513,0.00977025,0.01547853,0.99668686,0.04781263,-0.02362328,0.06141003
1757977765039,-0.02436416,-0.07559606,-0.03790115,0.04594384,0.00431453,-0.00468964,0.99665536,0.04860286,-0.02354907,0.06132937
1757977765040,52.88210334,66.65069928,196.83363518,0.74066124,-0.14440411,0.18436712,0.99661703,0.04915836,-0.02365738,0.06146764
1757977765075,-2.35819224,-3.07371075,-8.68119857,0.00320882,0.01006335,0.01804608,0.99659926,0.04921339,-0.02348479,0.06177713
1757977765097,-0.00713016,-0.07148524,0.09166642,-0.02334668,-0.00211322,0.00066964,0.99661117,0.04895074,-0.02350856,0.06178467
1757977765120,-0.05530049,0.03739531,-0.19524183,0.00741613,0.00397980,0.00656682,0.99660337,0.04903602,-0.02346279,0.06186018
1757977765153,0.00093709,0.01968871,-0.14152022,0.00405273,0.00464293,0.00792408,0.99659379,0.04910269,-0.02338642,0.06199054
1757977765174,0.18059491,0.13605834,0.39078129,0.00126208,0.02257559,0.03509053,0.99657542,0.04911613,-0.02314599,0.06236425
1757977765186,-0.21569849,-0.20884829,0.33562910,0.02025019,0.01670306,-0.01352245,0.99657679,0.04923459,-0.02304828,0.06228514
1757977765208,-0.05116097,-0.05815105,-0.37054073,-0.01247813,0.00562388,-0.01543502,0.99659558,0.04909733,-0.02298641,0.06211536
1757977765220,-0.01787993,-0.15321440,-0.12358803,-0.00528170,0.00389471,0.00150404,0.99659708,0.04906644,-0.02296363,0.06212416
1757977765242,0.00194643,-0.00403115,-0.26298073,-0.01053936,0.00326822,0.00618536,0.99659940,0.04894892,-0.02292719,0.06219312
1757977765254,0.10166179,-0.03193991,0.17380092,-0.01156335,0.01122313,0.01474922,0.99659884,0.04888128,-0.02286153,0.06227941
1757977765287,-0.04965709,0.07449510,-0.07527785,0.00491990,0.00471067,0.00327556,0.99659329,0.04896196,-0.02278428,0.06233313
1757977765298,0.16043122,0.64356500,2.22727430,0.09485588,0.02694631,0.03232492,0.99655884,0.04949790,-0.02263203,0.06251576
1757977765320,-0.11359509,-0.17944286,-0.83537773,0.00628890,0.01064597,-0.00094218,0.99655871,0.04956645,-0.02251599,0.06250549
1757977765331,-0.10461162,0.00684759,-0.14288495,0.01728641,-0.00245345,-0.00976567,0.99655695,0.04966671,-0.02253022,0.06244885
1757977765353,0.03566101,-0.09680331,-0.16342418,-0.00472163,-0.00223463,-0.00465723,0.99656200,0.04961666,-0.02255391,0.06239948
1757977765364,0.02873387,-0.07291282,0.19413332,-0.00984471,-0.00216824,0.00644437,0.99656221,0.04955956,-0.02256648,0.06243686
1757977765376,0.05492699,-0.03720861,0.00708735,0.00335859,-0.00228272,0.01668486,0.99655488,0.04957904,-0.02257972,0.06253363
1757977765398,-0.02546854,-0.00971491,-0.14743979,0.00405880,-0.00369974,-0.00210507,0.99655317,0.04962409,-0.02262079,0.06251027
1757977765420,0.01965298,0.01943442,0.10891350,0.00320317,-0.00201035,0.02116722,0.99653628,0.04965933,-0.02264290,0.06274311
1757977765431,-0.12264314,-0.43786640,-0.08911825,0.00742508,0.01587980,0.00512815,0.99653443,0.04970054,-0.02255477,0.06277157
1757977765443,0.03058542,-0.37924126,-0.55259591,0.02229099,0.01950930,0.00622260,0.99652804,0.04983428,-0.02243772,0.06280890
1757977765454,-0.02878864,0.24409521,0.01486737,0.01675697,0.00059483,-0.03364313,0.99653482,0.04992226,-0.02243459,0.06263228
1757977765488,0.03142625,0.17697390,0.07073371,-0.00091860,-0.00112914,-0.01574461,0.99655201,0.04990660,-0.02245384,0.06236383
1757977765498,0.06998944,-0.25362476,-0.01281695,-0.05489073,-0.01113791,-0.00066577,0.99656479,0.04962940,-0.02251009,0.06236047
1757977765521,-0.08113326,0.01262418,0.07692895,-0.02719419,0.00404098,0.01578259,0.99656997,0.04931802,-0.02246382,0.06254118
1757977765531,-0.12000120,0.21918276,0.39807072,-0.01928535,0.01135122,0.05323973,0.99655895,0.04921870,-0.02240536,0.06281537
1757977765568,0.06285897,0.07445532,-0.08586073,0.00377161,0.00191281,0.00440189,0.99655106,0.04928942,-0.02236950,0.06289790
1757977765601,-0.08158705,0.14454147,0.10512723,0.04624935,0.00969252,0.00733093,0.99650934,0.05004560,-0.02221102,0.06301776
1757977765632,-0.03913688,-0.12883110,0.04139108,0.02668404,0.02062635,0.00913102,0.99648667,0.05045787,-0.02189235,0.06315884
1757977765667,0.01669538,0.00740719,-0.06767287,0.06157940,0.02244920,-0.00208911,0.99644291,0.05152319,-0.02150398,0.06312269
1757977765710,-0.00249462,-0.06805654,-0.00464902,0.00434174,0.01492342,0.01106275,0.99642973,0.05161741,-0.02118014,0.06336276
1757977765721,-0.67643489,0.07812128,0.55231632,0.03715029,0.00478558,0.09184171,0.99638936,0.05181245,-0.02115501,0.06384492
1757977765753,0.04299581,-0.02998668,-0.18644919,-0.00718779,0.01465621,0.02876131,0.99637022,0.05169457,-0.02091465,0.06431661
1757977765787,0.20159934,-0.03910978,-0.03681457,-0.01161529,-0.00007601,-0.00178823,0.99638235,0.05149769,-0.02091594,0.06428630
1757977765798,-0.35364029,0.32236080,0.23351100,0.03073224,0.01848869,-0.00209741,0.99637669,0.05166057,-0.02081795,0.06427518
1757977765820,0.16250629,-0.10614325,-0.18407696,0.00352155,0.00496535,0.01602319,0.99636421,0.05170001,-0.02076234,0.06445464
1757977765832,0.12785094,-0.40022187,0.31825198,-0.03750764,0.01108998,0.00909288,0.99637316,0.05148809,-0.02069968,0.06450602
1757977765843,0.11269206,-0.09120656,-0.14739187,-0.04470251,-0.00242414,-0.00127775,0.99638671,0.05122882,-0.02071374,0.06449861
1757977765864,-0.05704597,0.19957000,-0.09050920,-0.00627521,-0.00278792,0.02060895,0.99637546,0.05116293,-0.02074301,0.06471500
