UnixTime(ms),Ax,Ay,Az,Gx,Gy,Gz,QuatW,QuatX,QuatY,QuatZ
1757969487070,0.00000000,0.00000000,0.00000000,0.00000000,0.00000000,0.00000000,0.99829999,-0.01303495,-0.02495296,0.05103505
1757969487080,-0.25096693,0.18294168,-0.22190760,0.00388415,0.03290500,-0.01791374,0.99830847,-0.01301650,-0.02479666,0.05094996
1757969487091,-0.13910396,-0.02543278,0.11560713,0.00697376,0.03347364,-0.00748966,0.99831582,-0.01297710,-0.02460753,0.05090764
1757969487102,-0.11621009,-0.02251140,0.09259143,0.00640545,0.03655960,-0.00501211,0.99832262,-0.01294187,-0.02440646,0.05088007
1757969487113,-0.10121236,0.00434509,0.06174596,0.01384604,0.03373009,0.01117502,0.99832501,-0.01286502,-0.02421925,0.05094210
1757969487125,-0.04624935,-0.01097587,-0.03493102,0.02407566,0.05722173,0.01621246,0.99832982,-0.01273020,-0.02389881,0.05103289
1757969487136,-0.15395332,0.17200958,0.05701975,0.04553426,0.07284419,0.00497964,0.99834130,-0.01247520,-0.02349088,0.05106077
1757969487147,-0.22047636,0.17438540,0.08743028,0.06578109,0.09206647,0.00265714,0.99835707,-0.01210683,-0.02297531,0.05107565
1757969487158,-0.23732112,-0.23394773,0.27263595,0.07567639,0.11245538,0.00963555,0.99837350,-0.01168683,-0.02235118,0.05112913
1757969487169,-0.17534001,-0.04183589,0.19736025,0.05956072,0.12419981,-0.00687439,0.99839465,-0.01135329,-0.02165567,0.05109063
1757969487180,-0.05321843,0.02660922,0.07222502,0.04339853,0.13073088,0.00576540,0.99841134,-0.01111026,-0.02092357,0.05112292
1757969487191,-0.02868033,0.24563583,-0.35328643,0.06252535,0.13100546,0.00285721,0.99842931,-0.01076324,-0.02019649,0.05113878
1757969487203,-0.08660891,0.06666525,-0.03589326,0.06912742,0.15142169,-0.00408939,0.99845098,-0.01038304,-0.01936367,0.05111628
1757969487214,-0.17250168,-0.09509054,-0.08827386,0.08025493,0.16166569,-0.00453524,0.99847380,-0.00993762,-0.01846643,0.05109111
1757969487225,-0.15480469,0.10594446,0.01161035,0.07223831,0.19003526,0.01709729,0.99849180,-0.00953670,-0.01741173,0.05118600
1757969487236,-0.55033491,0.12625246,0.04757071,0.08651426,0.20392172,0.01488410,0.99851146,-0.00904790,-0.01625957,0.05127010
1757969487247,0.32408747,-0.07927679,-0.03138609,0.08820953,0.22838716,0.00357682,0.99853479,-0.00855392,-0.01498061,0.05129013
1757969487258,-0.25183723,0.59443089,0.13684740,0.06221232,0.22543190,0.00244226,0.99855516,-0.00820553,-0.01371819,0.05130381
1757969487270,0.02090724,0.07365051,0.11023818,0.08378101,0.22371948,-0.00046827,0.99857546,-0.00773636,-0.01246536,0.05130118
1757969487281,-0.11568212,-0.26304625,-0.14950075,0.09775024,0.22760101,-0.00130740,0.99859453,-0.00720362,-0.01122493,0.05129406
1757969487292,-0.02291891,-0.26695377,-0.15022446,0.06660837,0.20819878,-0.02634357,0.99861694,-0.00683394,-0.01006943,0.05114785
1757969487303,0.33490519,-0.13911618,-0.02082466,0.06660738,0.21685635,-0.02256286,0.99863775,-0.00645428,-0.00883335,0.05101924
1757969487314,-0.08144326,-0.03786973,-0.00380253,0.07548242,0.20431253,0.00483751,0.99864829,-0.00603913,-0.00770963,0.05104585
1757969487325,-0.08909186,0.31343992,-0.02515576,0.09936398,0.19545098,-0.00763589,0.99866143,-0.00548766,-0.00662488,0.05100347
1757969487336,0.08909122,0.03187455,-0.03588991,0.13457037,0.19350478,0.00378209,0.99867080,-0.00473406,-0.00554125,0.05102465
1757969487347,0.03991382,-0.04419031,0.04561580,0.13248309,0.19139615,0.02908151,0.99867108,-0.00399216,-0.00446943,0.05118751
1757969487359,0.06082107,0.00475165,0.32691323,0.10824288,0.18726772,0.02719346,0.99866964,-0.00338600,-0.00342073,0.05133979
1757969487370,-0.02999332,-0.04348046,0.15129247,0.10688331,0.19121466,0.01799028,0.99866943,-0.00280349,-0.00237861,0.05143784
1757969487381,0.03449977,0.11719900,-0.11319487,0.09333962,0.17015019,0.00897361,0.99866999,-0.00227612,-0.00141726,0.05148854
1757969487392,-0.24364615,0.06502140,-0.34978326,0.13348578,0.19263845,0.01109774,0.99866917,-0.00153527,-0.00034812,0.05155013
1757969487403,-0.26972225,-0.03821008,-0.04749933,0.17262471,0.20068141,0.02132878,0.99866377,-0.00056857,0.00077569,0.05166957
1757969487414,-0.01333691,0.13644491,0.11433065,0.18038435,0.21892840,0.02611023,0.99865446,0.00045060,0.00201264,0.05181709
1757969487426,-0.14563904,0.12930133,0.12323303,0.19032476,0.22486249,0.02566482,0.99864250,0.00152593,0.00328311,0.05196210
1757969487437,-0.09822318,0.02793843,0.21558449,0.19335000,0.24725720,0.02595496,0.99862777,0.00257002,0.00461830,0.05210226
1757969487448,-0.03699683,-0.13687808,-0.02058777,0.16631603,0.23082427,0.03531545,0.99860740,0.00351803,0.00593400,0.05230355
1757969487459,-0.28064394,0.15196289,0.26223624,0.16219862,0.25388325,0.03332880,0.99858497,0.00441012,0.00733036,0.05248686
1757969487470,-0.12709090,0.29112682,-0.05123044,0.16117906,0.26864635,0.03788729,0.99855775,0.00529660,0.00880791,0.05269524
1757969487481,-0.04993548,0.04580587,-0.10546926,0.22879294,0.28574572,0.03210445,0.99852523,0.00657784,0.01040809,0.05287503
1757969487492,-0.16225121,0.02112151,-0.21817787,0.26282509,0.29520674,0.03247422,0.99848657,0.00803652,0.01204649,0.05305526
1757969487503,-0.06579199,0.10400940,0.32121974,0.24498381,0.30177938,0.00628322,0.99845124,0.00939618,0.01372136,0.05309013
1757969487515,0.08223999,-0.08707764,0.18576563,0.23184976,0.30168534,-0.00268456,0.99841468,0.01068295,0.01539572,0.05307523
1757969487526,0.17094673,-0.03628781,0.13221562,0.20598201,0.27173388,-0.00344576,0.99837772,0.01184675,0.01693101,0.05305576
1757969487537,0.08914113,0.03065270,0.03955739,0.20302484,0.26670155,0.00282268,0.99833669,0.01297354,0.01841121,0.05307143
1757969487548,-0.00193506,-0.01886682,0.00774023,0.20156008,0.25080945,0.00906234,0.99829220,0.01409219,0.01980320,0.05312173
1757969487559,-0.02221715,0.18631160,0.39639856,0.18305656,0.24515331,0.01303496,0.99824514,0.01511731,0.02117606,0.05319472
1757969487572,0.34316608,-0.38002900,-0.13266972,0.17188532,0.21183011,0.01808512,0.99819330,0.01619159,0.02250000,0.05330775
1757969487581,-0.72142316,0.38903931,0.59405963,0.18027935,0.25869676,0.02002769,0.99814499,0.01705693,0.02374174,0.05340389
1757969487593,0.81156063,-0.53044396,-0.44029285,0.12326506,0.19940383,0.02058609,0.99809877,0.01775955,0.02487834,0.05352123
1757969487604,0.13605220,-0.41450680,-0.03517043,0.10841449,0.17564457,0.01301698,0.99805995,0.01835040,0.02583560,0.05359217
1757969487615,0.17035617,0.11661391,0.00489978,0.06359425,0.14180562,0.02277111,0.99802592,0.01870335,0.02662263,0.05371855
1757969487626,0.21425214,-0.10793085,-0.01664360,0.07636291,0.14230625,0.03129806,0.99798679,0.01913098,0.02741954,0.05389382
1757969487637,0.16345662,-0.10121006,-0.16345662,0.09327639,0.12505501,0.03690900,0.99794597,0.01965333,0.02811985,0.05410051
1757969487648,0.14730102,-0.08077798,0.01900658,0.08108419,0.11819004,0.05876755,0.99790016,0.02010740,0.02878171,0.05442961
1757969487659,0.25492670,0.24173548,0.04257129,0.07836822,0.09867550,0.02668903,0.99786726,0.02054235,0.02932936,0.05457773
1757969487671,0.36766115,0.19302210,0.03870117,0.04384602,0.08143238,0.02342285,0.99784172,0.02078569,0.02978131,0.05470773
1757969487682,0.23123951,-0.18479810,-0.01935059,0.02832197,0.05260785,0.00569137,0.99782794,0.02094288,0.03007329,0.05473932
1757969487693,0.09815244,-0.55767742,-0.17659028,0.00564786,0.02808839,-0.00895917,0.99782525,0.02097479,0.03023198,0.05468870
1757969487704,-0.34079227,0.15878297,0.12286238,-0.00768680,0.01250860,-0.01125082,0.99782744,0.02093251,0.03030078,0.05462682
1757969487715,0.69253991,-0.26012466,-0.20515140,0.00504662,-0.00298826,-0.02205903,0.99783405,0.02096052,0.03028420,0.05450439
1757969487726,0.12945693,0.03980346,-0.01517284,0.01967030,-0.00738976,-0.01982222,0.99783909,0.02107166,0.03024245,0.05439239
1757969487737,0.05091657,0.04180128,-0.04143074,0.02519282,-0.01649148,-0.01732523,0.99784409,0.02121022,0.03015174,0.05429710
1757969487749,0.10914441,-0.00474855,0.00298747,0.02361969,-0.01456618,-0.02756049,0.99785219,0.02134367,0.03006944,0.05414139
1757969487760,-0.00966020,-0.00300355,0.20579361,0.00317375,-0.03769704,-0.02744149,0.99786622,0.02136113,0.02986211,0.05399046
1757969487771,0.10903176,-0.07461850,0.00819761,0.00806577,-0.03881864,-0.02458906,0.99787906,0.02140589,0.02964667,0.05385399
1757969487782,0.07546729,-0.04160376,-0.01161035,0.00244231,-0.04471413,-0.02219653,0.99789275,0.02141945,0.02939850,0.05373080
1757969487793,-0.00477733,-0.05230663,-0.18578507,0.00486874,-0.05181844,-0.02018046,0.99790675,0.02144671,0.02910832,0.05361779
1757969487804,0.05803448,-0.01059531,0.07909552,0.00140117,-0.04404884,-0.01844205,0.99791918,0.02145449,0.02886385,0.05351544
1757969487815,-0.05699065,0.03183436,-0.05318903,0.00576166,-0.04659186,-0.01922979,0.99793188,0.02148704,0.02860060,0.05340679
1757969487827,0.03935572,0.11995473,0.10831977,0.00163898,-0.03049836,-0.01297167,0.99794029,0.02149606,0.02843286,0.05333544
1757969487838,-0.07193128,0.00359397,-0.07028980,0.02098631,-0.03502311,-0.01083006,0.99794656,0.02161358,0.02823673,0.05327479
1757969487849,-0.04385845,0.04633774,0.06029781,0.01728607,-0.02909344,-0.02402632,0.99795614,0.02170952,0.02807526,0.05314145
1757969487860,-0.07395487,0.23093945,-0.11135052,0.02044563,-0.01759900,-0.02702698,0.99796468,0.02182708,0.02797407,0.05298604
1757969487871,-0.05433632,0.05351869,0.10696629,-0.00000677,-0.02574021,-0.00940950,0.99797127,0.02182704,0.02783507,0.05293523
1757969487882,-0.06788831,-0.07315597,-0.03902368,0.01281946,-0.01617636,-0.02793541,0.99798042,0.02189819,0.02774529,0.05278019
1757969487893,0.00339892,-0.27403298,0.18016871,0.00868714,-0.01596258,-0.02606119,0.99798954,0.02194684,0.02765590,0.05263425
1757969487904,-0.14097167,-0.09205469,0.04750075,0.02269185,-0.01821496,-0.01208274,0.99799306,0.02207164,0.02755572,0.05256779
1757969487916,-0.00790151,0.11968966,0.04701866,-0.00126256,-0.00714496,0.01146012,0.99799092,0.02206451,0.02751535,0.05263254
1757969487927,-0.12882590,0.03911160,-0.07194581,0.01677143,-0.00782738,-0.00043118,0.99799019,0.02215675,0.02747230,0.05263017
1757969487938,-0.03983856,0.07722434,0.03642673,0.02280252,0.00880146,0.01594727,0.99798119,0.02228559,0.02752203,0.05272027
1757969487949,-0.04577260,0.11623189,-0.06894661,0.04760816,0.02145491,0.02467351,0.99796487,0.02254743,0.02764003,0.05285598
1757969487960,-0.46013210,-0.06743881,0.13297697,0.06451702,0.00381533,0.00211994,0.99795542,0.02290873,0.02766140,0.05286785
1757969487971,0.06082107,-0.01377977,0.13304608,0.03326625,0.01324349,0.00616884,0.99794724,0.02309502,0.02773556,0.05290239
1757969487982,-0.06449620,-0.05759823,-0.03624780,0.00903542,0.00297267,0.00009827,0.99794559,0.02314516,0.02775206,0.05290294
1757969487994,0.31480724,0.01289366,-0.24537328,0.00552679,0.00620494,0.00513894,0.99794238,0.02317611,0.02778681,0.05293172
1757969488005,-0.01383912,0.04746077,-0.03106460,0.00819073,0.01337629,0.00769787,0.99793699,0.02322157,0.02786105,0.05297444
1757969488016,0.01656655,0.00998274,0.00797934,0.01169731,0.02638025,0.01714408,0.99792622,0.02328708,0.02800878,0.05307045
1757969488027,-0.11153367,-0.02652067,-0.03127193,0.00593434,0.02027638,0.02142490,0.99791596,0.02332001,0.02812131,0.05318936
1757969488038,-0.03483106,-0.05273035,-0.06579199,0.01058043,0.02131798,0.01864913,0.99790572,0.02337874,0.02823962,0.05329286
1757969488049,0.04413916,-0.00999187,0.03589671,0.00577449,0.02490467,0.01835602,0.99789542,0.02341136,0.02838034,0.05339657
1757969488060,-0.15741221,-0.19011022,-0.37278847,0.00779868,0.02733865,-0.00360945,0.99789123,0.02345386,0.02852933,0.05337690
1757969488072,0.04261081,-0.09109292,-0.08852771,0.00479246,0.00925458,0.01956872,0.99788317,0.02348094,0.02858162,0.05348746
1757969488084,0.06512279,-0.02274123,-0.04629757,-0.00007804,0.01751025,0.00589542,0.99787819,0.02348047,0.02868843,0.05352342
1757969488094,-0.15908300,0.05353638,0.51814909,0.01703792,0.01803654,0.02048766,0.99786829,0.02356395,0.02877681,0.05362381
1757969488105,0.16288176,-0.01394183,-0.16412019,0.02135596,0.02100119,0.02447443,0.99785456,0.02368461,0.02889547,0.05376209
1757969488116,0.01011722,0.02445205,-0.03316901,0.02874496,0.02146568,0.01169746,0.99784371,0.02384558,0.02901568,0.05382760
1757969488128,0.09634641,0.04181942,-0.14905959,0.03419472,0.01333499,0.01757653,0.99783065,0.02405246,0.02909635,0.05393394
1757969488138,-0.10240176,-0.04998416,0.22021207,0.02737670,0.02474178,0.02742762,0.99781631,0.02418935,0.02922006,0.05407108
1757969488151,0.20974154,-0.07764605,-0.19677774,-0.01714145,0.01274444,0.00792666,0.99781384,0.02408050,0.02930099,0.05412141
1757969488160,-0.51520902,-0.46808501,0.43682127,-0.00051058,0.01063039,0.00862097,0.99781023,0.02407810,0.02935095,0.05416193
1757969488172,0.25699327,-0.17205002,-0.14105311,-0.02329049,0.01118372,0.01083369,0.99780823,0.02394767,0.02941358,0.05422260
1757969488183,0.05558110,-0.03015754,0.00884598,-0.04404136,0.00594740,0.00054302,0.99781293,0.02370324,0.02944659,0.05422561
1757969488194,0.15286964,0.20124610,-0.12384376,-0.02753157,-0.00401928,-0.01646376,0.99782216,0.02355044,0.02942428,0.05413424
1757969488205,0.15120192,0.06166827,-0.01854387,-0.01807759,-0.00877615,-0.00367525,0.99782720,0.02344740,0.02937426,0.05411329
1757969488216,0.09143152,0.12146312,0.03065540,-0.01678479,-0.02506908,-0.00247588,0.99783422,0.02335424,0.02923512,0.05409955
1757969488227,0.09623902,0.03955004,-0.06287533,-0.02428582,-0.02608470,0.00221908,0.99784087,0.02322067,0.02909166,0.05411175
1757969488240,0.06380353,0.00060853,-0.07625204,-0.01908494,-0.03170664,0.00040674,0.99784946,0.02309853,0.02888874,0.05411436
1757969488249,0.00238206,-0.25899115,0.38661059,-0.03519236,-0.04084586,0.01488219,0.99785501,0.02293312,0.02869676,0.05418430
1757969488261,0.10187878,0.10106050,-0.20038150,-0.02951187,-0.03223239,0.00794751,0.99786150,0.02276933,0.02851787,0.05422841
1757969488272,0.01825114,0.03563598,0.04861363,-0.01901804,-0.03263133,0.00100259,0.99786889,0.02266188,0.02833350,0.05423408
1757969488284,0.03221225,0.10450245,-0.08323467,-0.01356296,-0.03568200,0.00298626,0.99787610,0.02257711,0.02811049,0.05425274
1757969488294,-0.09235583,0.01114822,0.38379447,-0.00169479,-0.05063569,-0.00431345,0.99788414,0.02256906,0.02786997,0.05423225
1757969488305,0.10823866,0.05797189,-0.19959943,-0.00458507,-0.04209189,0.00014307,0.99789136,0.02254293,0.02763005,0.05423307
1757969488316,0.04644271,-0.07146162,0.07369993,-0.01274552,-0.04924963,0.00577026,0.99789868,0.02247283,0.02735917,0.05426480
1757969488327,0.04631423,-0.08681903,-0.04868214,-0.01257952,-0.04797371,-0.00110812,0.99790801,0.02240175,0.02708812,0.05425854
1757969488339,0.04837428,-0.03657926,0.10351019,-0.03298675,-0.05009447,0.01164894,0.99791617,0.02221703,0.02680759,0.05432378
1757969488350,0.05646225,0.02434805,0.00183139,-0.00928277,-0.05304864,0.00777107,0.99792283,0.02216551,0.02651317,0.05436691
1757969488361,0.13600837,0.20014703,-0.26410589,0.01131721,-0.05395248,0.01085466,0.99792609,0.02222888,0.02621104,0.05442769
1757969488372,0.03041053,0.09978456,-0.09123160,0.00771854,-0.05006501,0.00343176,0.99793140,0.02227211,0.02593068,0.05444691
1757969488383,0.01425494,0.00047516,0.06842370,-0.00220740,-0.05293657,0.01431336,0.99793496,0.02225975,0.02563423,0.05452706
1757969488394,-0.10489919,-0.07622749,0.19274567,-0.00952953,-0.05204686,0.00488274,0.99794204,0.02220686,0.02534537,0.05455416
1757969488406,0.07735337,-0.15205695,0.03705428,-0.02701215,-0.04902232,0.01440523,0.99794791,0.02205559,0.02507085,0.05463483
1757969488417,0.01425494,-0.01615560,0.00760263,-0.04282342,-0.05120131,-0.00249962,0.99796111,0.02181578,0.02478412,0.05462083
1757969488428,0.06561263,0.04542447,0.05246143,-0.01737236,-0.04574231,-0.01188231,0.99797288,0.02172110,0.02453482,0.05455608
1757969488439,0.03897069,0.17097856,-0.10795310,0.01132260,-0.05364716,0.00819883,0.99797636,0.02178507,0.02423172,0.05460240
1757969488450,0.02417032,0.22091368,-0.08278797,0.01887237,-0.04817586,-0.00117319,0.99798092,0.02189076,0.02396193,0.05459583
1757969488461,-0.15830065,0.31582721,-0.18894743,0.02599435,-0.04104562,-0.00337914,0.99798418,0.02203373,0.02373618,0.05457724
1757969488473,0.02371302,-0.10068699,-0.04769763,0.01252761,-0.03799163,0.00442491,0.99798633,0.02210451,0.02352153,0.05460225
1757969488484,-0.00465573,-0.06355853,0.04505768,-0.01399520,-0.04356518,0.01314851,0.99798970,0.02202753,0.02328192,0.05467456
1757969488495,0.14657531,-0.32816594,0.08300693,-0.00595754,-0.04302753,-0.00321805,0.99799701,0.02199417,0.02304097,0.05465654
1757969488506,0.05416876,-0.03041053,0.05321843,0.00526016,-0.04044883,-0.01424762,0.99800593,0.02202363,0.02281445,0.05457675
1757969488517,0.03605775,0.17564545,-0.10487327,0.02902277,-0.04449130,-0.01500704,0.99801253,0.02218470,0.02256753,0.05449347
1757969488528,0.04160376,0.15915858,-0.09675293,0.05379840,-0.03714030,-0.00667503,0.99801251,0.02248328,0.02236140,0.05445642
1757969488539,-0.08120495,0.10706774,-0.07044771,0.05224735,-0.03798841,-0.00341331,0.99801165,0.02277848,0.02214676,0.05443713
1757969488551,-0.04988342,0.05983698,-0.08695777,0.04735010,-0.02075726,-0.00706815,0.99801031,0.02304128,0.02203156,0.05439791
1757969488562,0.05059861,-0.11473298,0.01116423,0.02739983,-0.01148188,-0.00075905,0.99800840,0.02319471,0.02196726,0.05439365
1757969488573,-0.10291092,-0.19712784,-0.03020810,0.01233318,-0.01174408,-0.00447196,0.99800962,0.02326440,0.02190091,0.05436839
1757969488584,0.01113943,-0.14458142,0.03109793,-0.00455280,-0.00215318,-0.01662729,0.99801549,0.02323913,0.02188896,0.05427611
1757969488596,-0.02172527,-0.13239883,-0.02255311,0.00188853,-0.01480638,-0.01589046,0.99802235,0.02325046,0.02180012,0.05418076
1757969488607,0.22623607,0.01340958,0.05966343,-0.01045377,-0.00169967,-0.01500739,0.99802804,0.02319610,0.02179128,0.05410273
1757969488617,-0.07451193,0.12949814,-0.04806958,-0.00364124,-0.01571646,-0.01615780,0.99803495,0.02317680,0.02170798,0.05401709
1757969488628,0.02402719,0.05441979,-0.09632393,0.00200408,-0.01048663,-0.02889080,0.99804470,0.02318802,0.02164926,0.05385530
1757969488641,0.00642649,-0.03823178,-0.00805492,-0.00637169,-0.00996058,-0.01389244,0.99805144,0.02314948,0.02158900,0.05377125
1757969488650,0.05102445,0.01539761,-0.05646132,-0.03457571,-0.02670356,0.00220231,0.99805759,0.02298006,0.02145815,0.05378204
1757969488662,-0.09083839,0.08781228,-0.43193305,-0.00958289,-0.00763700,-0.00907828,0.99806261,0.02292495,0.02141424,0.05372984
1757969488690,-0.10547099,-0.02476289,0.03806581,-0.00363359,-0.00447781,-0.00277002,0.99806718,0.02287445,0.02135199,0.05369134
1757969488701,1.20883422,0.62054889,-0.13064187,0.09215928,-0.05516140,-0.03551762,0.99807237,0.02338132,0.02104861,0.05349599
1757969488712,-0.74498000,-0.30972373,0.22225028,0.02158123,-0.02469293,-0.04270581,0.99808511,0.02350110,0.02091156,0.05325898
1757969488723,-0.05154184,-0.00985848,-0.06259406,0.01693016,-0.01881160,-0.02371320,0.99809234,0.02359845,0.02080339,0.05312262
1757969488735,-0.08296968,-0.08380320,-0.00389244,0.00992833,-0.01518922,-0.01583307,0.99809760,0.02365504,0.02071682,0.05303238
1757969488746,-0.06157916,-0.20613164,-0.03493941,-0.01019683,0.00385391,-0.01655721,0.99810363,0.02359590,0.02073917,0.05293634
1757969488758,0.00762289,-0.28787466,-0.29099815,-0.00890778,-0.00786632,-0.01097215,0.99810908,0.02354512,0.02069433,0.05287380
1757969488769,0.08993377,-0.09426678,-0.05822686,-0.02493162,0.00003107,-0.01481248,0.99811695,0.02340177,0.02069451,0.05278863
1757969488781,0.07622171,0.03913980,0.00370101,-0.01274654,-0.02286922,-0.01991492,0.99812735,0.02332911,0.02056415,0.05267512
1757969488792,-0.04219473,0.21143230,0.26417571,0.00810427,-0.03637469,-0.02592324,0.99813830,0.02337530,0.02035682,0.05252735
1757969488803,-0.02109737,0.19262812,0.02201464,0.00837635,-0.03602944,-0.02125834,0.99814772,0.02342305,0.02015145,0.05240618
1757969488815,-0.01566619,0.00224797,-0.00484808,0.02082445,-0.02266260,-0.00111272,0.99814786,0.02354071,0.02002341,0.05239989
1757969488826,-0.04868061,-0.07331720,0.00847466,0.01193379,-0.02496093,0.00396534,0.99814791,0.02360873,0.01988113,0.05242250
1757969488837,0.01255435,-0.13023678,0.06622294,-0.01182847,-0.02046516,0.00595579,0.99815000,0.02354249,0.01976653,0.05245585
1757969488849,0.00876327,-0.16282482,0.05968851,-0.03141331,-0.01614812,0.00363520,0.99815494,0.02336344,0.01967448,0.05247657
1757969488860,0.19587239,-0.04719511,-0.29124533,-0.02799081,-0.02870784,-0.00237173,0.99816251,0.02320529,0.01951228,0.05246317
1757969488871,0.04531052,-0.01477801,-0.00411517,-0.02803307,-0.03690063,-0.00670941,0.99817197,0.02305111,0.01930933,0.05242627
1757969488882,0.03215568,0.09624243,0.06227248,-0.03150079,-0.03034792,-0.00254081,0.99818005,0.02287470,0.01913938,0.05241204
1757969488894,-0.21351255,0.01189184,0.24982688,-0.00033357,-0.03065189,-0.00398589,0.99818462,0.02287280,0.01896466,0.05238932
1757969488905,-0.00600208,0.13567199,-0.04141434,0.00791945,-0.03533447,0.00754212,0.99818513,0.02291715,0.01876679,0.05243156
1757969488916,0.02375823,-0.02518372,-0.02280790,0.00804887,-0.03103706,0.00725680,0.99818521,0.02296222,0.01859298,0.05247219
1757969488927,-0.07317535,0.00427648,0.04941712,-0.01685269,-0.03701056,-0.01138551,0.99819456,0.02286785,0.01838572,0.05240843
1757969488938,0.07550860,-0.14835188,0.03954877,-0.01785139,-0.03140092,-0.00676815,0.99820193,0.02276966,0.01821302,0.05237121
1757969488950,-0.02116408,-0.03656599,0.03509001,-0.03628298,-0.03770514,-0.00152270,0.99821098,0.02256285,0.01799810,0.05236253
1757969488960,-0.09975518,0.02729757,-0.40549856,-0.02260959,-0.05287026,-0.01755968,0.99822392,0.02243963,0.01770996,0.05226683
1757969488972,0.05544116,0.14567330,0.17153956,-0.03995200,-0.05933569,-0.00881690,0.99823747,0.02221390,0.01737471,0.05221701
1757969488983,0.08500559,0.03603405,-0.00253441,0.01425864,-0.06279980,-0.00750197,0.99824389,0.02229304,0.01702617,0.05217538
1757969488994,0.14996705,0.15528846,0.37927150,0.01048098,-0.07258355,-0.00609041,0.99825114,0.02235121,0.01662333,0.05214158
1757969489005,0.01938658,0.11781236,0.05191061,0.02905184,-0.07526260,0.00286197,0.99825360,0.02251535,0.01619810,0.05215775
1757969489017,-0.03547618,0.08215536,0.00373433,0.03296632,-0.07528638,0.00304384,0.99825529,0.02270161,0.01577273,0.05217494
1757969489028,-0.04148305,0.05432990,0.04352320,0.02513128,-0.07051244,0.00721644,0.99825612,0.02283983,0.01538491,0.05221464
1757969489039,-0.05432427,-0.04523567,0.07768509,0.00882472,-0.07202310,0.01430602,0.99825693,0.02288925,0.01498158,0.05229475
1757969489050,-0.04250218,-0.09808329,-0.01561869,0.00696552,-0.07817881,0.01830067,0.99825713,0.02292791,0.01454769,0.05239632
1757969489061,-0.04864046,0.02555979,-0.37712471,0.00832977,-0.06327495,0.01600340,0.99825644,0.02297539,0.01418702,0.05248754
1757969489072,-0.02478558,-0.05977749,-0.01140759,-0.02951671,-0.08605299,0.03344516,0.99825709,0.02281304,0.01371373,0.05267149
1757969489083,-0.00946873,-0.15472223,-0.07602633,-0.02755702,-0.07904525,0.01269694,0.99826283,0.02265873,0.01327108,0.05274259
1757969489094,0.14264299,-0.26018976,0.34932403,-0.02469545,-0.08845320,0.01615259,0.99826756,0.02252290,0.01278459,0.05283143
1757969489106,0.06137398,0.07878229,0.00283371,-0.01431525,-0.08179132,0.01842331,0.99826966,0.02244274,0.01232656,0.05293460
1757969489117,-0.02946020,0.06937403,-0.10263555,0.00958547,-0.09442042,0.01400326,0.99827068,0.02249641,0.01179780,0.05301302
1757969489128,0.01832916,0.11339015,0.07783749,0.01506216,-0.08067546,0.01622046,0.99826915,0.02258227,0.01133795,0.05310547
1757969489139,0.01237191,0.04615261,-0.01032786,0.00025921,-0.08601273,-0.00086263,0.99827454,0.02258367,0.01087348,0.05310081
1757969489150,0.02010539,-0.13880384,-0.00831947,0.00327004,-0.08320526,0.02625914,0.99827132,0.02260165,0.01041585,0.05324524
1757969489161,-0.38579908,0.05385775,-0.10291201,-0.02085753,-0.08323108,0.01178003,0.99827519,0.02248485,0.00994976,0.05331121
1757969489172,-0.05914919,-0.13226045,-0.07952132,-0.01634030,-0.08475192,0.00273810,0.99828109,0.02239253,0.00947091,0.05332668
1757969489184,0.09099710,-0.10540971,0.10234536,-0.02364476,-0.06619512,0.01382423,0.99828340,0.02225775,0.00909360,0.05340548
1757969489195,0.22543434,-0.09121510,0.13178768,-0.01981563,-0.08239139,0.00435935,0.99828862,0.02214778,0.00863633,0.05342967
1757969489206,0.06971848,0.11237058,0.03017732,-0.03383174,-0.08095666,0.00241195,0.99829577,0.02196170,0.00819106,0.05344294
1757969489217,0.04217548,0.01055047,-0.06473651,0.00203908,-0.08408823,0.00517960,0.99829770,0.02197302,0.00772437,0.05347168
1757969489228,0.03672662,0.10172812,0.02870877,0.00156271,-0.08172668,0.00195594,0.99830029,0.02198154,0.00727896,0.05348234
1757969489239,-0.04600814,0.01057568,-0.03393285,-0.00661559,-0.08435129,-0.00065642,0.99830463,0.02194449,0.00680660,0.05347867
1757969489251,0.03539706,-0.08204713,0.03990154,-0.02244195,-0.07035440,0.00751395,0.99830780,0.02181657,0.00640558,0.05352150
1757969489261,-0.20107047,0.09671608,-0.32726397,-0.03467318,-0.07511290,-0.00793842,0.99831669,0.02162933,0.00599997,0.05347863
1757969489273,-0.03744708,-0.04441438,0.03143065,-0.04200670,-0.07198974,0.00073138,0.99832394,0.02139200,0.00559323,0.05348276
1757969489284,0.00748927,0.01939015,0.01565859,-0.03239632,-0.07555156,0.00628665,0.99832813,0.02121382,0.00517769,0.05351734
1757969489295,0.11780976,-0.04408212,0.26109787,-0.00650779,-0.06871416,-0.00092788,0.99833113,0.02117705,0.00478946,0.05351210
1757969489306,0.00653509,0.13116850,-0.02614034,-0.00697646,-0.06379542,0.00594083,0.99833183,0.02113763,0.00442901,0.05354566
1757969489317,0.01008970,-0.04176398,-0.06870210,-0.00277108,-0.06598292,0.01413708,0.99832959,0.02112280,0.00407600,0.05362129
1757969489328,-0.07239290,-0.05572336,0.04752649,-0.02726607,-0.06669813,0.00557864,0.99833256,0.02097148,0.00370583,0.05365226
1757969489340,-0.02378314,-0.12882789,-0.02129562,-0.04416807,-0.05008046,0.00630679,0.99833709,0.02070868,0.00340785,0.05368978
1757969489350,0.10846520,-0.25980339,-0.06475866,-0.04513011,-0.05746690,0.01204485,0.99833953,0.02047400,0.00310902,0.05375241
1757969489362,-0.29188686,-0.01176851,-0.50475261,-0.06791849,-0.05907300,0.01115308,0.99834483,0.02009705,0.00278117,0.05381431
1757969489373,-0.07462224,-0.22080170,-0.03866384,-0.05835222,-0.04797911,-0.00030589,0.99835216,0.01977028,0.00251248,0.05381260
1757969489384,0.05110628,-0.07037048,0.07771334,-0.06776620,-0.04497195,-0.01022691,0.99836319,0.01939418,0.00226289,0.05375584
1757969489395,0.12421059,-0.02576591,0.36773458,-0.08812001,-0.05676813,0.00884019,0.99837066,0.01890071,0.00194499,0.05380535
1757969489406,0.09105774,-0.04189040,0.01820488,-0.08974915,-0.04992018,0.01588921,0.99837579,0.01839362,0.00166294,0.05389512
1757969489417,0.00063360,0.02365310,-0.09545148,-0.07273439,-0.06265740,0.00470781,0.99838226,0.01798995,0.00131519,0.05392125
1757969489428,0.00290259,0.09385035,-0.13158399,-0.06933569,-0.06095515,0.01524086,0.99838493,0.01760514,0.00097689,0.05400584
1757969489440,0.02733465,0.03768398,-0.11307295,-0.04151560,-0.04901294,0.00885853,0.99838657,0.01737057,0.00069997,0.05405589
1757969489451,-0.05201540,-0.03110650,-0.20997955,-0.05060980,-0.05908916,0.00755125,0.99838932,0.01708969,0.00037202,0.05409780
1757969489462,-0.21870413,0.01222586,-0.53554045,-0.07780870,-0.06324745,-0.01168285,0.99840029,0.01665396,0.00001784,0.05403237
1757969489473,0.08231774,-0.11924799,0.01015906,-0.11108695,-0.06160758,-0.01058631,0.99841351,0.01603743,-0.00032409,0.05397362
1757969489499,-0.08295302,0.18489314,0.26788636,-0.04350662,-0.02915375,-0.00263319,0.99842413,0.01546967,-0.00070454,0.05393926
1757969489507,2.50047938,-3.14953786,-0.83521358,-0.29283005,-0.17317086,-0.02095728,0.99844463,0.01434227,-0.00137125,0.05385857
1757969489530,-0.73598953,0.97323810,0.36076376,-0.06428050,-0.03477591,-0.00649295,0.99845825,0.01360947,-0.00176769,0.05378455
1757969489550,0.23601871,-0.31252702,-0.11354162,-0.10606023,-0.07414967,-0.00305176,0.99847220,0.01254887,-0.00250919,0.05375403
1757969489552,27.74000168,-34.90209579,-14.29557800,-0.77588202,-0.66061038,-0.15427495,0.99849186,0.01157902,-0.00333495,0.05356119
1757969489572,-3.87568596,4.83015578,1.93787532,-0.06616868,-0.05237139,-0.00676155,0.99850070,0.01094380,-0.00383772,0.05349628
1757969489583,0.31704402,-0.54391213,-0.22962267,-0.09588514,-0.09292782,-0.00631974,0.99850625,0.01040205,-0.00436276,0.05346057
1757969489594,0.15853677,0.01012984,0.14741035,-0.09762554,-0.08541693,0.00860423,0.99850701,0.00985534,-0.00484110,0.05350875
1757969489607,0.01501295,0.22149545,0.13340738,-0.10179438,-0.09085254,0.01759842,0.99850422,0.00920895,-0.00541801,0.05362050
1757969489618,0.15239795,0.01236879,-0.03946457,-0.07031379,-0.09440274,-0.00926400,0.99850761,0.00880816,-0.00595611,0.05356770
1757969489621,17.54372092,-12.68831697,-3.49872294,-0.12717943,-0.42275814,-0.04014210,0.99850837,0.00865555,-0.00646342,0.05351953
1757969489642,-2.23768677,1.75876663,0.48438874,-0.02009475,-0.04914798,0.00527200,0.99850367,0.00844154,-0.00698684,0.05357568
1757969489643,64.54657052,-19.95402116,-1.22670094,-0.31372588,-0.81718989,-0.01576146,0.99850192,0.00822193,-0.00755888,0.05356464
1757969489653,-8.23177235,2.80009572,0.05630801,-0.01896450,-0.09687943,-0.01262020,0.99850230,0.00812521,-0.00805296,0.05350028
1757969489665,-0.04278826,0.11498334,-0.29568687,-0.00810197,-0.09100694,0.01022854,0.99849523,0.00807903,-0.00857170,0.05355858
1757969489677,-0.06233143,0.10580606,0.13219435,-0.02414697,-0.07319639,-0.02243890,0.99849982,0.00793173,-0.00901820,0.05342171
1757969489689,-0.00709293,-0.00609549,0.11632409,-0.01553339,-0.08709547,-0.02772778,0.99850439,0.00784241,-0.00951900,0.05326227
1757969489700,-0.03963846,0.05341859,0.24970401,-0.00452574,-0.08174229,-0.01617329,0.99850497,0.00781549,-0.01000536,0.05316604
1757969489712,-0.03788163,0.09175773,0.01010177,0.01213340,-0.07891092,-0.01723276,0.99850505,0.00788768,-0.01047488,0.05306350
1757969489724,0.01892169,0.14002277,-0.02005790,0.02840814,-0.07500085,-0.01186426,0.99850275,0.00805103,-0.01090614,0.05299529
1757969489735,-0.03373890,0.04819321,0.01165762,0.02405239,-0.06985748,-0.00871302,0.99849987,0.00818692,-0.01130083,0.05294606
1757969489748,-0.05560165,-0.10714159,0.04349883,0.03078162,-0.06424912,-0.01027997,0.99849707,0.00837777,-0.01169918,0.05288232
1757969489759,-0.11562508,0.06777102,-0.22150237,0.00672040,-0.07461034,0.00074103,0.99849130,0.00841708,-0.01213565,0.05288666
1757969489769,0.08188081,0.00805000,-0.09683500,-0.00246921,-0.06320414,-0.02051897,0.99849298,0.00840449,-0.01245799,0.05278201
1757969489781,-0.14509160,-0.17579340,0.03151116,-0.00506220,-0.06240989,-0.01666703,0.99849373,0.00837564,-0.01281373,0.05268701
1757969489801,-0.14707594,-0.08234812,0.12502255,-0.00719508,-0.03211350,-0.01204062,0.99849648,0.00830440,-0.01313165,0.05256781
1757969489811,0.46280899,-0.15001104,0.00693581,-0.00763541,-0.05602381,-0.01353210,0.99849663,0.00826623,-0.01341177,0.05250014
1757969489813,15.55681229,-3.01301479,2.12192535,-0.05082067,-0.31016135,-0.10812227,0.99849852,0.00821541,-0.01372193,0.05239202
1757969489824,-2.95457335,0.50909133,-0.33603639,-0.00405443,-0.03690031,-0.00852500,0.99849835,0.00819270,-0.01392857,0.05234428
1757969489844,-0.18801712,0.05748897,-0.01924247,-0.00739664,-0.02192325,-0.00925093,0.99850073,0.00811837,-0.01414890,0.05225131
1757969489846,27.04866564,-10.45120000,4.04685143,-0.12323036,-0.22320997,-0.11039945,0.99850359,0.00801978,-0.01432747,0.05216299
1757969489857,-3.63269048,1.15811045,-0.99870105,-0.03367165,-0.03963847,-0.01993504,0.99850774,0.00782954,-0.01455143,0.05205036
1757969489869,-0.01208911,-0.07734078,-0.18538459,-0.02749651,-0.03366214,-0.01341729,0.99851034,0.00765906,-0.01476013,0.05196717
1757969489888,-0.11300431,0.08879251,0.11715594,-0.02182684,-0.02517237,-0.00754001,0.99851202,0.00745716,-0.01499297,0.05189743
1757969489890,10.17112929,-9.00674815,-0.45020951,-0.09254975,-0.14461865,-0.06222006,0.99851402,0.00735073,-0.01515929,0.05182587
1757969489911,-1.14901979,1.08496796,0.30471293,-0.00773063,-0.02063577,-0.00477709,0.99851390,0.00726762,-0.01538112,0.05177452
1757969489913,20.09739247,-3.79498307,8.26517741,0.09505259,-0.20169339,-0.07677179,0.99851402,0.00733891,-0.01553239,0.05171694
1757969489923,-2.81453133,0.81876914,-1.07765198,-0.00443523,-0.02922845,-0.00013173,0.99851193,0.00731674,-0.01567853,0.05171628
1757969489935,-0.03015719,0.10389557,0.02375652,0.01488861,-0.02354771,-0.00745231,0.99851137,0.00740384,-0.01581629,0.05167269
1757969489945,-0.05837062,0.01722908,0.05823713,0.00113068,-0.02318582,-0.00074750,0.99850956,0.00740988,-0.01594033,0.05166869
1757969489957,-0.03805652,-0.35190075,-0.40856232,-0.01691845,-0.01448983,0.00152592,0.99850847,0.00731091,-0.01602510,0.05167761
1757969489969,-0.05264228,-0.22531108,-0.16616281,-0.01571876,-0.01296654,-0.01040769,0.99851114,0.00721660,-0.01610290,0.05161517
1757969489989,-0.04460172,0.07374621,0.08030257,-0.01155336,-0.00655718,-0.00338100,0.99851267,0.00709991,-0.01616912,0.05158102
1757969489991,4.27252934,-16.21001848,17.25391272,-0.01023813,-0.12178453,-0.01113498,0.99851174,0.00709274,-0.01625437,0.05157322
1757969490001,-0.61232688,2.43025595,-1.63686044,-0.00628124,-0.00917157,-0.01046531,0.99851400,0.00706008,-0.01630206,0.05151880
1757969490013,-0.02843381,0.10416950,-0.06513269,0.02032439,-0.00481385,-0.01294060,0.99851662,0.00717999,-0.01633047,0.05144245
1757969490024,0.00111939,0.16275444,-0.00024875,0.02161249,-0.01085826,-0.00323181,0.99851566,0.00730319,-0.01639236,0.05142403
1757969490037,-0.03325936,0.05701303,-0.04440201,0.02342741,-0.01541901,0.00097092,0.99851275,0.00744609,-0.01648641,0.05142996
1757969490059,0.00970464,-0.09209193,-0.08126828,0.01966614,-0.00302831,-0.00213538,0.99851176,0.00766537,-0.01652018,0.05140615
1757969490068,0.06186497,0.93714183,0.16001228,0.00093978,-0.02873213,0.00713894,0.99850801,0.00766951,-0.01664660,0.05143756
1757969490079,-0.01779707,-0.40544498,-0.15136152,0.00587231,-0.00911001,0.00152975,0.99850646,0.00770239,-0.01669762,0.05144612
1757969490089,-0.06204035,0.14356091,0.12019926,0.00967048,-0.01493643,-0.00120580,0.99850514,0.00775123,-0.01677305,0.05144004
1757969490090,-5.52892095,6.32815247,18.82562543,0.07353605,-0.08500177,-0.00134590,0.99850359,0.00781006,-0.01684105,0.05143896
1757969490102,0.70419391,-1.23922922,-2.51267029,0.01094162,-0.00027254,0.00689251,0.99850109,0.00787133,-0.01684257,0.05147756
1757969490112,-0.18548458,0.16136647,0.05646861,0.03959465,0.00272505,0.00637341,0.99849807,0.00807128,-0.01682881,0.05150974
1757969490123,-0.00723647,-0.05129121,-0.07536453,0.02422015,0.00188933,-0.00008518,0.99849713,0.00821176,-0.01681785,0.05150925
1757969490135,0.00692944,-0.08347927,0.00785498,0.01851843,0.01180896,0.00891528,0.99849479,0.00831639,-0.01675113,0.05155962
1757969490146,0.01566817,0.00298513,0.00593996,0.00485754,0.01721972,0.02155038,0.99848968,0.00834505,-0.01664954,0.05168677
1757969490158,-0.17507066,-0.05633148,0.04607789,0.02203052,0.01663516,0.00815960,0.99848780,0.00846952,-0.01655555,0.05173287
1757969490169,0.08318233,0.03437837,0.01583679,0.02459211,0.03468492,0.00848501,0.99848735,0.00861215,-0.01635438,0.05178208
1757969490181,-0.02046476,0.17287504,-0.11216081,0.03432447,0.02278078,0.01170952,0.99848429,0.00880780,-0.01622453,0.05184883
1757969490192,0.06263604,0.02057819,-0.16617979,0.05197654,0.02512633,-0.00438392,0.99848527,0.00910927,-0.01607879,0.05182340
1757969490213,0.04662539,-0.11841780,-0.07809053,0.01123147,0.00446310,-0.01683330,0.99849372,0.00922214,-0.01603394,0.05165422
1757969490214,-12.69826051,14.44587265,12.67137417,0.00101547,0.16900732,-0.05655454,0.99849793,0.00922290,-0.01590718,0.05161181
1757969490225,1.70017360,-2.16577252,-1.60098003,-0.00856113,0.00646586,0.00906019,0.99849640,0.00917710,-0.01587259,0.05166028
1757969490245,0.09679246,-0.08690018,-0.04549532,-0.01756577,0.00987443,0.00234117,0.99849838,0.00899881,-0.01577237,0.05168404
1757969490247,-9.84121279,-9.02954438,17.15384837,-0.50095315,0.02482392,0.00289585,0.99850233,0.00857300,-0.01575127,0.05168651
1757969490257,1.42573656,1.35998657,-2.51828269,-0.03593440,0.00539361,0.00006841,0.99850440,0.00838075,-0.01572241,0.05168687
1757969490269,0.13259808,0.08222969,-0.13240605,0.01728690,-0.00062126,0.00512812,0.99850191,0.00848274,-0.01572608,0.05171713
1757969490280,0.00409125,0.19809531,-0.04825739,0.01124902,-0.01559725,-0.00095045,0.99850027,0.00854574,-0.01581342,0.05171180
1757969490292,0.11724763,0.15116230,0.18758310,0.03033868,-0.02333199,0.00440794,0.99849536,0.00871867,-0.01594641,0.05173693
1757969490303,-0.09032912,-0.03452179,-0.02843343,0.03839912,-0.01939217,-0.00563481,0.99849330,0.00893946,-0.01605792,0.05170453
1757969490322,0.02454001,-0.08240321,-0.05424842,0.00780049,-0.01003575,0.01069808,0.99848575,0.00901435,-0.01615426,0.05180723
1757969490325,-0.87639391,-0.43209377,8.58342565,0.03663407,-0.05803659,0.07606331,0.99847974,0.00905648,-0.01622100,0.05189470
1757969490336,0.19333299,-0.21182200,-1.49941644,-0.00401828,-0.01301164,0.01790299,0.99847349,0.00903377,-0.01629452,0.05199586
1757969490348,-0.02501566,0.08690071,0.03111004,-0.01695318,-0.01666851,0.00379509,0.99847166,0.00893629,-0.01639036,0.05201768
1757969490359,0.21560192,-0.13300729,0.18689044,0.00839293,-0.01641816,0.00213276,0.99846901,0.00898497,-0.01648559,0.05203005
1757969490379,-0.02013198,0.11545317,-0.14555865,0.00389517,-0.00801833,-0.00000593,0.99846734,0.00902392,-0.01656577,0.05202999
1757969490381,9.57772136,3.14600766,33.95974638,0.05303920,-0.08246931,-0.01041934,0.99846629,0.00906636,-0.01663175,0.05202165
1757969490392,-1.36847399,-0.17058408,-4.73644052,0.00811081,-0.00310129,0.00941695,0.99846284,0.00911178,-0.01664911,0.05207439
1757969490403,-0.13410648,-0.04073558,-0.15335340,0.01714881,-0.00690834,0.00169249,0.99846084,0.00920695,-0.01668745,0.05208378
1757969490423,0.00122012,-0.10377353,-0.10723477,0.00456086,-0.00176362,-0.00802277,0.99846421,0.00925142,-0.01670465,0.05200556
1757969490425,-0.09315500,-0.61444872,12.63248344,-0.04194167,-0.04667571,-0.12262362,0.99847050,0.00920738,-0.01675366,0.05187680
1757969490436,0.06908519,0.05517034,-2.05441739,-0.02849508,-0.00111446,-0.01322788,0.99847574,0.00904638,-0.01675996,0.05180207
1757969490447,0.05443591,-0.02546458,0.06870647,-0.01205797,0.00069823,-0.00922699,0.99847916,0.00897765,-0.01675598,0.05174947
1757969490459,-0.03616278,0.28167091,-0.24841857,-0.00286158,-0.00889621,-0.01330059,0.99848246,0.00896091,-0.01680802,0.05167166
1757969490479,0.00909377,-0.00282233,-0.11837228,0.02105852,-0.00619256,-0.00158255,0.99848029,0.00917466,-0.01687087,0.05165560
1757969490481,9.51784144,24.50571198,12.81463160,0.24953885,-0.09527265,0.04162508,0.99847543,0.00937429,-0.01694709,0.05168890
1757969490492,-1.39675178,-3.46217261,-1.60523011,0.06825451,-0.02291262,0.01911417,0.99846465,0.00973604,-0.01706853,0.05179021
1757969490503,-0.03361041,-0.04239376,0.10841173,0.00532076,-0.01851529,0.01396770,0.99845841,0.00976637,-0.01717407,0.05186982
1757969490515,-0.02254274,-0.25052809,-0.08046123,0.02262479,-0.01669341,0.00258893,0.99845470,0.00989646,-0.01727005,0.05188471
1757969490526,0.03473574,-0.06557343,0.10942258,-0.00856184,-0.00884805,0.00640895,0.99845237,0.00984680,-0.01732137,0.05192188
1757969490538,-0.04016462,-0.07824537,-0.14752721,0.00566709,-0.01219534,0.00495024,0.99844921,0.00988080,-0.01739454,0.05195158
1757969490556,-0.02189183,0.01214169,-0.06622738,-0.00246960,0.00009859,0.00155983,0.99844872,0.00985858,-0.01739366,0.05196562
1757969490569,-0.22915128,0.15833323,-0.11146545,-0.00407476,-0.00343784,-0.00444209,0.99845008,0.00983229,-0.01741583,0.05193697
1757969490578,-0.17031434,0.13700365,0.00644723,0.00100962,-0.00084709,-0.00602342,0.99845132,0.00983663,-0.01741947,0.05191107
1757969490580,-2.53649875,1.73002748,0.53641720,0.07245369,-0.00840710,-0.01287409,0.99845107,0.00993082,-0.01743040,0.05189433
1757969490592,0.94442753,-0.57858843,0.06377094,-0.00137302,-0.00591442,-0.00485244,0.99845199,0.00992307,-0.01746382,0.05186692
1757969490614,0.00590792,-0.06710736,-0.10963905,0.00541479,-0.00740768,-0.00275016,0.99845153,0.00998317,-0.01754604,0.05183639
1757969490615,7.40457941,2.87498440,23.06860846,-0.04770527,-0.05139830,0.00314684,0.99845109,0.00994739,-0.01758459,0.05183875
1757969490624,-1.10468220,-0.41988633,-3.62872510,-0.01086693,-0.01419037,-0.00775201,0.99845222,0.00990012,-0.01764632,0.05180503
1757969490638,-0.01887079,-0.11279662,-0.04618145,-0.00840464,-0.02023951,-0.00012966,0.99845031,0.00984045,-0.01779002,0.05180411
1757969490650,0.00592065,-0.03389601,0.10548641,-0.01433092,-0.02428496,-0.00601265,0.99845041,0.00975590,-0.01793330,0.05176863
1757969490658,0.24053529,0.10517692,-0.44086682,-0.01078687,-0.06099377,0.00496207,0.99844514,0.00971059,-0.01818948,0.05178947
1757969490675,-0.03365086,0.08150452,-0.13646225,0.00904833,-0.01625322,0.00960618,0.99843793,0.00978433,-0.01832194,0.05186776
1757969490689,-0.02715834,0.04554214,-0.01111175,0.00996521,-0.01986272,-0.00239712,0.99843542,0.00985808,-0.01846892,0.05185003
1757969490692,3.78170635,1.91282049,11.56412652,0.07186760,-0.18657604,0.03416416,0.99842887,0.00993713,-0.01867416,0.05188761
1757969490704,-0.74907825,-0.28925005,-1.53561041,-0.01748698,-0.02455741,-0.00871334,0.99842986,0.00983134,-0.01882273,0.05183489
1757969490714,0.00010326,-0.07999754,-0.05985725,0.00558656,-0.03398860,-0.00249204,0.99842682,0.00986122,-0.01900457,0.05182156
1757969490726,-0.01879473,0.01755693,0.04335208,-0.00532280,-0.02935919,-0.01312830,0.99842781,0.00983035,-0.01917485,0.05174541
1757969490737,-0.01102594,-0.07415149,0.04072356,-0.02132543,-0.03459287,-0.00787913,0.99842753,0.00970986,-0.01937030,0.05170090
1757969490749,0.03554653,-0.16209186,0.02057214,-0.00618895,-0.02586028,-0.00287143,0.99842582,0.00967397,-0.01952029,0.05168424
1757969490760,-0.24275994,-0.16648784,-0.04260096,-0.02490864,-0.02975293,-0.01794237,0.99842908,0.00953448,-0.01968691,0.05158377
1757969490772,0.02135944,-0.02249785,-0.09795206,-0.00084861,-0.03877447,-0.01486699,0.99842912,0.00952964,-0.01990792,0.05149902
1757969490783,0.05000405,0.01661615,-0.00330849,0.00896082,-0.04015931,-0.00294261,0.99842494,0.00958027,-0.02013482,0.05148240
1757969490796,0.14770541,0.24247608,0.00901389,-0.00182150,-0.04087593,-0.00888746,0.99842264,0.00956843,-0.02040052,0.05142463
1757969490810,0.00427584,-0.03711988,-0.00512330,0.01289658,-0.03750677,-0.00821964,0.99841938,0.00965742,-0.02065931,0.05136791
1757969490816,0.25474816,-0.23053459,0.84670151,-0.00579918,-0.08143516,-0.04147302,0.99842100,0.00963828,-0.02092805,0.05123105
1757969490831,-0.14618190,0.04048299,-0.40304781,-0.01588778,-0.04063837,-0.00422218,0.99841734,0.00951912,-0.02123284,0.05119939
1757969490844,0.02863421,-0.02792094,0.11325503,-0.02971756,-0.04412317,0.00102531,0.99841289,0.00933487,-0.02150640,0.05120574
1757969490858,-0.00090559,-0.07477562,-0.06593868,-0.00361739,-0.04333319,-0.00568714,0.99840862,0.00930973,-0.02180757,0.05116622
1757969490859,8.70045599,3.69584670,12.90184758,-0.08571671,-0.31631306,-0.01437819,0.99840347,0.00922830,-0.02210806,0.05115256
1757969490876,-0.94377307,-0.12573170,-1.61189639,0.00651376,-0.02757336,0.00573748,0.99839529,0.00928334,-0.02234106,0.05120104
1757969490886,0.07612465,0.24686904,-0.04305642,0.05692768,-0.06107843,-0.02520369,0.99839217,0.00956798,-0.02264645,0.05107502
1757969490897,-0.13204840,-0.15250197,0.22036448,0.02833065,-0.04280522,-0.03566085,0.99839534,0.00972522,-0.02288402,0.05087710
1757969490909,-0.08012537,-0.24583018,-0.01437893,0.00622385,-0.04854379,-0.04420549,0.99840143,0.00976069,-0.02316072,0.05062513
1757969490921,-0.02669770,-0.08227148,0.01768419,-0.02613900,-0.04678083,-0.01671496,0.99840148,0.00960255,-0.02344374,0.05052401
1757969490932,0.01400290,-0.04698906,0.26206550,-0.04596380,-0.04223670,-0.00078229,0.99839872,0.00935894,-0.02366760,0.05051986
1757969490942,-0.05943329,-0.10493365,-0.00382636,-0.02782276,-0.04171886,-0.01211671,0.99839808,0.00921426,-0.02388454,0.05045685
1757969490954,-0.16654815,-0.02895543,-0.17155548,-0.01592053,-0.04276503,-0.00296437,0.99839380,0.00912113,-0.02413471,0.05043951
1757969490966,-0.02515742,-0.14271604,0.22555332,-0.01002678,-0.02850904,0.00037786,0.99839014,0.00906197,-0.02430291,0.05044174
1757969490976,-0.09057708,-0.07065264,0.06933993,0.00199651,-0.04745496,-0.00166083,0.99838434,0.00907255,-0.02455443,0.05043294
1757969490988,0.03749232,0.18129737,-0.13592790,0.00284201,-0.05671188,-0.00001658,0.99837569,0.00908975,-0.02489753,0.05043284
1757969490998,0.00442290,0.41403863,0.12207201,-0.00024838,-0.06387324,-0.01172238,0.99837070,0.00908852,-0.02521371,0.05037481
1757969491009,0.07076227,0.10751669,-0.16284849,0.00897974,-0.04205842,0.00645513,0.99836266,0.00913746,-0.02544292,0.05040999
1757969491023,-0.03329003,0.00627071,-0.08869457,-0.00609961,-0.03592826,0.01014598,0.99835329,0.00909598,-0.02568724,0.05047899
1757969491032,-0.18264864,-0.21513693,0.17570458,0.01886700,-0.04558586,0.01770743,0.99834274,0.00918465,-0.02590149,0.05056221
1757969491067,0.08451367,-0.00754605,-0.14174806,-0.00528865,-0.00888273,0.00132144,0.99833838,0.00909237,-0.02605649,0.05058527
1757969491076,-1.34152059,0.44209124,1.92362307,0.00245387,-0.14001256,-0.00216051,0.99832121,0.00910402,-0.02672155,0.05057501
1757969491088,0.75143313,0.06852058,-1.20420095,0.02077340,-0.04362643,-0.01040792,0.99831644,0.00922243,-0.02697022,0.05051568
1757969491099,0.05045022,0.05732980,-0.09172768,0.03604363,-0.03251584,0.00666684,0.99830758,0.00942788,-0.02715556,0.05055368
1757969491111,-0.00516165,-0.18350808,-0.06019709,0.03424553,-0.02527045,-0.03390608,0.99831172,0.00963164,-0.02730592,0.05035194
1757969491121,-0.07461493,-0.12476896,-0.02515492,0.00931058,-0.02466140,-0.02089868,0.99831320,0.00967959,-0.02743293,0.05024431
1757969491134,0.02789198,-0.08136945,-0.12423635,0.00428536,-0.02503855,-0.00489603,0.99831022,0.00970595,-0.02758692,0.05021420
1757969491154,0.09780810,-0.00567358,-0.02770784,-0.00646781,-0.00843718,0.00016889,0.99830844,0.00964191,-0.02767044,0.05021588
1757969491165,-0.20630985,-0.15618691,0.18545033,0.03466679,-0.01082486,-0.00930520,0.99830746,0.00984125,-0.02773269,0.05016237
1757969491175,0.03281552,-0.13895323,0.25044838,0.00460237,-0.02105318,0.01744001,0.99829962,0.00986518,-0.02784216,0.05025306
1757969491187,0.11442196,0.01933339,-0.06038397,0.01740366,-0.01369944,-0.00697529,0.99829840,0.00996873,-0.02792368,0.05021156
1757969491198,-0.11357369,0.18490505,-0.21358936,0.02212946,-0.03464688,0.01359153,0.99828816,0.01008934,-0.02811250,0.05028563
1757969491201,-6.46195928,3.97101578,3.28935949,-0.02686529,-0.09625629,-0.05189841,0.99828839,0.01005173,-0.02824726,0.05021297
1757969491221,0.98652855,-0.52307926,-0.59386832,0.00680831,-0.00848937,0.00210627,0.99828413,0.01012151,-0.02833428,0.05023456
1757969491223,-19.71099219,0.49221842,3.41008205,-0.01446806,-0.14002280,0.02486697,0.99827955,0.01010849,-0.02846030,0.05025694
1757969491234,2.99862873,-0.13592966,-0.48239699,-0.01829781,-0.01820263,-0.00354359,0.99827871,0.01000968,-0.02855859,0.05023781
1757969491253,0.13725518,-0.03541653,-0.08085151,-0.01176075,-0.01317611,0.00563497,0.99827343,0.00989560,-0.02868640,0.05029247
1757969491266,-0.21583467,0.01636061,0.00935113,-0.00438195,-0.01299358,0.00545963,0.99826961,0.00986800,-0.02876826,0.05032686
1757969491276,-0.25817326,0.01674607,-0.01369961,0.00855609,-0.02529629,-0.00311570,0.99826632,0.00991078,-0.02889474,0.05031128
1757969491287,0.06211919,0.09277271,-0.04127396,0.00560411,-0.03315851,0.00009182,0.99826085,0.00994076,-0.02907214,0.05031177
1757969491298,0.20323152,-0.02196583,-0.01891065,0.00313554,-0.02628733,0.00570997,0.99825454,0.00995895,-0.02922460,0.05034489
1757969491310,0.02834941,-0.03012125,0.00354368,-0.01433278,-0.03457875,-0.00424431,0.99825072,0.00987582,-0.02942516,0.05032027
1757969491320,-0.02736390,-0.15506207,0.06172079,-0.03282363,-0.03457912,0.00804132,0.99824497,0.00970513,-0.02960497,0.05036209
1757969491324,-4.32079944,-1.90965903,0.21850260,-0.10773785,-0.09470116,-0.03255503,0.99824475,0.00953275,-0.02975649,0.05031000
1757969491356,0.54049421,0.20272809,-0.03449310,-0.01504885,-0.01077350,0.00222632,0.99824000,0.00928821,-0.02993156,0.05034618
1757969491366,-0.98815331,-0.54107263,0.00183399,-0.05474469,-0.07364285,-0.00633554,0.99823300,0.00901448,-0.03029978,0.05031450
1757969491376,0.73432922,0.09775162,-0.22411346,-0.01172548,-0.05257085,0.01209752,0.99822246,0.00895586,-0.03056263,0.05037499
1757969491382,-0.49930234,-0.12480846,0.28465028,0.00135277,-0.05487773,0.00909141,0.99821610,0.00895985,-0.03072452,0.05040181
1757969491399,0.21543584,0.33492815,0.07198497,-0.00218254,-0.02140486,0.01146571,0.99820560,0.00894108,-0.03090860,0.05050041
1757969491409,-0.41213146,0.03996284,0.16123749,-0.00849610,-0.02907807,0.00317832,0.99820066,0.00889860,-0.03105399,0.05051631
1757969491421,0.10543342,-0.04397865,-0.08541036,0.00390812,-0.02702948,0.01664675,0.99819016,0.00892244,-0.03121887,0.05061785
1757969491424,-12.16965176,0.12294821,5.43313982,-0.07462053,-0.04543350,0.05032288,0.99818652,0.00884035,-0.03126885,0.05067321
1757969491443,1.45696564,-0.01405244,-0.59220016,-0.00441402,-0.01730998,0.01100090,0.99817594,0.00879643,-0.03144108,0.05078266
1757969491445,-33.76722934,-6.71277656,9.76999501,-0.05737743,-0.14893266,0.07285122,0.99816961,0.00875053,-0.03156023,0.05084095
1757969491456,4.49610883,0.98343310,-1.30181072,-0.01048287,-0.01491984,0.01920754,0.99816207,0.00869235,-0.03164304,0.05094755
1757969491468,0.00514605,0.07255926,0.02863887,0.02076635,-0.01102822,0.02580713,0.99815096,0.00881695,-0.03170920,0.05110239
1757969491487,0.15518894,0.04980805,-0.04618362,0.00714319,-0.01192369,0.00124300,0.99814612,0.00888517,-0.03182308,0.05111426
1757969491499,-0.18163333,-0.01251295,0.14030148,0.00843891,-0.00595965,0.04404956,0.99813184,0.00893285,-0.03185675,0.05136314
1757969491510,-0.01120300,0.20118727,0.05974935,-0.02627252,-0.00601852,0.03191952,0.99812278,0.00878441,-0.03189075,0.05154349
1757969491522,0.02065349,-0.16785319,-0.16704629,0.03360830,-0.00462519,0.01373292,0.99811596,0.00898270,-0.03191804,0.05162451
1757969491524,-8.83114923,3.57709631,4.53655496,-0.04426890,0.00424418,0.11335627,0.99810875,0.00892293,-0.03191231,0.05177754
1757969491545,1.36572181,-0.48307574,-0.63011557,-0.00162129,-0.00239678,0.00735902,0.99810424,0.00890648,-0.03193664,0.05185224
1757969491555,-0.25152340,-0.07655428,0.15255542,0.03901034,-0.01812091,0.00314885,0.99809865,0.00910543,-0.03202906,0.05186829
1757969491557,-6.71771110,-3.29298547,4.18802331,-0.02608552,-0.05945028,-0.01784641,0.99809768,0.00907152,-0.03210634,0.05184509
1757969491577,1.04065125,0.25326243,-0.62786616,0.00178554,-0.01297001,-0.01167611,0.99809939,0.00908938,-0.03223604,0.05172833
1757969491588,-0.29290922,0.00121237,0.26398862,0.00544032,-0.02741944,-0.01418926,0.99809834,0.00911767,-0.03237862,0.05165455
1757969491599,0.10623104,0.35109027,0.07159868,0.01694274,-0.01470101,0.01056116,0.99809168,0.00921339,-0.03246168,0.05171422
1757969491602,-4.01294748,3.32528601,7.23687807,0.04288896,-0.01259385,0.07942288,0.99808453,0.00927558,-0.03247994,0.05182938
1757969491635,0.44582278,-0.30225954,-0.73063115,-0.00114171,0.00239866,0.00731132,0.99807977,0.00925691,-0.03244073,0.05194892
1757969491644,-0.89205258,-0.15567001,1.85165251,-0.03686982,-0.00478054,0.03677890,0.99807161,0.00908363,-0.03246319,0.05212178
1757969491649,0.02158611,-0.74741904,0.34537775,-0.06485694,-0.06178266,-0.01770558,0.99807043,0.00893121,-0.03260838,0.05208018
1757969491661,0.62684208,0.57960851,-0.94095532,-0.01534427,-0.00644403,-0.00476346,0.99807146,0.00884068,-0.03264640,0.05205207
1757969491680,0.05186605,-0.03410003,-0.24034476,0.01234050,-0.00348932,-0.00186316,0.99807022,0.00896100,-0.03268042,0.05203391
1757969491692,-0.29280452,0.47363913,1.09354669,0.04465587,-0.00291376,0.02178746,0.99806046,0.00922670,-0.03269776,0.05216354
1757969491704,0.28450331,-0.48471480,-0.78131845,0.01563826,0.00386060,0.01272719,0.99805632,0.00932131,-0.03267440,0.05224054
1757969491714,-0.06030954,-0.08747057,0.42690545,0.01164290,-0.00445284,-0.00491115,0.99805633,0.00937604,-0.03269533,0.05221746
1757969491726,0.09638334,-0.19409587,-0.24232163,-0.00387570,-0.00921788,-0.00269759,0.99805557,0.00935239,-0.03275156,0.05220100
1757969491737,0.09225178,-0.01872049,0.19891065,-0.02616338,-0.00050884,-0.01269017,0.99806073,0.00920065,-0.03275451,0.05212740
1757969491749,0.07481717,-0.00882101,-0.03369250,0.00215761,0.00124371,-0.00956074,0.99806377,0.00921327,-0.03274724,0.05207147
1757969491775,0.00675681,0.08242582,-0.27720141,0.00598053,-0.00272083,-0.00454669,0.99806499,0.00929191,-0.03278302,0.05201168
1757969491785,0.44999695,0.17238908,1.92050951,0.01919091,-0.02596831,-0.04686270,0.99807207,0.00938883,-0.03291416,0.05177502
1757969491792,0.15662485,-0.10373595,0.81895668,-0.01466817,-0.02481956,-0.04202324,0.99807670,0.00934336,-0.03299110,0.05164475
1757969491803,-0.37256502,-0.19857259,-1.37120783,0.00033165,-0.02503025,-0.01662034,0.99807686,0.00934530,-0.03313752,0.05154752
1757969491815,-0.00435420,0.09753408,0.09405072,-0.02728502,-0.00596185,-0.00715494,0.99807935,0.00918568,-0.03317240,0.05150567
1757969491827,-0.04956846,-0.13594739,-0.00705403,-0.00995550,-0.01121958,-0.00301193,0.99807860,0.00912694,-0.03323860,0.05148790
1757969491839,-0.00085614,0.08903883,0.02397199,-0.00517145,-0.01822263,-0.01424281,0.99807962,0.00909643,-0.03334611,0.05140386
1757969491850,0.11442690,0.15311655,0.09092160,0.01389789,-0.01967337,-0.01089820,0.99807831,0.00917773,-0.03346120,0.05134011
1757969491870,-0.07760912,0.08570217,-0.44310643,0.01161277,-0.01956802,-0.00300757,0.99807226,0.00929270,-0.03365492,0.05131033
1757969491872,5.81506732,12.79126407,31.22885284,0.10032414,-0.12886061,-0.06375767,0.99807014,0.00939804,-0.03379023,0.05124339
1757969491892,-0.62154693,-1.36300253,-3.24311032,0.00470933,-0.00734132,-0.00672939,0.99807066,0.00944490,-0.03386327,0.05117643
1757969491894,7.23163087,9.06043849,85.07775968,0.13494965,-0.16831826,-0.06376006,0.99806786,0.00954611,-0.03398951,0.05112861
1757969491905,-0.90499907,-1.33706702,-10.16651675,-0.00620202,0.00217778,-0.00405643,0.99806982,0.00951045,-0.03397699,0.05110529
1757969491917,-0.01983066,-0.09509701,0.05768918,0.00203893,-0.01616214,-0.00393099,0.99806770,0.00952217,-0.03406992,0.05108268
1757969491937,-0.04010834,0.02180660,-0.42191757,0.00921643,-0.00558070,-0.01136705,0.99807073,0.00961480,-0.03412601,0.05096844
1757969491939,5.36812273,8.21532246,56.81617815,0.30490467,-0.12881026,-0.16260477,0.99807159,0.00990446,-0.03424838,0.05081397
1757969491950,-0.76867794,-1.09431119,-8.68110739,0.06041283,-0.02325198,-0.01270247,0.99806724,0.01024881,-0.03438091,0.05074157
1757969491970,-0.10884993,-0.03964301,-0.30030772,0.03083010,-0.00972709,-0.01060656,0.99806606,0.01055557,-0.03447770,0.05063603
1757969491972,-3.03171497,7.55895984,64.34603460,0.24182459,-0.13250366,-0.06168550,0.99806222,0.01078530,-0.03460358,0.05057743
1757969491983,0.53018598,-1.40480938,-9.90658916,0.03310966,-0.02677190,0.00496498,0.99805342,0.01097403,-0.03475618,0.05060573
1757969492004,0.00070577,-0.00749032,-0.55560309,0.01348806,-0.01467508,0.00034968,0.99804636,0.01111430,-0.03490880,0.05060937
1757969492007,2.67010469,1.11813729,35.34096938,0.09266729,-0.10333641,0.02557015,0.99803892,0.01123014,-0.03503797,0.05064133
1757969492016,-0.60300797,-0.28914594,-7.87353343,0.01090800,-0.02047750,0.00084737,0.99803475,0.01128140,-0.03513421,0.05064531
1757969492028,-0.16112420,-0.11561246,-0.44130087,0.02000229,-0.02402007,-0.00031008,0.99802861,0.01139742,-0.03527353,0.05064351
1757969492039,0.16874018,0.08197164,0.07335394,0.00609609,-0.01113727,0.01170524,0.99802232,0.01143369,-0.03533980,0.05071316
1757969492067,-0.04273716,-0.01268401,-0.47170958,0.00375258,-0.00628610,0.00580301,0.99801452,0.01148585,-0.03542717,0.05079382
1757969492078,-0.08166650,0.67175044,2.59934165,0.05734280,-0.01775630,0.01225981,0.99800442,0.01178690,-0.03552039,0.05085818
1757969492089,0.12981496,-0.43163950,-1.49746533,0.02558182,-0.00709551,0.01150805,0.99799801,0.01193016,-0.03556013,0.05092263
1757969492100,-0.17799472,-0.27738379,0.40430095,0.00649832,-0.00810700,0.01875637,0.99799099,0.01196460,-0.03560309,0.05102204
1757969492111,0.12945119,-0.28756616,-0.17548248,-0.00699279,-0.00220822,0.01451687,0.99798668,0.01192369,-0.03561601,0.05110696
1757969492114,-0.99470953,-0.06912712,18.86025250,-0.06461890,-0.01171864,0.02688641,0.99798508,0.01182353,-0.03563418,0.05114864
1757969492127,0.34260670,0.29374096,-4.86080092,-0.03412464,0.00707355,0.00947715,0.99798611,0.01161367,-0.03559067,0.05120692
1757969492138,-0.06200318,-0.04463457,0.12769951,-0.02351042,0.01152050,0.00684583,0.99798797,0.01148201,-0.03552616,0.05124526
1757969492157,-0.05042579,0.06983883,-0.50341177,-0.00290103,0.00251164,0.00141926,0.99798843,0.01145488,-0.03550268,0.05125853
1757969492160,2.95999216,0.54096395,10.29789767,0.02617885,0.01777013,0.02240132,0.99798679,0.01150724,-0.03546714,0.05130333
1757969492185,-0.45268267,-0.10845675,-1.86808038,0.00959867,0.00173337,-0.00140858,0.99798706,0.01162194,-0.03544642,0.05128650
1757969492202,0.07420810,-0.09309325,0.35450517,0.01437780,0.00546833,0.00148783,0.99798661,0.01175063,-0.03539748,0.05129981
1757969492213,0.06332639,0.25493785,2.63491042,-0.05069908,0.02074057,0.03039590,0.99798538,0.01149206,-0.03529170,0.05145483
1757969492222,-0.21740972,-0.72393722,-2.08280075,-0.00696254,0.01755233,0.00112035,0.99798850,0.01145829,-0.03520657,0.05146027
1757969492224,5.53647267,9.62261687,41.80190489,-0.29956901,0.14549714,0.06333790,0.99799375,0.01115872,-0.03506108,0.05152360
1757969492239,-0.67181057,-0.99221865,-6.01238675,-0.02181210,0.00772745,-0.00097808,0.99799798,0.01099513,-0.03500312,0.05151627
1757969492249,0.28839587,0.03308318,0.54759223,0.00547236,0.00282514,-0.02639619,0.99800504,0.01102277,-0.03498885,0.05138297
1757969492259,-0.39101827,0.42077338,-0.25107129,-0.01097205,-0.00866308,-0.03651968,0.99801351,0.01096791,-0.03503217,0.05120037
1757969492272,0.32978058,-0.01144409,-0.52337646,-0.02883648,-0.03198607,-0.01816595,0.99801426,0.01078768,-0.03523208,0.05108683
1757969492283,0.05529395,0.08499744,0.19319812,-0.03734811,-0.02832125,-0.01067401,0.99801394,0.01057853,-0.03539068,0.05102706
1757969492295,0.00484405,-0.38046378,0.25947922,-0.02958243,-0.02960558,-0.00257236,0.99801038,0.01040547,-0.03556387,0.05101201
1757969492306,0.03789711,-0.14720896,-0.00184400,-0.04687708,-0.03594093,0.00529697,0.99800405,0.01012890,-0.03577593,0.05104326
1757969492318,-0.01220767,-0.11696386,0.04630805,-0.04391081,-0.03814215,-0.00015885,0.99799869,0.00987421,-0.03599715,0.05104234
1757969492337,-0.08155219,0.03254233,-0.34333220,-0.03215331,-0.02392029,0.00118678,0.99799290,0.00957037,-0.03622320,0.05105356
1757969492340,5.58153123,-3.21651308,14.61389215,-0.11519910,-0.20466320,-0.02921487,0.99798461,0.00937453,-0.03657112,0.05100389
1757969492360,-0.96570783,0.63894063,-2.56857657,-0.00985622,-0.03109638,-0.01269893,0.99798065,0.00927794,-0.03687587,0.05087944
1757969492362,26.47931464,-7.01037875,51.70691672,-0.13657709,-0.25717471,0.01943392,0.99797231,0.00915502,-0.03710733,0.05089693
1757969492373,-3.89253216,0.96530742,-7.68032898,0.00379262,-0.04412307,0.00341985,0.99796155,0.00917701,-0.03736324,0.05091677
1757969492393,-0.17705950,0.06614451,-0.26267339,-0.01150067,-0.01260600,0.00392040,0.99795599,0.00906431,-0.03748678,0.05095519
1757969492395,7.75257409,-5.57146308,29.58100129,-0.12698903,-0.02651752,0.02798578,0.99795445,0.00891192,-0.03751860,0.05098877
1757969492407,-1.66040128,0.95966816,-5.62279674,-0.02515684,-0.00027766,-0.00374037,0.99795669,0.00877230,-0.03752014,0.05096801
1757969492426,-0.10463395,0.07351121,-0.37889167,-0.01610874,-0.00874837,-0.00459860,0.99795713,0.00861766,-0.03760412,0.05092386
1757969492429,3.93689692,-6.96939727,22.87125507,-0.08505003,-0.01909870,-0.03310375,0.99795950,0.00849859,-0.03763086,0.05087752
1757969492440,-0.82441111,1.59465459,-4.82446292,-0.01705950,-0.00206341,-0.00132198,0.99796028,0.00839964,-0.03764283,0.05086985
1757969492451,0.07760476,0.16856028,0.08867633,0.00738288,0.01397167,-0.00554777,0.99796435,0.00843988,-0.03756669,0.05083962
1757969492470,-0.09979720,0.19476626,-0.59197761,0.00617623,0.00305233,0.00670605,0.99796164,0.00849979,-0.03753708,0.05090466
1757969492473,3.46225764,2.32035267,14.60712474,-0.03069711,0.05536071,-0.05543779,0.99796965,0.00845221,-0.03745127,0.05081874
1757969492493,-0.55908825,-0.45147440,-2.26984297,-0.01349963,0.01034659,-0.00419269,0.99797654,0.00832194,-0.03735142,0.05077828
1757969492495,3.02408643,-7.69506464,33.00839755,-0.13531947,0.04508397,-0.02123878,0.99798140,0.00815279,-0.03729507,0.05075173
1757969492507,-0.81270722,1.14782512,-6.11977711,-0.05030564,0.02160669,0.00075550,0.99798808,0.00786604,-0.03717191,0.05075603
1757969492518,0.16204525,0.47646158,0.02289856,-0.02820442,0.01839839,-0.00524779,0.99799481,0.00770387,-0.03706612,0.05072586
1757969492538,-0.02871396,0.07104188,-0.51581613,-0.00094530,0.00768080,0.00397333,0.99799568,0.00769475,-0.03699200,0.05076420
1757969492540,1.80775258,1.64096108,26.59850801,0.00295998,0.03430359,0.00751469,0.99799694,0.00769904,-0.03694226,0.05077510
1757969492560,-0.24151086,-0.30442252,-3.91096433,0.00940591,0.00662187,0.00732221,0.99799499,0.00779028,-0.03687803,0.05084612
1757969492562,-0.45650469,-9.99698817,46.66755727,0.08279990,0.04956690,0.07307695,0.99799206,0.00788550,-0.03682103,0.05093016
1757969492574,-0.01383891,1.46068350,-8.32743737,0.00607635,0.00753796,0.00972589,0.99799054,0.00792013,-0.03677806,0.05098560
1757969492585,-0.04645244,0.07563704,-0.37776123,0.00622668,0.00742952,0.00725937,0.99798968,0.00795656,-0.03673460,0.05102807
1757969492604,0.07182109,0.20193160,-0.35002476,-0.00486390,0.00823296,0.00229968,0.99799178,0.00791084,-0.03665721,0.05104968
1757969492607,2.11861316,-3.65041698,22.48196102,-0.09722602,0.04622325,0.01160462,0.99799495,0.00774555,-0.03657863,0.05106941
1757969492619,-0.52193048,0.67854200,-5.85395246,-0.04104289,0.01881200,0.00531353,0.99799911,0.00751161,-0.03647140,0.05109970
1757969492638,-0.04384463,0.13896935,-0.52702986,-0.02174612,0.00625475,0.00069763,0.99800250,0.00730393,-0.03641167,0.05110636
1757969492648,0.34117319,-0.45887290,1.15429701,-0.03483611,0.02424838,0.00026898,0.99800821,0.00712627,-0.03628800,0.05110773
1757969492651,1.83968530,-3.54285913,15.99244809,-0.15499975,-0.01452019,0.01174882,0.99800814,0.00687052,-0.03631196,0.05112712
1757969492663,-0.49692014,1.55971447,-5.15540553,-0.04413571,0.01328179,-0.02075119,0.99801883,0.00661453,-0.03623492,0.05100676
1757969492682,-0.12772970,0.00981463,-0.39235500,-0.04213764,-0.00153204,0.00465622,0.99801862,0.00621633,-0.03624940,0.05105076
1757969492685,5.68519460,-4.40367133,19.63834086,-0.30272928,0.02177583,-0.01840272,0.99802429,0.00573196,-0.03621456,0.05102132
1757969492698,-1.36123867,0.74724072,-4.42056141,-0.07440546,-0.00026616,-0.00276644,0.99802778,0.00525205,-0.03621628,0.05100348
1757969492736,-0.07513818,0.14285781,-0.29406453,-0.02209768,-0.00167220,-0.00396424,0.99803257,0.00483440,-0.03624788,0.05092855
1757969492747,1.33535195,0.30587824,5.39104915,-0.02078266,-0.03292175,-0.07121329,0.99804618,0.00472218,-0.03642566,0.05054400
1757969492757,-1.00960019,0.11835581,-3.46178948,0.02924353,-0.02312211,0.01161588,0.99803783,0.00487717,-0.03654821,0.05060556
1757969492768,-0.12735111,-0.01194696,-0.52071714,0.00623054,-0.00812252,-0.01373922,0.99803975,0.00490957,-0.03659044,0.05053412
1757969492779,-0.05418376,-0.17134401,-0.50887487,0.03420794,-0.01156524,0.01383154,0.99803242,0.00510284,-0.03665579,0.05061227
1757969492790,-0.12677223,0.06424393,0.16194282,0.02108919,-0.00181055,0.01111039,0.99802828,0.00522094,-0.03666593,0.05067449
1757969492801,-0.03564316,-0.09515984,-0.01984476,0.02403595,-0.00452286,0.00066198,0.99802648,0.00535314,-0.03669080,0.05067813
1757969492814,-0.00463778,-0.05730138,-0.25753456,0.01601557,0.00050550,0.00066579,0.99802580,0.00545964,-0.03668744,0.05068255
1757969492816,5.00937950,-0.65271319,75.81272619,0.05673177,0.01045274,0.02759787,0.99802481,0.00550219,-0.03667960,0.05070325
1757969492826,-0.60251243,0.26051315,-10.14836676,-0.01500210,-0.00566606,0.01022928,0.99802145,0.00542418,-0.03670906,0.05075645
1757969492845,-0.14596604,-0.24446705,-0.73215532,-0.03639430,-0.00158394,0.01118356,0.99801728,0.00507661,-0.03672419,0.05086325
1757969492857,0.00885647,-0.46035984,0.38393298,-0.13372525,0.02032978,0.03616212,0.99801465,0.00432775,-0.03661034,0.05106576
1757969492868,-0.33356115,-0.00669121,-0.41755749,-0.16093001,-0.00342073,0.03888092,0.99800613,0.00341045,-0.03662984,0.05128738
1757969492879,0.14115744,-0.32412233,-0.04369159,-0.21020280,0.04225244,0.01643387,0.99801332,0.00224383,-0.03639534,0.05137859
1757969492890,-0.15663275,-0.58482824,-0.33470668,-0.22922487,0.01333510,-0.00247402,0.99801869,0.00099455,-0.03632266,0.05136510
1757969492901,0.22946526,-0.75874629,-0.12586194,-0.21316221,0.00961050,-0.00841931,0.99802355,-0.00019916,-0.03626885,0.05131795
1757969492913,0.12536738,0.38589452,-0.06731817,-0.16030194,-0.00695564,-0.01850744,0.99802710,-0.00116898,-0.03631093,0.05120598
1757969492924,0.15145730,-0.09666584,-0.38006855,-0.14143191,-0.03876740,0.00791925,0.99801640,-0.00191150,-0.03651446,0.05124756
1757969492935,0.12835779,0.44301178,-0.04992396,-0.16616999,-0.02077772,0.01864962,0.99800455,-0.00284205,-0.03663081,0.05135200
1757969492946,-0.00102039,-0.19099700,-0.18430291,-0.15830191,-0.03630333,0.01974206,0.99798875,-0.00371271,-0.03683048,0.05146058
1757969492957,0.04474190,-0.15190529,-0.03228628,-0.17496262,-0.01335776,0.02242019,0.99797500,-0.00471875,-0.03690729,0.05158950
1757969492969,-0.09396109,-0.02934271,-0.08570399,-0.16281184,-0.02283992,0.03756883,0.99795334,-0.00568748,-0.03704318,0.05181303
1757969492979,0.03453826,0.77224004,0.02423215,-0.06023446,-0.03157706,0.02924220,0.99793856,-0.00597962,-0.03719633,0.05195485
1757969492990,-0.36985167,-0.31472523,0.20134698,0.01204495,-0.03847238,-0.02088395,0.99793696,-0.00591096,-0.03741563,0.05183582
1757969493002,0.50407459,1.36100473,0.06789018,0.04256509,-0.06955788,0.00492811,0.99792223,-0.00567260,-0.03780515,0.05186341
1757969493013,-0.01549543,0.68592647,0.15711641,0.04436903,-0.06306457,-0.00202215,0.99791055,-0.00541969,-0.03816462,0.05185189
1757969493024,0.00117533,0.13365890,0.07038136,0.04832973,-0.06278934,0.00079709,0.99789847,-0.00515388,-0.03850996,0.05185627
1757969493035,-0.05186463,-0.10444985,0.26941148,0.01198394,-0.06076770,0.00851646,0.99788355,-0.00508857,-0.03884114,0.05190269
1757969493046,-0.12259778,-0.20657210,0.27236969,0.00282428,-0.05180721,0.01217154,0.99786835,-0.00507233,-0.03913903,0.05197267
1757969493058,-0.07461825,-0.06476624,0.18127694,0.00805650,-0.04375073,0.03570126,0.99784886,-0.00502802,-0.03937966,0.05216903
1757969493068,-0.08331543,0.37360593,-0.01678349,0.04500167,-0.03881758,0.00721368,0.99783964,-0.00478276,-0.03959122,0.05220834
1757969493081,-0.01785311,0.16276562,-0.06418585,0.08717286,-0.05480309,-0.01546814,0.99783356,-0.00424229,-0.03993100,0.05211244
1757969493091,0.09557456,0.58409912,0.28658064,0.11571718,-0.08435471,0.00633647,0.99781773,-0.00368106,-0.04034012,0.05214317
1757969493101,0.11485894,-0.05779151,0.12702340,0.13970765,-0.06549823,-0.00978064,0.99780853,-0.00291965,-0.04069708,0.05208987
1757969493113,-0.04422617,-0.18490144,-0.07541935,0.11243077,-0.05596082,0.00452067,0.99779568,-0.00227317,-0.04101886,0.05211586
1757969493124,-0.10585020,-0.09288503,0.12773218,0.10058020,-0.06486765,0.02195839,0.99777593,-0.00172501,-0.04137239,0.05223554
1757969493135,-0.02958007,-0.29561558,-0.02561643,0.09145879,-0.02597729,0.00554136,0.99776889,-0.00120370,-0.04152046,0.05226712
1757969493147,-0.11014929,-0.08279459,0.04227544,0.07381055,-0.03155639,-0.00187120,0.99776225,-0.00077560,-0.04170349,0.05225627
1757969493158,-0.00024670,-0.10283711,0.09853755,0.08426857,-0.02657810,-0.00487848,0.99775787,-0.00032055,-0.04184701,0.05222992
1757969493169,0.10035429,-0.10107994,-0.00225757,0.05001295,-0.02857543,0.00518264,0.99774975,-0.00004297,-0.04200560,0.05225869
1757969493181,-0.01112560,-0.11482040,0.01398473,0.04729194,-0.00574357,0.00664321,0.99774621,0.00023841,-0.04203978,0.05229822
1757969493191,-0.13569575,-0.03854807,0.20689919,0.05383949,-0.00425479,0.01031257,0.99774243,0.00051299,-0.04206147,0.05235081
1757969493203,-0.15790378,-0.13594069,-0.13236768,0.01262324,0.00874220,0.00466498,0.99774311,0.00058684,-0.04201033,0.05237810
1757969493213,-0.03534809,-0.10475386,0.21276487,0.02013572,0.03155706,-0.01937154,0.99775557,0.00069457,-0.04184150,0.05227446
1757969493224,-0.03536455,-0.02631318,-0.00365310,-0.00749497,0.00893937,-0.02189466,0.99776404,0.00065297,-0.04179189,0.05215295
1757969493236,0.06789288,-0.01383114,0.08561524,-0.01477219,0.01301575,-0.02888812,0.99777558,0.00057025,-0.04171900,0.05199117
1757969493247,0.00697786,-0.12736224,-0.12239093,0.00946706,0.00529117,-0.02034525,0.99778285,0.00062421,-0.04168884,0.05187521
1757969493259,0.09241834,0.10245924,0.03238322,-0.00892136,0.01371037,0.00195920,0.99778566,0.00057157,-0.04160795,0.05188676
1757969493269,0.09738720,0.16664477,-0.19780258,-0.00942860,0.01731433,-0.00742243,0.99779138,0.00052301,-0.04151878,0.05184854
1757969493280,0.00468735,0.04278264,-0.14826683,-0.02205968,0.01820260,0.00817707,0.99779328,0.00040058,-0.04141776,0.05189392
1757969493292,-0.04924991,-0.06689767,0.02172032,-0.02659803,0.02007925,0.01180604,0.99779463,0.00024233,-0.04129829,0.05196417
1757969493302,-0.12281177,-0.29608195,0.51236403,-0.01870355,0.02939911,0.00253967,0.99780027,0.00014507,-0.04114541,0.05197737
1757969493314,0.04281619,-0.00485366,-0.12446164,-0.00516018,0.01229699,-0.01568611,0.99780789,0.00011540,-0.04107470,0.05188718
1757969493325,0.01707900,0.05035359,-0.01834099,-0.00329277,0.00672005,-0.00406463,0.99781059,0.00009712,-0.04103741,0.05186462
1757969493336,0.03257799,0.15870164,0.07117818,0.00360683,0.00856083,-0.00689742,0.99781439,0.00011642,-0.04099161,0.05182772
1757969493347,0.04768521,0.05438636,-0.06618554,0.01770594,0.01813227,-0.00779710,0.99782081,0.00021557,-0.04089006,0.05178406
1757969493358,-0.07317535,-0.06842370,-0.12544345,0.01528932,0.01423085,-0.00516781,0.99782555,0.00030119,-0.04081037,0.05175512
1757969493371,-0.08076313,-0.07811260,-0.23199911,-0.00568099,0.00494025,-0.00862993,0.99782972,0.00026483,-0.04077875,0.05169988
1757969493381,-0.05618579,-0.31961121,0.44328007,-0.01115687,0.00888133,-0.02113260,0.99783687,0.00021016,-0.04073524,0.05159633
1757969493393,0.04593680,0.09459365,-0.23659395,-0.03757444,-0.00603477,-0.01361958,0.99783963,-0.00001528,-0.04077144,0.05151462
1757969493402,0.15449654,-0.22211055,0.50311413,-0.03572496,-0.00266080,-0.02716147,0.99784588,-0.00018855,-0.04078435,0.05138288
1757969493414,-0.01942781,0.11972255,-0.33429483,-0.01639900,-0.00875324,-0.01011653,0.99784681,-0.00028448,-0.04083556,0.05132370
1757969493426,-0.02044635,0.13493176,-0.05600522,-0.00485242,-0.00477658,-0.01150513,0.99784923,-0.00031433,-0.04086493,0.05125295
1757969493437,-0.12104488,0.18244432,0.13787240,0.01370103,-0.00830636,-0.01048881,0.99785027,-0.00024377,-0.04090771,0.05119893
1757969493448,-0.02664933,0.18987059,-0.21383338,0.02000766,0.00290749,-0.00418343,0.99785215,-0.00013272,-0.04089157,0.05117571
1757969493459,-0.02666537,0.06638807,-0.16626549,0.01982151,0.00267377,0.00171776,0.99785228,-0.00001776,-0.04087606,0.05118567
1757969493470,-0.06971687,0.06333491,-0.41476464,0.02958438,0.00437740,0.00155165,0.99785280,0.00014052,-0.04085265,0.05119397
1757969493481,0.01846336,-0.11071328,0.00225419,0.01335491,0.00563191,0.00754118,0.99785195,0.00021263,-0.04082223,0.05123470
1757969493492,-0.02194786,-0.12287862,0.06621528,-0.00468604,-0.00966686,0.00134781,0.99784932,0.00018616,-0.04087685,0.05124231
1757969493503,0.01527498,-0.11434399,0.41882889,-0.00695807,-0.00182363,-0.00868288,0.99785139,0.00014754,-0.04088697,0.05119412
1757969493514,-0.00394113,0.06440491,-0.04747433,0.00919360,-0.01396143,0.00964132,0.99784556,0.00019765,-0.04096306,0.05124667
1757969493526,-0.03485652,0.20646301,-0.12616343,0.02844284,-0.01446746,0.00448114,0.99784082,0.00035977,-0.04104553,0.05127221
1757969493538,-0.00347066,0.18280000,-0.06857020,0.01676671,-0.00587865,0.00866469,0.99783658,0.00046205,-0.04108139,0.05132506
1757969493549,-0.07203637,0.10622876,0.04816132,0.02642692,-0.00267520,0.01556056,0.99783154,0.00060607,-0.04109597,0.05140987
1757969493559,-0.02931315,-0.09677307,-0.04999603,0.02801569,0.00596337,0.03251710,0.99782392,0.00075316,-0.04106466,0.05158058
1757969493570,0.13948298,-0.22057773,-0.08650107,0.01386447,-0.00248366,0.01959519,0.99781800,0.00082595,-0.04107770,0.05168346
1757969493582,0.10998476,-0.10395334,-0.07001180,0.03234305,0.01268077,0.01681859,0.99781572,0.00102000,-0.04100161,0.05178437
1757969493592,-0.24433873,0.16945274,0.03762866,0.03680613,-0.01427694,0.00129674,0.99781203,0.00121508,-0.04107728,0.05179124
1757969493603,-0.02590281,0.21848432,0.00534362,0.06066167,-0.00830324,-0.01383255,0.99781359,0.00153962,-0.04112170,0.05171724
1757969493616,0.09414162,0.08368613,-0.14030679,0.04142189,-0.01201996,0.00246674,0.99780905,0.00181093,-0.04120043,0.05173340
1757969493626,-0.10940274,0.17280619,0.07621796,0.08675132,-0.01507364,0.01796089,0.99780031,0.00224902,-0.04127656,0.05182410
1757969493637,-0.02008708,-0.12148612,-0.23695208,0.07814581,-0.02700362,0.01501973,0.99778890,0.00267492,-0.04142373,0.05190596
1757969493672,0.13003120,-0.12301550,-0.08496956,0.01414078,-0.00167040,0.00551179,0.99778191,0.00292450,-0.04145321,0.05200324
1757969493704,-0.13947392,0.05119773,0.03911842,0.03366403,-0.02048446,0.03320683,0.99773964,0.00345135,-0.04177379,0.05252293
1757969493714,-0.71013207,1.16224281,-0.21342018,0.17865947,-0.06576592,0.07447482,0.99770002,0.00440717,-0.04212564,0.05292137
1757969493726,0.71745025,-0.37791975,-0.36379230,0.11719077,-0.04034337,-0.00162865,0.99768749,0.00508102,-0.04235761,0.05291200
1757969493749,0.13939746,-0.27469562,0.07222938,0.01317233,-0.01165579,-0.00912712,0.99768656,0.00523382,-0.04249282,0.05280613
1757969493793,0.03619255,-0.10345685,0.00453398,0.00649597,-0.00921471,-0.00040866,0.99767767,0.00537608,-0.04269462,0.05279718
1757969493794,-4.96173796,-17.52449276,-76.74948537,-0.15259494,-0.36370432,0.16680507,0.99765875,0.00525401,-0.04298559,0.05293062
1757969493817,0.38004200,1.37284510,5.42886637,0.00336492,-0.03696986,-0.01256266,0.99764822,0.00529119,-0.04339410,0.05279180
1757969493838,0.05471142,-0.04894732,0.00145875,0.01266466,-0.02760206,0.01056733,0.99762889,0.00542480,-0.04368530,0.05290329
1757969493851,0.01188810,-0.03003301,-0.21280724,0.04727137,-0.03755822,0.00992576,0.99761291,0.00573443,-0.04393131,0.05296830
1757969493863,0.05368629,0.12159187,-0.44443420,0.02960569,-0.03799526,0.01400945,0.99759773,0.00590762,-0.04415358,0.05305026
1757969493881,-0.03065120,-0.01368265,0.33844674,0.00102289,-0.01996526,0.00508343,0.99758675,0.00591729,-0.04434225,0.05309830
1757969493893,0.06531896,0.11369062,-0.22765780,0.02179973,-0.03806184,-0.00010383,0.99757619,0.00604373,-0.04456301,0.05309769
1757969493904,0.10251184,-0.07799223,0.26376202,0.01318233,-0.03218218,0.02462792,0.99756060,0.00611623,-0.04474001,0.05323315
1757969493915,0.02758562,0.17388793,-0.09457927,0.00691819,-0.01954483,-0.00021548,0.99755560,0.00615428,-0.04484751,0.05323196
1757969493917,4.51714539,5.94322346,-15.66469176,0.18075444,-0.13758110,0.02627331,0.99754600,0.00635311,-0.04499885,0.05326086
1757969493928,-0.95243673,-1.42029306,3.04824352,0.02408467,-0.01662154,0.00530007,0.99753958,0.00648316,-0.04508861,0.05328948
1757969493949,-0.09060662,-0.10213043,0.17297127,0.00816259,-0.00939807,-0.01927065,0.99754521,0.00656683,-0.04518494,0.05309196
1757969493960,0.03680741,0.09123995,-0.41133375,0.01233788,-0.01839756,-0.01020223,0.99754308,0.00663716,-0.04528980,0.05303381
1757969493972,-0.14736177,0.15002013,-0.15123116,0.02297695,-0.00547244,0.00405376,0.99753940,0.00677387,-0.04532236,0.05305793
1757969493973,-3.48463341,16.62469492,-45.94785576,0.23458824,0.00069489,0.00145084,0.99753807,0.00696154,-0.04532181,0.05305909
1757969493985,0.44559795,-2.14953251,6.37476661,0.01114473,0.00731316,0.00089138,0.99753928,0.00702674,-0.04527903,0.05306430
1757969494004,0.05850815,-0.12899734,0.28726286,0.00952355,0.00252744,0.01430778,0.99753249,0.00711721,-0.04525502,0.05320023
1757969494005,7.20973031,17.45074013,-41.66199464,0.05138265,0.01423543,0.07434067,0.99753009,0.00715061,-0.04524576,0.05324855
1757969494015,-0.87719443,-2.25875574,5.33918476,-0.00456151,0.01094907,0.00997933,0.99753007,0.00712871,-0.04519321,0.05329645
1757969494028,-0.03739545,-0.03575289,0.02011597,-0.00453130,-0.00026103,0.01051941,0.99752652,0.00709903,-0.04519492,0.05336535
1757969494038,0.18712483,0.02971579,-0.33815549,0.00408708,0.00699056,0.01461625,0.99752412,0.00711886,-0.04516101,0.05343624
1757969494049,-0.02118590,0.04298523,0.07644479,0.00453027,0.00633142,0.00054854,0.99752537,0.00714400,-0.04512587,0.05343928
1757969494060,0.12177469,0.20206120,-0.23016210,0.01991383,-0.00044982,0.01280932,0.99752052,0.00725751,-0.04512844,0.05351230
1757969494071,-0.02464730,0.19541543,-0.03767961,0.02828160,-0.00200380,-0.00060725,0.99751906,0.00741306,-0.04513946,0.05350896
1757969494082,0.08229382,0.10248418,-0.02699953,0.03378122,-0.00675706,0.01160465,0.99751261,0.00759717,-0.04517628,0.05357220
1757969494093,0.04948600,-0.30499646,0.16468218,0.03857714,-0.00676192,0.01471929,0.99750493,0.00780934,-0.04521347,0.05365316
1757969494104,0.01382297,-0.06132215,0.02971938,0.01252245,-0.01270398,0.00086477,0.99750090,0.00787947,-0.04528462,0.05365800
1757969494115,0.10316459,-0.04002378,0.06037873,-0.00245409,0.00083564,0.01181142,0.99749771,0.00786597,-0.04528002,0.05372296
1757969494127,-0.05367389,-0.11816449,0.00000000,-0.00098394,-0.00886861,-0.00979621,0.99749847,0.00786031,-0.04533102,0.05366664
1757969494138,0.07043888,-0.15302171,-0.01174114,0.00878944,-0.01502949,-0.00418643,0.99749547,0.00791041,-0.04541668,0.05364277
1757969494149,0.13978837,0.01093738,-0.10660632,0.00916112,-0.02719974,-0.01148266,0.99749174,0.00795942,-0.04556220,0.05358134
1757969494160,-0.38493309,-0.26175677,-0.12023161,0.01569696,-0.01592164,-0.00831717,0.99748944,0.00804811,-0.04565216,0.05353435
1757969494171,-0.07171041,-0.09015023,-0.11529464,0.02466165,-0.03499367,0.00122092,0.99747915,0.00818375,-0.04584462,0.05354106
1757969494183,0.06891511,0.02351268,0.07011054,0.01187312,-0.01722992,-0.00362588,0.99747508,0.00825321,-0.04594542,0.05351985
1757969494194,0.31148254,0.20550615,-0.01478009,-0.00142635,-0.04396646,-0.00378008,0.99746527,0.00824550,-0.04618284,0.05349944
1757969494205,0.21666983,-0.07563004,0.04496921,0.00307917,-0.01592458,0.00229134,0.99746048,0.00826213,-0.04626883,0.05351181
1757969494216,-0.10385611,-0.08112803,0.02812982,-0.01333780,-0.02720794,0.00587121,0.99745211,0.00818611,-0.04642392,0.05354528
1757969494227,0.04563095,0.02766356,0.10564235,-0.01767152,-0.00653038,-0.00288304,0.99745208,0.00808626,-0.04646081,0.05352899
1757969494239,-0.09149119,0.03500938,-0.09709269,0.01435038,-0.02435315,-0.00127954,0.99744539,0.00816734,-0.04659841,0.05352176
1757969494250,-0.03010472,0.23554630,0.03722847,-0.00137027,-0.02543153,-0.00867465,0.99744143,0.00815974,-0.04673955,0.05347362
1757969494261,-0.02552405,-0.12677025,-0.08144072,0.00664282,-0.01072968,0.00341456,0.99743713,0.00819827,-0.04680179,0.05349342
1757969494272,0.07767751,0.03161822,-0.13852357,0.00080864,-0.01035501,-0.00280328,0.99743539,0.00820239,-0.04685460,0.05347912
1757969494283,-0.12523848,-0.02618995,0.08355443,-0.00310430,-0.00457014,-0.01127565,0.99743771,0.00818501,-0.04688019,0.05341598
1757969494294,-0.01595673,0.02455085,0.07564934,0.01056930,-0.00984410,-0.00284426,0.99743552,0.00824314,-0.04693433,0.05340034
1757969494305,0.03118113,0.21705077,0.04311098,0.01525230,0.01060055,-0.01761790,0.99744262,0.00832550,-0.04687709,0.05330520
1757969494316,-0.09564726,-0.02536322,-0.00464448,0.03107847,0.00236765,-0.00073553,0.99744197,0.00850731,-0.04686324,0.05330090
1757969494327,-0.04151004,0.15778533,-0.17484532,0.06005488,0.01959455,-0.02731343,0.99745198,0.00883160,-0.04675743,0.05315340
1757969494338,0.07502909,0.19256165,0.05633685,0.04235272,0.01511480,-0.00590005,0.99745549,0.00906243,-0.04667505,0.05312125
1757969494350,-0.07599477,-0.11691227,-0.01649003,0.05272010,0.01307318,-0.00536974,0.99745788,0.00937084,-0.04659857,0.05308984
1757969494374,-0.10553568,-0.12525984,0.30429707,0.01493064,0.01089781,-0.00882885,0.99746821,0.00955523,-0.04646399,0.05298080
1757969494382,0.67545767,0.22639909,-2.98170367,0.02926041,0.01070850,-0.00344595,0.99746985,0.00967520,-0.04642008,0.05296667
1757969494385,1.45819129,1.47889300,-4.76837158,-0.04248702,0.03734268,0.04566270,0.99746950,0.00962209,-0.04637340,0.05302375
1757969494393,-0.83136756,-0.64126257,3.01094736,0.06171576,0.01698178,-0.00752401,0.99747193,0.00987821,-0.04630293,0.05299253
1757969494405,-0.09871061,-0.02457625,-0.02817864,0.02573527,0.00630117,0.01871476,0.99746636,0.01002748,-0.04626638,0.05310107
1757969494416,0.09667141,0.04582880,-0.02778894,0.01076337,0.01508636,0.00738242,0.99746747,0.01008775,-0.04618190,0.05314241
1757969494427,0.06563650,0.01982139,-0.03828652,0.02617278,0.00310941,-0.00908469,0.99746947,0.01023301,-0.04616464,0.05309199
1757969494438,0.03702492,0.00235021,-0.05203013,0.03180194,-0.02295369,-0.01717002,0.99746686,0.01040633,-0.04628974,0.05299842
1757969494449,0.04559999,-0.05113297,0.01271044,0.00017782,-0.02391230,-0.02910939,0.99746930,0.01040734,-0.04642484,0.05283395
1757969494460,-0.14158930,-0.11104007,-0.17772804,0.00328607,-0.00725487,0.00382689,0.99746616,0.01042524,-0.04646438,0.05285480
1757969494472,-0.04825754,-0.05139188,0.05105622,-0.01927271,-0.02078379,0.00569960,0.99746016,0.01031732,-0.04658077,0.05288672
1757969494482,-0.01581599,-0.58528841,-0.30231588,-0.02861780,-0.01123706,0.00390368,0.99745775,0.01015992,-0.04664257,0.05290819
1757969494494,-0.01229173,0.43578278,0.58148075,-0.02815089,-0.01460699,0.00984704,0.99745245,0.00999805,-0.04672656,0.05296481
1757969494505,0.32445374,0.20909794,-0.08816098,-0.03234306,0.00647486,0.00396496,0.99745469,0.00982340,-0.04669160,0.05298622
1757969494516,-0.18060160,-0.33796553,-0.05095982,-0.00749212,-0.01683683,-0.00231772,0.99745131,0.00978069,-0.04678757,0.05297301
1757969494527,0.06894920,0.08807063,0.12801941,-0.02121445,-0.01091309,-0.00419879,0.99745085,0.00966295,-0.04684814,0.05294971
1757969494539,-0.06943396,0.08933522,-0.05064998,-0.01414061,-0.01956191,-0.00989181,0.99744941,0.00958377,-0.04695768,0.05289431
1757969494550,0.03036529,0.05238277,0.03314497,-0.00941725,-0.00751671,-0.00712168,0.99745003,0.00953197,-0.04699903,0.05285515
1757969494561,-0.05608291,-0.23708780,-0.30937263,-0.01393408,0.00092447,0.00150322,0.99745058,0.00945324,-0.04699380,0.05286364
1757969494572,-0.02908522,-0.11210364,-0.09991505,-0.02193364,-0.01484437,0.00667990,0.99744592,0.00933261,-0.04707545,0.05290038
1757969494585,-0.04667075,-0.03334681,0.28851740,-0.01290407,-0.00841953,-0.00443245,0.99744565,0.00925067,-0.04712891,0.05287223
1757969494594,0.27596022,0.13168017,-0.07298550,-0.03514187,-0.01068633,-0.01112231,0.99744762,0.00908023,-0.04718074,0.05281829
1757969494606,-0.05308636,0.01005404,0.42212202,-0.01606105,0.00414624,-0.01521633,0.99745444,0.00898467,-0.04715607,0.05272775
1757969494617,0.01895391,-0.10116173,-0.19513624,-0.02419172,-0.01316819,0.00189934,0.99745178,0.00885766,-0.04722520,0.05273772
1757969494628,-0.01419158,0.08863403,0.13329950,-0.02360394,-0.00251642,-0.01785554,0.99745756,0.00872548,-0.04723929,0.05263773
1757969494640,-0.01556078,0.02367012,0.09050423,-0.00030487,-0.00998430,-0.00179380,0.99745527,0.00872362,-0.04730020,0.05262679
1757969494650,0.29510162,0.00103186,-0.22647055,-0.01964317,-0.00071059,-0.00806979,0.99745805,0.00862639,-0.04730372,0.05258684
1757969494662,-0.33411179,0.40121953,0.09215207,-0.02311374,-0.02971619,-0.05125082,0.99746679,0.00849001,-0.04747904,0.05228446
1757969494672,0.12125074,0.08343666,-0.17544362,-0.03573871,-0.02115256,-0.03025716,0.99747130,0.00830596,-0.04758798,0.05212864
1757969494683,-0.02287961,0.08801286,0.13241863,-0.02373403,-0.01858560,-0.01561394,0.99747198,0.00817542,-0.04769020,0.05204276
1757969494695,0.09177494,-0.29993401,0.37417701,-0.01360547,-0.00598725,-0.00368214,0.99747209,0.00809175,-0.04772702,0.05202012
1757969494708,-0.06583070,0.06399647,0.00695874,0.00179044,-0.00416658,0.00835095,0.99746806,0.00810285,-0.04775285,0.05207189
1757969494717,0.05991842,0.23785862,-0.22415165,-0.01494036,-0.00942650,-0.00111685,0.99746675,0.00803114,-0.04779810,0.05206653
1757969494730,-0.10376025,-0.07366913,0.31619096,0.01064899,0.00815920,0.00967417,0.99746551,0.00809716,-0.04774751,0.05212651
1757969494739,-0.03801231,0.16500516,-0.15488662,0.00008884,0.00326286,0.00553580,0.99746486,0.00809759,-0.04773185,0.05215309
1757969494750,-0.13364556,-0.05597394,0.16120663,0.00298874,0.00534136,0.00309145,0.99746524,0.00811387,-0.04770274,0.05216993
1757969494762,-0.18116637,-0.25540267,0.09903223,0.01769614,0.02283911,0.00975850,0.99746772,0.00821474,-0.04757256,0.05222556
1757969494773,-0.21529229,-0.07331968,0.05814413,0.00895271,0.02738977,-0.00240662,0.99747518,0.00826398,-0.04742191,0.05221232
1757969494784,-0.00622781,0.02988939,0.09423659,0.00152763,0.03207024,0.01006567,0.99748083,0.00827277,-0.04723751,0.05227020
1757969494795,0.16749144,0.18415596,0.04334518,0.02724066,0.05136625,0.00389523,0.99749169,0.00842123,-0.04695756,0.05229143
1757969494807,0.10316130,0.05973376,0.04341235,0.03802792,0.04099933,0.00378425,0.99750010,0.00864940,-0.04671157,0.05231413
1757969494817,-0.01857894,0.35804749,-0.05266567,0.03769179,0.02820413,-0.00400634,0.99750603,0.00883597,-0.04657196,0.05229430
1757969494828,0.03938731,-0.06671104,0.15599264,0.03831626,0.03014604,0.00709837,0.99750996,0.00905437,-0.04640012,0.05233476
1757969494839,-0.00745479,-0.03422868,-0.05474477,0.02696450,0.04171285,-0.01411433,0.99752320,0.00920133,-0.04617279,0.05225784
1757969494850,0.05906685,-0.05621971,0.10582321,0.02500672,0.02987398,0.01017494,0.99752658,0.00933887,-0.04600848,0.05231380
1757969494862,-0.08919698,-0.23772205,-0.22698727,0.04640891,0.02940300,-0.01076615,0.99753507,0.00960572,-0.04583942,0.05225190
1757969494873,-0.02398750,0.05739865,-0.00702491,0.02561822,0.01790274,0.00094592,0.99753795,0.00974662,-0.04574095,0.05225710
1757969494884,0.04365531,0.14878015,-0.00872012,0.02668392,0.02408430,-0.00023636,0.99754260,0.00989204,-0.04560969,0.05225581
1757969494895,0.11839619,0.07132056,0.28827324,0.03551932,0.02989296,-0.00621352,0.99755033,0.01009806,-0.04543631,0.05221977
1757969494906,0.01292184,0.13119468,-0.00395256,0.01519389,0.01514520,-0.00202221,0.99755366,0.01017707,-0.04535756,0.05220926
1757969494917,-0.00544275,-0.09775179,-0.00174168,0.03276211,0.01691560,-0.00619944,0.99755808,0.01036872,-0.04525860,0.05217299
1757969494929,0.05946259,-0.08414340,0.01947508,0.02693031,0.00797027,0.00533533,0.99755692,0.01052492,-0.04521237,0.05220393
1757969494940,0.01081939,-0.02082822,-0.04355952,0.01555116,-0.00234890,-0.00493326,0.99755685,0.01060890,-0.04522506,0.05217730
1757969494951,0.05852822,0.00933204,0.13048436,-0.02249473,0.02147017,-0.01057070,0.99756655,0.01048517,-0.04510697,0.05211916
1757969494962,-0.11222464,0.01109905,-0.15036668,0.02187553,0.01209318,-0.00806002,0.99757074,0.01060986,-0.04503804,0.05207321
1757969494974,-0.04801106,0.11384046,-0.09153097,0.04595990,0.00473591,-0.00833809,0.99757163,0.01087413,-0.04501081,0.05202527
1757969494984,0.06004005,0.32650389,0.00984394,0.05560808,0.01764806,-0.00678342,0.99757436,0.01115774,-0.04492080,0.05199067
1757969494995,0.05635141,-0.14296304,0.06163218,0.07490647,0.02329449,-0.00767459,0.99757780,0.01159219,-0.04478570,0.05194616
1757969495017,-0.04030830,-0.05468289,-0.00883283,0.03218212,0.00662556,-0.00917264,0.99758214,0.01194620,-0.04471281,0.05184526
1757969495029,0.04093146,-0.23592950,-0.09366298,0.02479207,0.02820040,-0.00065262,0.99758787,0.01208875,-0.04455066,0.05184151
1757969495039,-0.00259726,-0.32498294,0.03864258,0.00709663,0.01597309,-0.01627186,0.99759552,0.01212565,-0.04446760,0.05175690
1757969495051,-0.02932709,-0.15850275,0.05457873,-0.01129879,0.00380422,-0.00376924,0.99759836,0.01206182,-0.04444611,0.05173560
1757969495062,-0.06426373,0.14432821,0.11843558,-0.01531023,0.00570566,-0.00491518,0.99760245,0.01197148,-0.04441244,0.05170660
1757969495074,0.05992998,0.00299650,-0.12670910,0.01775811,-0.00148757,-0.00210134,0.99760144,0.01207626,-0.04442122,0.05169420
1757969495085,0.06874470,0.34452677,-0.12486130,0.02124174,-0.00745079,0.00683902,0.99759653,0.01218671,-0.04445997,0.05172977
1757969495095,0.14811537,0.11375952,-0.06116442,0.03006718,-0.00972557,0.00059443,0.99759202,0.01234908,-0.04451248,0.05173298
1757969495107,0.05676172,-0.08295220,-0.00215007,0.04288643,-0.00941171,-0.00713331,0.99758877,0.01258710,-0.04456472,0.05169339
1757969495118,-0.07972871,-0.22741027,-0.07536544,0.02888600,-0.01710935,-0.02348971,0.99758924,0.01275175,-0.04466224,0.05155949
1757969495129,0.02447514,-0.16748301,0.08109475,-0.02376732,0.00101636,-0.02992726,0.99759984,0.01261865,-0.04465655,0.05139190
1757969495140,0.03991382,-0.14635069,0.04181448,-0.01345488,-0.00452665,-0.01592999,0.99760424,0.01254330,-0.04468190,0.05130269
1757969495152,-0.05726982,-0.01164201,0.03858757,-0.06137168,0.00520110,-0.02197684,0.99761676,0.01218121,-0.04465121,0.05117303
1757969495164,0.19691279,-0.22174092,-0.08218969,-0.02155562,0.00270018,-0.01671236,0.99762407,0.01205403,-0.04463528,0.05107443
1757969495175,0.05175963,0.06411057,-0.04302909,-0.00386172,-0.00694898,-0.01568415,0.99762698,0.01203318,-0.04467281,0.05098973
1757969495187,0.04851474,0.15878274,0.06335455,0.00233317,0.00016554,-0.01153021,0.99763033,0.01204694,-0.04467183,0.05092171
1757969495196,-0.08458419,0.29918850,-0.04267348,0.00860720,-0.02046237,-0.00437973,0.99762638,0.01208955,-0.04477312,0.05090003
1757969495207,-0.04008065,0.05456434,0.12847242,-0.00406775,-0.01767622,-0.01391775,0.99762619,0.01206799,-0.04486680,0.05082626
1757969495218,-0.14970374,-0.11353744,-0.07459187,-0.00402773,-0.01988135,-0.01232441,0.99762497,0.01204544,-0.04497814,0.05075724
1757969495230,0.03240993,-0.05343976,0.13778443,-0.01999679,-0.00456593,0.00563424,0.99762352,0.01193045,-0.04500439,0.05078964
1757969495241,-0.10212880,-0.07988284,-0.02105748,-0.01678819,-0.01034047,0.01111753,0.99761877,0.01183476,-0.04506333,0.05085301
1757969495252,0.03726472,0.07501351,0.06444604,-0.01734547,0.00117080,0.00916537,0.99761765,0.01174196,-0.04505707,0.05090205
1757969495262,0.04882392,0.20457658,-0.42712005,-0.00595442,-0.01142917,0.01669310,0.99761076,0.01171040,-0.04511764,0.05099052
1757969495274,-0.00327196,0.07884462,0.07315841,0.00347568,0.00130144,0.00076213,0.99761064,0.01173109,-0.04510990,0.05099505
1757969495286,0.02769428,0.03436101,-0.03627057,0.00368773,0.00154788,-0.00026586,0.99761087,0.01175247,-0.04510092,0.05099351
1757969495297,-0.14856580,-0.16707814,0.13738917,0.01520312,-0.01018947,0.00818255,0.99760499,0.01183685,-0.04515747,0.05103893
1757969495308,0.01265500,0.16245857,0.07882257,0.00792875,0.00278389,0.00979454,0.99760243,0.01188006,-0.04514230,0.05109231
1757969495318,-0.01494799,0.00269106,-0.16957877,0.04808191,0.00268184,0.02429223,0.99759375,0.01212528,-0.04512862,0.05121620
1757969495331,-0.09190914,-0.00213759,0.13324072,0.06679622,0.00721124,0.01729413,0.99758493,0.01254944,-0.04508283,0.05132601
1757969495369,-0.07380983,-0.02445036,0.08829733,0.00152390,0.00006105,-0.00324378,0.99758778,0.01257831,-0.04508168,0.05126454
1757969495386,0.47837584,0.10169052,-0.56530711,0.01687565,-0.00199234,-0.00932597,0.99758927,0.01272260,-0.04509871,0.05118481
1757969495397,-0.27176750,-0.15778076,0.24638089,-0.00919428,0.00293337,0.01323313,0.99758680,0.01266973,-0.04508184,0.05126090
1757969495408,0.05717014,0.25058425,-0.15588161,0.02701934,0.00656564,0.01500412,0.99758266,0.01280618,-0.04504869,0.05133667
1757969495419,-0.22622302,-0.02913058,0.18608817,0.02845392,-0.00568338,0.00829304,0.99757672,0.01296695,-0.04508080,0.05138352
1757969495431,-0.00715869,-0.11076119,0.14946771,0.02206397,-0.00346101,0.00994051,0.99757088,0.01310154,-0.04510191,0.05144416
1757969495442,-0.02953330,-0.06693865,0.00745851,0.01817645,-0.00673344,-0.00162879,0.99756826,0.01320514,-0.04514029,0.05143488
1757969495455,-0.18338551,-0.22364365,0.02222855,0.00744138,-0.01068412,0.00397619,0.99756342,0.01325091,-0.04520600,0.05145933
1757969495475,-0.06387082,-0.04313709,0.11485952,-0.00424809,-0.00450873,0.00533124,0.99755916,0.01320821,-0.04525131,0.05151291
1757969495485,0.17785976,-0.37899089,-0.30669149,-0.00703985,0.00330644,0.01818532,0.99755550,0.01317125,-0.04523395,0.05160838
1757969495496,0.01374810,0.40544210,0.00963000,-0.02128747,-0.01011840,-0.00089046,0.99755476,0.01305204,-0.04529062,0.05160340
1757969495509,0.05866229,-0.06875221,-0.00375439,0.00740956,-0.00452330,0.00153475,0.99755235,0.01309872,-0.04531911,0.05161306
1757969495519,0.09074889,-0.04371945,-0.15281120,0.00055204,-0.00639196,0.00092030,0.99755066,0.01310143,-0.04535043,0.05161757
1757969495530,-0.16396555,0.10610009,0.03136557,-0.01067775,-0.01405490,-0.01263574,0.99755150,0.01304270,-0.04542773,0.05154808
1757969495541,0.12986882,-0.06410322,0.06420877,-0.01134918,-0.00326033,-0.00395673,0.99755264,0.01297971,-0.04544583,0.05152612
1757969495552,-0.04291120,0.04031651,0.02570299,-0.03684517,-0.00876170,-0.00245962,0.99755378,0.01277154,-0.04549533,0.05151222
1757969495563,0.19268390,-0.20407163,0.00092472,-0.05031809,-0.01899358,0.00351323,0.99755150,0.01249227,-0.04560075,0.05153172
1757969495575,0.13565780,0.06887013,0.09589261,-0.05013796,-0.01428445,0.00659845,0.99754937,0.01220649,-0.04568217,0.05156933
1757969495586,-0.03205304,0.02315124,-0.06030622,-0.01788174,-0.01415200,0.00359672,0.99754589,0.01210546,-0.04576213,0.05158965
1757969495597,-0.18509500,0.20914026,-0.00018778,-0.01536510,-0.02164592,0.00757977,0.99753952,0.01202402,-0.04587685,0.05162982
1757969495608,-0.14568725,0.15845394,0.05988867,0.01335969,-0.00799024,0.00004599,0.99753655,0.01209883,-0.04592160,0.05163008
1757969495619,-0.04223438,0.10726618,0.01489304,-0.00001576,-0.01750020,0.01390111,0.99752807,0.01209875,-0.04601872,0.05170723
1757969495630,-0.05412595,0.10561496,0.04986232,0.01629559,-0.00805838,0.01414987,0.99752077,0.01219000,-0.04606385,0.05178647
1757969495642,-0.03017185,0.02090081,0.04036018,0.00809302,-0.00781524,0.00763747,0.99751589,0.01223613,-0.04610840,0.05183001
1757969495652,-0.03897626,0.06732433,0.04571428,0.00476829,-0.01081073,0.00887502,0.99751048,0.01226140,-0.04616569,0.05187704
1757969495665,0.00185778,-0.07078585,0.08197643,0.01227223,0.00143205,0.00425748,0.99750858,0.01233749,-0.04615681,0.05190344
1757969495675,-0.09219720,0.01886730,-0.08199076,0.01747546,-0.00454335,0.00348837,0.99750551,0.01242574,-0.04617976,0.05192106
1757969495686,-0.09650075,-0.10869037,0.03948100,0.02192894,-0.00623834,0.00299998,0.99750148,0.01254855,-0.04621469,0.05193786
1757969495697,0.02916410,0.07503967,0.00127852,0.02600970,0.00267236,0.00222830,0.99749969,0.01269290,-0.04619986,0.05195022
1757969495708,-0.00989712,0.14658185,0.03674606,0.04303360,0.01906605,0.00077704,0.99750131,0.01293389,-0.04609309,0.05195458
1757969495719,-0.05622404,0.06160814,-0.01501458,0.04525042,0.01776073,-0.00304066,0.99750341,0.01318050,-0.04599630,0.05193800
1757969495730,-0.08423665,-0.08615949,-0.12525437,0.07076140,0.00758114,0.01096026,0.99749680,0.01358030,-0.04595346,0.05199993
1757969495741,-0.05404316,0.00494801,-0.05254091,0.04691289,0.00956804,-0.00083193,0.99749595,0.01382894,-0.04590275,0.05199552
1757969495754,0.02202951,-0.19348948,0.09895386,0.02202129,0.01216994,0.00012082,0.99749761,0.01397759,-0.04582060,0.05199634
1757969495765,-0.15841076,-0.00007791,-0.04411264,-0.01769139,0.03267615,0.01814864,0.99750164,0.01388824,-0.04565559,0.05208799
1757969495775,-0.16728099,-0.17806147,-0.02389728,-0.00067175,0.00912624,0.02682457,0.99749662,0.01388479,-0.04560859,0.05222613
1757969495786,0.05050415,0.03086264,-0.00398812,0.02550801,0.03311359,0.00348722,0.99750211,0.01402891,-0.04542150,0.05224584
1757969495797,0.04294485,0.14563904,-0.06348368,0.01381315,0.02439813,0.02356519,0.99750029,0.01410695,-0.04528365,0.05237898
1757969495809,-0.06401059,0.15024688,-0.08982753,0.02912562,0.01835116,0.00648287,0.99750074,0.01427733,-0.04517629,0.05241690
1757969495820,0.05295418,-0.01340489,-0.07474580,0.05256490,0.03890487,0.00168944,0.99750552,0.01455330,-0.04497204,0.05242577
1757969495824,-1.70826771,0.54279869,-2.45619927,0.05140028,0.04714605,-0.04183933,0.99751336,0.01466638,-0.04486832,0.05233373
1757969495855,0.34884149,-0.15607389,0.49863221,-0.01354598,0.00752543,-0.00559334,0.99752613,0.01445777,-0.04475243,0.05224759
1757969495876,-0.16075696,0.04009467,-0.20390113,-0.00050342,0.02111642,0.00417068,0.99753405,0.01445234,-0.04452437,0.05229263
1757969495917,0.05999925,0.02153080,0.05720942,0.01345604,0.00587786,0.00948503,0.99752540,0.01472146,-0.04440682,0.05248233
1757969495933,-0.76943112,0.05479964,-0.55182963,0.01839909,0.02162561,0.02056302,0.99752201,0.01487877,-0.04422192,0.05265815
1757969495944,-0.21130070,-0.87878063,0.14155722,-0.05329547,0.05601661,0.07193227,0.99751908,0.01459364,-0.04392223,0.05304298
1757969495964,0.51831606,0.26524326,0.36504602,0.00035186,0.03334589,0.02398984,0.99752086,0.01459714,-0.04359044,0.05328168
1757969495987,0.12856634,0.11772980,0.08204946,0.02809502,0.02179389,0.00379821,0.99752466,0.01492023,-0.04333981,0.05332536
1757969495997,-0.96673029,0.34175688,-0.61592305,0.07712603,0.03264069,-0.00011201,0.99752596,0.01531743,-0.04317171,0.05332479
1757969496009,0.49781780,-0.17800284,0.37670272,-0.00484663,0.02648653,0.02412557,0.99752553,0.01528884,-0.04301544,0.05346713
1757969496021,0.07538771,-0.16352402,-0.01200233,0.01165297,0.02146945,0.00141690,0.99752935,0.01535526,-0.04289306,0.05347520
1757969496033,0.02745391,-0.15547541,-0.01932556,0.00568678,0.01924805,0.01155613,0.99753008,0.01539023,-0.04277469,0.05354627
1757969496053,0.13968310,-0.03978869,0.10753775,-0.00278581,0.00423479,-0.00720910,0.99753632,0.01536182,-0.04273149,0.05347274
1757969496065,-0.41438297,-0.11315384,-0.02469321,0.00034144,0.01811250,-0.00351955,0.99754202,0.01536385,-0.04262372,0.05345180
1757969496075,-0.36652349,0.10266524,-0.14405291,-0.00735964,0.01486229,-0.00245257,0.99754641,0.01532705,-0.04254941,0.05343954
1757969496086,0.08765836,0.06815761,0.04789659,-0.00111114,0.00839751,0.02144149,0.99754207,0.01532083,-0.04250238,0.05355961
1757969496097,0.17549854,0.15036973,-0.05142224,-0.00203200,0.01566810,0.02600047,0.99753826,0.01530975,-0.04241699,0.05370131
1757969496102,-3.94605988,0.49835908,-2.67258401,0.01543336,0.00480696,0.09017223,0.99752773,0.01534293,-0.04240666,0.05389518
1757969496123,1.07718370,-0.13351587,0.64647650,0.00167507,0.00830632,0.01335094,0.99752360,0.01536044,-0.04231986,0.05403470
1757969496131,-1.05824715,-0.35110481,-0.62555111,-0.00020334,-0.00132525,0.03890449,0.99751473,0.01535961,-0.04232529,0.05419421
1757969496143,0.36264203,0.07778715,0.31810293,-0.02259435,-0.00142414,0.00884724,0.99751354,0.01522178,-0.04233398,0.05424818
1757969496154,-1.02521088,-0.31238020,-0.40271235,-0.03297799,0.00854480,0.06190869,0.99749996,0.01504370,-0.04228784,0.05458248
1757969496165,0.66559432,0.32100212,0.21521163,0.00221797,-0.00063281,0.03121140,0.99749022,0.01505590,-0.04229132,0.05475415
1757969496177,-0.02548494,0.17399785,0.09249488,0.01650876,0.01968627,0.03340451,0.99748264,0.01515578,-0.04217221,0.05495624
1757969496186,-0.36686583,0.17134306,-0.12645502,0.01686287,0.02219843,0.04601897,0.99747381,0.01523587,-0.04206677,0.05517483
1757969496198,0.43874142,-0.03527295,0.20380981,0.04039148,0.01249384,0.01093527,0.99746978,0.01546813,-0.04199493,0.05523771
1757969496209,-0.07287016,0.14252521,0.13240872,0.00818280,0.02997372,0.01586907,0.99747116,0.01551272,-0.04183158,0.05532420
1757969496220,0.00236512,-0.12292030,0.02953924,0.01443516,0.02345923,0.01996612,0.99746914,0.01559572,-0.04169668,0.05543900
1757969496231,-0.15801623,0.01580511,0.04107672,0.01081947,0.03239140,0.01875997,0.99746989,0.01565469,-0.04152015,0.05554124
1757969496242,-0.03081159,0.06028923,0.09541653,0.02269653,0.03309824,0.02018793,0.99746928,0.01578179,-0.04133480,0.05565430
1757969496253,-0.04725445,0.21363022,0.04222289,0.05361371,0.03664059,0.01005356,0.99746982,0.01607667,-0.04113328,0.05570959
1757969496265,-0.02823666,0.30652096,0.09013325,0.07524493,0.04399536,0.03807113,0.99746106,0.01650180,-0.04088470,0.05592469
1757969496276,-0.13702401,0.20887898,-0.00316216,0.07146862,0.03226387,0.02864123,0.99745274,0.01690202,-0.04070403,0.05608508
1757969496287,0.04276481,-0.16250629,-0.09883423,0.08373368,0.05726007,0.03858312,0.99744554,0.01737093,-0.04038337,0.05630115
1757969496298,-0.14030978,-0.18148289,-0.05431346,0.06552333,0.06444546,0.02977914,0.99744426,0.01772476,-0.04003536,0.05646196
1757969496309,0.01472739,-0.12982014,0.03363348,0.04784713,0.06934076,0.03673758,0.99744329,0.01799749,-0.03964012,0.05667136
1757969496320,-0.13245242,-0.04190791,-0.03439591,0.09258302,0.08427635,0.04581215,0.99743798,0.01850206,-0.03918082,0.05692104
1757969496331,-0.03393448,0.30075096,-0.01205950,0.10266258,0.09891436,0.02975470,0.99743924,0.01908211,-0.03862195,0.05708915
1757969496342,-0.59329137,1.21912925,-0.22724135,0.17368136,0.11806291,0.02343126,0.99743806,0.02003736,-0.03797260,0.05721802
1757969496354,0.34031844,-0.91529254,0.20349869,0.13950748,0.12877889,0.02956181,0.99743982,0.02087440,-0.03719993,0.05739539
1757969496365,-0.45818536,-0.48143253,0.05838822,0.15784291,0.15849405,0.01971696,0.99744686,0.02170308,-0.03636784,0.05749891
1757969496375,0.09847715,-0.20700309,0.14049111,0.10620801,0.17128750,0.01932365,0.99746123,0.02226598,-0.03546001,0.05760132
1757969496387,0.19365510,0.13458175,0.05126454,0.07030237,0.15565382,0.00294017,0.99748292,0.02267725,-0.03454944,0.05761852
1757969496399,0.00512283,-0.03214003,-0.04938643,0.06836890,0.15456746,0.01200323,0.99750090,0.02308404,-0.03362976,0.05768994
1757969496409,-0.63654028,0.93297909,-0.06746538,0.08175160,0.18783205,-0.02780943,0.99753002,0.02348462,-0.03270939,0.05755368
1757969496420,0.80135768,-0.14104733,0.01093626,0.09375499,0.16025611,0.00411555,0.99754535,0.02401434,-0.03180394,0.05757693
1757969496431,-0.13095190,-0.17116624,-0.37971432,0.14303347,0.14301731,0.02987417,0.99754141,0.02479387,-0.03102449,0.05773974
1757969496443,0.18654710,-0.30667226,0.27266740,0.12094898,0.11709187,0.01788365,0.99753864,0.02548933,-0.03035122,0.05784257
1757969496454,-0.04949149,0.05391672,0.26860434,0.07594163,0.12555834,0.01497549,0.99754396,0.02591460,-0.02964809,0.05792644
1757969496465,-0.19766846,-0.04941712,-0.32691323,0.05137188,0.08654634,0.04226702,0.99753696,0.02620229,-0.02916343,0.05816313
1757969496476,0.44444402,-0.12254887,0.49867029,0.02119332,0.11515609,0.03762165,0.99754009,0.02631779,-0.02853583,0.05836817
1757969496487,0.08402226,-0.49604857,-0.28330396,0.03504717,0.07454612,0.02254005,0.99753937,0.02651055,-0.02812583,0.05849214
1757969496499,0.26522550,0.29843070,-0.24275346,0.03322484,0.04561454,0.01805363,0.99753521,0.02671820,-0.02784073,0.05860498
1757969496511,-0.70454712,0.43706009,0.17570333,0.01213674,0.04776122,0.03275177,0.99753007,0.02678556,-0.02757566,0.05878675
1757969496521,0.86186683,-0.44157767,-0.26864826,0.05858166,0.01408803,0.03024071,0.99751458,0.02709019,-0.02750240,0.05894400
1757969496532,0.31789251,-0.07060273,-0.05109988,0.04678144,-0.01514399,0.00331206,0.99750447,0.02734047,-0.02758342,0.05896172
1757969496543,0.06114536,-0.10392007,0.05657342,0.00600782,-0.01462675,-0.00275565,0.99750217,0.02737441,-0.02766606,0.05894615
1757969496554,0.20445481,-0.11996549,-0.05601502,-0.03400995,-0.02646865,0.01913474,0.99749687,0.02718226,-0.02781561,0.05905426
1757969496565,0.09018072,-0.44503866,-0.16302005,-0.00646579,-0.04080154,0.01559791,0.99748676,0.02714766,-0.02803390,0.05913771
1757969496576,-0.07415615,0.08313518,0.05891982,0.00003730,-0.00828126,0.01144508,0.99748169,0.02714787,-0.02807986,0.05920123
1757969496588,0.09655467,-0.07632204,-0.04083069,-0.01231937,-0.03107509,0.01340852,0.99747399,0.02707703,-0.02825854,0.05927833
1757969496598,-0.07994760,0.27066743,0.12020207,-0.02034435,-0.03988628,0.02796595,0.99746197,0.02696819,-0.02847193,0.05942795
1757969496624,0.13975442,0.00366667,0.06863861,0.00548651,-0.01277359,-0.00562819,0.99745972,0.02703732,-0.02863288,0.05935703
1757969496633,-0.59598563,-0.05082385,-0.27679449,-0.06068267,-0.04330374,-0.01996668,0.99746751,0.02673694,-0.02884723,0.05925820
1757969496643,-0.08820371,-0.06685177,-0.11895903,-0.03173687,-0.03957469,-0.00304042,0.99746693,0.02658143,-0.02904115,0.05924330
1757969496654,0.32935496,0.00758299,0.23549170,-0.00675860,-0.00949155,0.00047136,0.99746622,0.02654325,-0.02909478,0.05924596
1757969496665,0.07291357,-0.20394527,0.01600733,-0.01671957,0.00688275,0.02155365,0.99746272,0.02645129,-0.02905692,0.05936451
1757969496678,0.02827316,-0.04228438,0.10690363,-0.02723779,-0.00231045,0.01837055,0.99746000,0.02628378,-0.02907113,0.05947749
1757969496687,-0.25629212,-0.05816702,-0.03640989,-0.01057316,-0.01687005,-0.00390891,0.99746010,0.02623197,-0.02915379,0.05945833
1757969496699,0.16409894,0.14320750,0.07165991,-0.01584257,-0.00141435,0.01174260,0.99745824,0.02614167,-0.02916186,0.05952526
1757969496710,-0.06497140,0.14772826,-0.03525982,-0.03291408,-0.01673966,0.01231630,0.99745623,0.02596064,-0.02925392,0.05959300
1757969496721,0.01521460,0.08187424,-0.04943832,-0.01041139,0.00203017,0.01463446,0.99745326,0.02590390,-0.02924286,0.05967276
1757969496732,0.00044602,0.10526382,-0.07280990,0.00888452,-0.00982957,0.01160664,0.99744634,0.02595454,-0.02929889,0.05973892
1757969496744,0.03944290,-0.01696962,-0.01834554,0.02853835,0.00017551,0.01153199,0.99743818,0.02611721,-0.02929789,0.05980465
1757969496754,-0.05610393,-0.16182999,0.09445686,0.01533861,0.00431535,-0.02091725,0.99744346,0.02620003,-0.02927459,0.05969170
1757969496766,0.06966208,-0.32825769,0.16735205,0.00522982,0.00070450,-0.00909551,0.99744590,0.02622984,-0.02927057,0.05963985
1757969496777,-0.02820785,0.09591016,-0.02025711,0.00272617,-0.00262253,-0.00397808,0.99744639,0.02624484,-0.02928499,0.05961798
1757969496788,0.02263172,0.22666743,-0.03182117,0.00337370,0.00720743,-0.00493236,0.99744877,0.02626407,-0.02924391,0.05958986
1757969496799,-0.04415076,0.35608185,-0.12418798,0.00717408,0.00912796,0.00415275,0.99744787,0.02630209,-0.02919553,0.05961187
1757969496810,0.06581894,0.00279510,-0.00193840,0.00796195,0.01120337,0.00980722,0.99744519,0.02634747,-0.02913167,0.05966777
1757969496821,0.05439918,-0.07462077,-0.06693036,0.02835614,0.00485325,0.01293769,0.99743779,0.02649918,-0.02910571,0.05973699
1757969496832,0.07733164,0.05273703,0.13571951,0.01864195,-0.00047025,0.01709221,0.99742889,0.02660730,-0.02910844,0.05983612
1757969496844,0.03064730,0.02056701,-0.01410033,0.07445887,-0.01952134,0.01537487,0.99740914,0.02702800,-0.02921873,0.05992299
1757969496855,0.05195156,0.12300960,0.02264741,0.05850180,-0.03072877,0.01244171,0.99739161,0.02734391,-0.02938467,0.05999018
1757969496866,0.15637021,-0.02350663,-0.11446708,0.05111315,-0.02016358,0.01463646,0.99737604,0.02761992,-0.02949355,0.06006921
1757969496877,0.06293897,0.01044531,0.01983066,0.03747462,-0.02353069,0.01248419,0.99736171,0.02783540,-0.02962885,0.06014100
1757969496888,0.02868341,-0.06925834,-0.00135525,0.03953286,-0.02288114,0.02283644,0.99734397,0.02805678,-0.02975699,0.06026888
1757969496900,0.04984416,-0.01829640,0.04370169,0.02489770,-0.02372162,-0.00864329,0.99733890,0.02819870,-0.02989220,0.06021961
1757969496910,0.04961322,-0.05014753,-0.08936226,0.03413512,-0.02972292,-0.01886674,0.99733503,0.02838132,-0.03005122,0.06011868
1757969496922,0.07543101,0.06357928,0.00682385,0.02768072,-0.05336465,-0.01345185,0.99732594,0.02853910,-0.03035540,0.06004200
1757969496933,0.19853341,0.12795930,0.05347737,0.02589426,-0.02352751,-0.01696188,0.99732354,0.02868022,-0.03048362,0.05994956
1757969496944,-0.00728772,-0.01961205,-0.16854330,0.05810729,-0.04898652,0.00142268,0.99730490,0.02901143,-0.03076284,0.05995767
1757969496956,0.05208122,-0.01084549,-0.03351140,0.01735808,-0.03267796,-0.00470602,0.99729743,0.02911645,-0.03096055,0.05992920
1757969496967,0.06771016,-0.07993561,-0.33461000,0.00477001,-0.03776833,-0.01523856,0.99729523,0.02914269,-0.03116827,0.05984539
1757969496977,0.05570325,-0.25640834,-0.13221394,-0.00990795,-0.02338422,-0.00310798,0.99729395,0.02909315,-0.03128519,0.05982985
1757969496989,-0.17484726,-0.07073833,0.20952411,-0.02298979,-0.01626234,-0.01877605,0.99730146,0.02895866,-0.03138033,0.05972001
1757969496999,-0.06804643,-0.23664360,0.05604037,0.00450785,-0.01925472,-0.02367620,0.99730505,0.02898255,-0.03148238,0.05959452
1757969497011,0.02174999,-0.02218929,0.05271637,-0.01136388,-0.02274414,-0.02458709,0.99731109,0.02891891,-0.03160974,0.05945683
1757969497022,0.04181448,-0.03658767,0.04561580,-0.02035707,-0.03722398,-0.01086590,0.99731138,0.02880491,-0.03181820,0.05939599
1757969497033,0.12443982,-0.04079173,-0.04675240,-0.00957147,-0.01249532,-0.00053260,0.99731088,0.02875179,-0.03188755,0.05939303
1757969497044,-0.09576921,-0.01991839,-0.06770453,-0.03242255,-0.02591411,-0.00773975,0.99731403,0.02857022,-0.03203267,0.05934969
1757969497055,0.01692120,0.06416303,-0.12193269,-0.03221945,-0.00419683,0.00615441,0.99731639,0.02838818,-0.03205638,0.05938446
1757969497066,-0.12895667,0.20456865,-0.34250111,-0.03516620,-0.02501348,-0.01616534,0.99732274,0.02819477,-0.03219395,0.05929555
1757969497079,0.01081100,0.07608353,0.18111959,-0.04108905,-0.01629124,-0.01200187,0.99733126,0.02793385,-0.03229740,0.05921934
1757969497089,0.24534019,-0.16706514,-0.15446999,-0.03096123,-0.01975811,-0.01888706,0.99733765,0.02778679,-0.03239125,0.05912962
1757969497101,-0.10732217,-0.06752418,0.43175705,-0.01688301,-0.02357702,-0.03153023,0.99734714,0.02768464,-0.03253389,0.05893887
1757969497111,0.24226429,-0.15646005,-0.23087532,-0.01246359,-0.01865305,0.00077577,0.99734561,0.02762295,-0.03262623,0.05894271
1757969497123,-0.16524234,0.10926264,0.13365890,-0.03117075,-0.02674509,-0.01946901,0.99735240,0.02743593,-0.03278670,0.05882589
1757969497133,0.12885340,-0.19248438,-0.04328710,-0.03921364,-0.01779180,-0.00448304,0.99735640,0.02722809,-0.03288099,0.05880213
1757969497158,-0.07317757,0.03024929,0.05602600,-0.03037177,-0.01166841,-0.00913476,0.99736850,0.02685148,-0.03302568,0.05868886
1757969497168,-0.08563842,0.01487232,-0.41730942,-0.00818213,-0.02103608,-0.00907237,0.99736878,0.02681057,-0.03313086,0.05864350
1757969497178,-0.07371554,0.23032600,0.04197625,0.01114597,-0.04370611,-0.00560200,0.99736157,0.02686686,-0.03335158,0.05861521
1757969497190,0.14294169,0.33006196,0.27961563,0.00402487,-0.03013414,0.01282249,0.99735043,0.02689081,-0.03353088,0.05869150
1757969497200,0.27445389,0.20801749,-0.09178444,0.02517636,-0.04207266,0.02660721,0.99733228,0.02701543,-0.03373914,0.05882321
1757969497211,-0.02896724,-0.06003080,0.11070881,0.04886710,-0.02048039,-0.00153707,0.99732154,0.02728664,-0.03385280,0.05881468
1757969497223,-0.04641353,-0.07497075,-0.02354046,0.00091306,-0.02565867,0.02086829,0.99730887,0.02729208,-0.03400547,0.05893884
1757969497233,0.08313412,-0.09250245,-0.07835502,0.01276338,-0.02732683,0.00446959,0.99730082,0.02735845,-0.03414757,0.05896209
1757969497245,-0.03397560,-0.18921029,0.01771585,0.02747739,-0.03006363,-0.01978236,0.99729726,0.02751644,-0.03432044,0.05884834
1757969497256,-0.01661991,0.15536187,0.02141741,-0.00158622,-0.03776235,-0.05024993,0.99730660,0.02750772,-0.03452813,0.05857196
1757969497267,0.02977245,0.21860494,-0.02915219,-0.02507472,-0.04481453,-0.01424992,0.99730643,0.02737106,-0.03477237,0.05849430
1757969497278,0.01365193,0.07329700,-0.04001488,0.01594739,-0.04219015,-0.02235958,0.99730308,0.02745957,-0.03500652,0.05837021
1757969497289,0.12232965,-0.06329244,-0.00470998,0.01397218,-0.02981279,-0.00639503,0.99729698,0.02753991,-0.03517795,0.05833343
1757969497300,0.11651070,-0.17810716,-0.00068536,-0.00333969,-0.02885026,-0.01222192,0.99729581,0.02752154,-0.03533662,0.05826621
1757969497311,-0.02364482,-0.09852007,0.03940803,-0.02835229,-0.03135867,-0.00448617,0.99729542,0.02736560,-0.03550910,0.05824154
1757969497322,-0.00394080,-0.24186678,-0.05517124,-0.01596647,-0.04378746,-0.01536356,0.99729415,0.02727779,-0.03574993,0.05815704
1757969497333,0.05894892,-0.08578027,0.05601115,-0.03102830,-0.04634800,-0.03180725,0.99729987,0.02710558,-0.03600716,0.05798051
1757969497345,-0.07050450,-0.01200528,0.01163120,-0.02938523,-0.04035738,-0.02271086,0.99730372,0.02693221,-0.03624527,0.05784652
1757969497356,-0.02894477,-0.00670063,-0.12879376,-0.02101088,-0.03830764,-0.01466219,0.99730383,0.02681454,-0.03645979,0.05776441
1757969497367,-0.04825873,0.09250245,-0.19807334,-0.03608729,-0.03621846,-0.00482132,0.99730341,0.02662689,-0.03664813,0.05773934
1757969497379,-0.13760422,-0.02759774,0.11354777,-0.02891142,-0.03699366,-0.00440029,0.99730139,0.02645487,-0.03686824,0.05771315
1757969497389,0.15885228,-0.10801714,-0.04256444,-0.05387202,-0.02355325,0.00364626,0.99730322,0.02616396,-0.03699543,0.05773284
1757969497400,-0.01936115,-0.18184055,-0.02062464,-0.04311189,-0.02240091,0.00202868,0.99730418,0.02592900,-0.03711751,0.05774390
1757969497413,-0.14636708,0.02982395,0.08256531,-0.02300483,-0.02716824,-0.01681839,0.99730762,0.02578637,-0.03728596,0.05763963
1757969497423,0.23641894,-0.09584811,-0.09367543,-0.04113595,-0.01825665,-0.00929201,0.99731219,0.02558069,-0.03737724,0.05759317
1757969497434,-0.17840029,0.14562622,0.07708676,-0.03189911,-0.01843571,-0.00672800,0.99731518,0.02539408,-0.03748509,0.05755381
1757969497445,0.04748497,0.14823330,-0.05849142,0.00280173,-0.00552197,-0.00969157,0.99731669,0.02540921,-0.03751491,0.05750147
1757969497456,-0.15555722,0.45082836,-0.07546729,-0.00248713,-0.00081584,0.01565572,0.99731186,0.02539541,-0.03751943,0.05758836
1757969497468,-0.21343740,0.21604050,-0.12690008,-0.01700156,-0.00852127,-0.01474899,0.99731730,0.02529935,-0.03756758,0.05750503
1757969497479,0.01032675,-0.05262246,0.07037037,-0.01142921,0.00061600,-0.01953530,0.99732578,0.02523191,-0.03756394,0.05738977
1757969497490,0.21470409,-0.31255385,-0.03357414,-0.02184980,-0.00052923,-0.00699876,0.99733069,0.02511720,-0.03756672,0.05735303
1757969497501,0.03337784,-0.19610146,0.06974314,-0.01546269,0.00184186,-0.01205887,0.99733719,0.02502984,-0.03755632,0.05728490
1757969497512,0.00466792,0.00700188,-0.03360901,-0.03090851,-0.00072770,-0.01633490,0.99734670,0.02485521,-0.03756043,0.05719260
1757969497524,0.08541657,0.00827537,0.03774221,-0.02353286,0.00348649,-0.01174866,0.99735441,0.02472460,-0.03754108,0.05712740
1757969497535,0.03044367,-0.00395421,-0.02161798,-0.02926492,-0.00869523,-0.00793968,0.99735926,0.02455779,-0.03759064,0.05708214
1757969497546,0.03936317,-0.04866927,-0.11325185,-0.02816124,-0.01404324,-0.00435638,0.99736154,0.02440149,-0.03766858,0.05705797
1757969497557,0.06797498,-0.24714313,-0.10567157,-0.03677498,-0.00871110,-0.00823872,0.99736740,0.02419371,-0.03771780,0.05701142
1757969497568,0.06116061,-0.25377035,-0.21033282,-0.04845603,-0.01790887,-0.01949366,0.99737614,0.02392963,-0.03781540,0.05690518
1757969497579,-0.05766120,-0.06569435,-0.06128278,-0.05441439,-0.02543000,-0.02904380,0.99738716,0.02362763,-0.03795654,0.05674398
1757969497591,0.00384835,0.05460403,0.01664634,-0.06802378,-0.01243630,-0.00956960,0.99739717,0.02321949,-0.03803116,0.05668657
1757969497602,0.13093624,-0.33483526,-0.38766532,-0.09876406,-0.01143291,-0.02275278,0.99741344,0.02270591,-0.03809061,0.05656825
1757969497613,-0.04556691,-0.93779176,-0.48685332,-0.14957333,-0.01229352,-0.00770926,0.99743181,0.02187578,-0.03815884,0.05652546
1757969497624,0.00463428,0.16340657,0.28128621,-0.19426698,-0.00969103,0.00643387,0.99745113,0.02077817,-0.03821359,0.05656182
1757969497638,-0.18811965,-0.02544115,0.02368741,-0.21599861,-0.00024428,0.00015769,0.99748156,0.01925538,-0.03821531,0.05656293
1757969497661,-0.11438660,0.21357974,0.31296159,-0.14907329,-0.00249136,0.00137779,0.99751044,0.01758576,-0.03824322,0.05657836
1757969497679,0.26672093,-1.55707929,-1.21718302,-0.46277020,0.01021006,0.03517273,0.99756161,0.01332828,-0.03814928,0.05690195
1757969497690,0.46120585,-7.62020967,-4.61708873,-1.27402323,0.01905212,0.04852895,0.99761780,0.00663965,-0.03804926,0.05715673
1757969497701,-0.47606540,3.10533911,2.70572087,-0.87543294,0.02645921,0.04696473,0.99762891,0.00169346,-0.03789977,0.05742208
1757969497713,-0.07942427,-0.85519550,-0.14713530,-0.99694886,0.03455485,0.05385357,0.99761094,-0.00418854,-0.03769589,0.05773981
1757969497723,0.50032319,-2.41274286,-0.94254963,-1.29777884,0.07845825,0.09337256,0.99754689,-0.01093699,-0.03728791,0.05822535
1757969497734,-0.41763311,-0.13790738,-0.18772656,-1.23375499,0.05985123,0.15954683,0.99740713,-0.01784602,-0.03695274,0.05911881
1757969497746,0.16629157,-0.00900775,0.02556537,-1.27683550,0.09481696,0.14882740,0.99721390,-0.02531551,-0.03639806,0.05998945
1757969497757,-0.38043009,-2.43352614,-1.79813949,-1.44635735,0.10784556,0.19409352,0.99694249,-0.03312584,-0.03581570,0.06103756
1757969497768,0.43507559,-0.85285544,-0.45494381,-1.51649226,0.16617946,0.27049546,0.99657061,-0.04146654,-0.03490171,0.06252528
1757969497779,-0.20531852,-0.27474315,-1.02818463,-1.60869262,0.19578999,0.35112742,0.99607229,-0.05039479,-0.03381508,0.06447404
1757969497790,0.34774706,-0.15200764,-0.43969786,-1.62175162,0.21106232,0.49978545,0.99541314,-0.05963877,-0.03261202,0.06732282
1757969497801,-0.09311011,-1.45434642,-1.21805380,-1.65541107,0.20447223,0.54999954,0.99465273,-0.06874353,-0.03148742,0.07034781
1757969497812,-0.01718684,-2.39901977,-0.44281179,-1.68134462,0.17566611,0.58145227,0.99376055,-0.07807499,-0.03051248,0.07357487
1757969497823,0.17980948,-2.51001988,-0.29789871,-1.86119641,0.18552620,0.56281577,0.99270999,-0.08821852,-0.02950136,0.07664222
1757969497834,-0.14560873,-2.19192440,-0.01707822,-2.00694789,0.18567510,0.56426699,0.99144022,-0.09935708,-0.02847086,0.07977390
1757969497846,0.01605846,-1.25753072,1.49082957,-2.08732463,0.18614990,0.50763376,0.98991381,-0.11167229,-0.02737258,0.08276894
1757969497857,0.78645884,-4.15928822,0.09631310,-2.45216394,0.15724286,0.44217626,0.98815047,-0.12491398,-0.02652347,0.08515669
1757969497869,0.97918703,2.50293934,1.40669690,-2.28473123,0.08791309,0.34551447,0.98620600,-0.13827965,-0.02600917,0.08717795
1757969497879,1.04052051,-0.57220321,-1.87265456,-2.39220433,0.01999347,0.39641475,0.98421976,-0.15059951,-0.02590621,0.08921949
1757969497890,-0.18556560,4.49917049,-1.11957520,-1.91806626,-0.03599079,0.30746458,0.98233569,-0.16143658,-0.02610956,0.09095666
1757969497902,-0.43025662,1.31985052,-0.76393477,-1.62044507,-0.07401946,0.23814662,0.98058894,-0.17091618,-0.02654257,0.09234982
1757969497914,0.40379743,-1.50612703,-0.18620962,-1.58306057,-0.03213507,0.19353892,0.97883258,-0.18009794,-0.02672895,0.09347235
1757969497925,0.44860606,-3.11556994,1.74577571,-1.74856279,-0.03428594,0.14687434,0.97693137,-0.18971503,-0.02691753,0.09428016
1757969497937,0.07579638,2.79740350,2.27997851,-1.75343459,-0.04249155,0.07598385,0.97474125,-0.20041098,-0.02717672,0.09474366
1757969497947,1.61608319,-2.91771396,-2.06772102,-1.93546598,-0.07892683,0.07907271,0.97252309,-0.21066895,-0.02759504,0.09516274
