UnixTime(ms),Ax,Ay,Az,Gx,Gy,Gz,QuatW,QuatX,QuatY,QuatZ
1755645640876,0.00000000,0.00000000,0.00000000,0.00000000,0.00000000,0.00000000,0.99566755,0.00930420,-0.06242466,0.06828417
1755645640883,2.25422241,0.17088987,-1.64576740,0.03665821,-0.09221501,0.02714718,0.99563793,0.00943984,-0.06276585,0.06838462
1755645640895,-0.51578473,0.03296615,0.41074767,0.01977496,-0.04344213,0.00129579,0.99562101,0.00955058,-0.06300913,0.06839188
1755645640906,0.02191195,-0.00593044,-0.07968295,0.00193006,-0.03505235,0.01780591,0.99560178,0.00956129,-0.06320367,0.06849070
1755645640917,-0.21130697,0.10328622,-0.27455095,0.01076507,-0.02962255,0.00620377,0.99558826,0.00962157,-0.06336956,0.06852544
1755645640929,-0.09930308,-0.12933673,0.00509355,-0.00507106,-0.03498742,-0.00889581,0.99557861,0.00959039,-0.06358473,0.06847073
1755645640940,0.11190705,-0.07891209,-0.04740829,-0.00333486,-0.03218345,-0.02090729,0.99557531,0.00957171,-0.06376496,0.06835365
1755645640952,0.02650339,0.05438465,-0.02909499,-0.00607385,-0.04554283,-0.00582857,0.99556163,0.00953800,-0.06401772,0.06832130
1755645640963,-0.01146373,0.02713700,-0.01803246,0.01712519,-0.03196165,0.00126785,0.99554858,0.00963476,-0.06419830,0.06832846
1755645640974,0.09713382,0.07972279,-0.01136904,0.01614918,-0.01569279,-0.00650051,0.99554460,0.00972358,-0.06428461,0.06829271
1755645640985,0.20325812,-0.09161001,0.14550325,0.01290215,-0.01386410,0.00187860,0.99553809,0.00979648,-0.06436294,0.06830333
1755645640996,-0.01818185,-0.04723341,-0.05657906,-0.00149956,-0.00361622,-0.00389748,0.99553836,0.00978815,-0.06438301,0.06828169
1755645641007,-0.12964893,-0.05418164,-0.02322070,-0.00104918,-0.01062106,-0.00666968,0.99553714,0.00978233,-0.06444196,0.06824468
1755645641019,-0.27069719,-0.13284222,-0.14567268,0.00535750,0.00202835,-0.00937470,0.99554122,0.00981260,-0.06443050,0.06819171
1755645641030,-0.02095077,0.12109251,0.04917285,-0.00909377,-0.00591173,-0.02534278,0.99554914,0.00976258,-0.06446302,0.06805233
1755645641041,0.07212297,0.09216964,0.10607055,0.00942760,-0.00606003,-0.01424090,0.99555192,0.00981632,-0.06449756,0.06797115
1755645641052,0.05246301,0.11940076,-0.01323988,0.02782863,-0.01671374,-0.00318399,0.99554558,0.00997077,-0.06459032,0.06795348
1755645641063,0.08117699,0.10713836,0.07288710,0.02673285,-0.00500272,0.00446899,0.99554063,0.01011780,-0.06461783,0.06797806
1755645641074,-0.05922315,-0.06087814,0.13820432,0.01735215,-0.00856386,0.00323770,0.99553524,0.01021584,-0.06466622,0.06799635
1755645641085,0.20201292,-0.39217642,0.62194159,0.01108980,0.00270784,0.00418499,0.99553402,0.01027628,-0.06465146,0.06801916
1755645641097,-0.08435885,-0.03735408,0.02712450,-0.01218117,-0.00440485,0.00248839,0.99553212,0.01020624,-0.06467679,0.06803347
1755645641108,0.02767129,-0.07284060,-0.15214926,-0.01619715,-0.00269894,-0.00003607,0.99553207,0.01011715,-0.06469163,0.06803327
1755645641119,-0.16896193,0.17142493,-0.48077796,-0.01710383,-0.00157677,-0.01262269,0.99553720,0.01002308,-0.06470031,0.06796385
1755645641130,0.03459776,-0.02415011,0.02967098,-0.01124235,0.00889246,-0.00392625,0.99554262,0.00995956,-0.06465006,0.06794166
1755645641141,-0.01126939,0.09778298,-0.07949125,-0.00397115,0.01555055,0.00458191,0.99554674,0.00993733,-0.06456298,0.06796732
1755645641152,-0.02258925,0.05184619,-0.05594533,0.01382376,0.01903791,0.00865930,0.99554951,0.01001336,-0.06445827,0.06801495
1755645641163,-0.00442335,0.04791387,-0.06289451,0.01427532,0.02058637,0.00877556,0.99555280,0.01009330,-0.06434299,0.06806409
1755645641175,-0.00302611,-0.11648096,0.04011201,0.00889983,0.02046571,0.00452553,0.99555810,0.01014447,-0.06422531,0.06809011
1755645641186,0.17706174,-0.29941416,-0.03009579,-0.00934748,0.02303218,0.00497917,0.99556473,0.01009446,-0.06410209,0.06811675
1755645641197,-0.03974710,-0.08923140,0.09363756,-0.05925656,0.01250699,0.00114806,0.99557217,0.00975966,-0.06403142,0.06812324
1755645641208,0.00282155,-0.02177768,-0.03468281,-0.04572908,0.01302507,-0.01814467,0.99558629,0.00950358,-0.06395848,0.06802163
1755645641219,0.00901681,0.04980521,-0.07070110,-0.03157841,0.00391310,-0.00872115,0.99559253,0.00933148,-0.06393716,0.06797410
1755645641230,0.05209569,0.01821884,0.00284045,-0.02105529,0.01585326,-0.00007273,0.99559929,0.00921462,-0.06384917,0.06797369
1755645641242,-0.04959768,0.08214695,-0.03465193,-0.02315033,0.00868964,-0.00575957,0.99560586,0.00908382,-0.06380008,0.06794115
1755645641251,0.15909275,-0.05477643,-0.16149844,-0.01134895,0.01930215,-0.00099178,0.99561283,0.00902765,-0.06370453,0.06793624
1755645641263,-0.09527232,0.12196733,0.21027638,-0.00774265,0.02405322,0.00594506,0.99561950,0.00898467,-0.06357103,0.06796924
1755645641274,-0.02615974,0.02616830,0.00489719,-0.00462451,0.02245301,0.00128782,0.99562726,0.00895878,-0.06344530,0.06797645
1755645641285,0.18038586,-0.32695014,0.43048207,0.01855993,0.02586013,-0.00338975,0.99563692,0.00906364,-0.06329919,0.06795730
1755645641296,-0.00889296,-0.10410433,0.09154520,-0.01732747,0.02858285,-0.02934957,0.99565877,0.00896834,-0.06314198,0.06779588
1755645641307,-0.10197279,-0.00135370,-0.01442811,-0.04692319,0.01631498,-0.01268069,0.99567184,0.00870322,-0.06304980,0.06772423
1755645641318,-0.12782518,0.18748236,-0.32957645,-0.02354752,0.01616975,0.00573496,0.99567648,0.00857253,-0.06296006,0.06775606
1755645641330,-0.04205421,0.25907600,0.05643757,0.01974488,0.01782546,-0.01740237,0.99568846,0.00868311,-0.06286024,0.06765861
1755645641341,0.04340060,0.33942570,-0.04533566,0.04437848,0.02425780,0.00730314,0.99569202,0.00892941,-0.06272561,0.06769914
1755645641352,-0.01451294,0.22204798,-0.05805176,0.08759064,0.02078649,0.01572673,0.99568886,0.00941553,-0.06261024,0.06778642
1755645641363,-0.06474224,0.14393206,0.11766959,0.06728356,0.02326050,-0.01936758,0.99570079,0.00979232,-0.06247998,0.06767796
1755645641375,-0.05715028,-0.06339417,0.09968073,0.03523839,0.01731784,-0.03706309,0.99572094,0.01001080,-0.06237261,0.06744817
1755645641387,0.25107776,0.23568312,-0.00561791,0.01749711,0.03598701,-0.03889878,0.99574705,0.01010791,-0.06217288,0.06723228
1755645641398,-0.14948328,-0.12529505,0.07353223,0.00976397,0.06097518,-0.01775777,0.99577422,0.01016210,-0.06183447,0.06713373
1755645641409,-0.26607057,-0.23172328,0.10836329,0.01194128,0.09288864,-0.02354057,0.99581422,0.01022837,-0.06131894,0.06700308
1755645641420,-0.46634914,-0.30428798,0.05418164,-0.00462658,0.10510288,-0.02634689,0.99586006,0.01020270,-0.06073562,0.06685685
1755645641431,-0.16497231,-0.05046713,0.00440234,0.00503543,0.10283954,-0.00863844,0.99589729,0.01023039,-0.06017000,0.06680934
1755645641442,-0.01661105,-0.06763665,0.03849227,0.01480931,0.09958042,-0.00860884,0.99593385,0.01031480,-0.05960239,0.06676027
1755645641453,-0.08444073,0.01235278,0.04453513,-0.00094527,0.09102929,-0.01231557,0.99596796,0.01030965,-0.05910628,0.06669315
1755645641464,0.02015744,0.01632125,-0.02266840,0.00050853,0.09371124,-0.00233655,0.99599981,0.01031250,-0.05858150,0.06668007
1755645641476,-0.13797032,-0.13343577,0.12970144,0.00473839,0.08885962,0.00642474,0.99602651,0.01033927,-0.05807944,0.06671637
1755645641487,-0.21286875,-0.29753934,0.14078780,0.00649841,0.08762437,0.01731094,0.99604774,0.01037501,-0.05759751,0.06681158
1755645641498,0.00556331,-0.01657535,0.03472931,0.01235433,0.08271172,0.01567951,0.99606798,0.01044481,-0.05713019,0.06690017
1755645641509,0.16351969,0.10858562,-0.03808045,0.00005718,0.08037199,0.01758316,0.99608707,0.01044513,-0.05668011,0.06699863
1755645641520,0.12975622,0.19119052,-0.19788461,-0.00514624,0.05846360,0.00850230,0.99610246,0.01041683,-0.05635856,0.06704539
1755645641531,0.10935728,0.01527061,0.11822409,-0.01524732,0.05321502,0.02273208,0.99611143,0.01033297,-0.05606587,0.06717042
1755645641542,-0.02054439,0.04953807,-0.03200017,-0.02222344,0.04699768,0.01682177,0.99612114,0.01020852,-0.05580269,0.06726462
1755645641552,-0.00668424,0.03733805,0.10303089,-0.02111691,0.05787316,0.01509515,0.99613328,0.01010293,-0.05551332,0.06734010
1755645641563,-0.04154839,-0.00815382,-0.03117080,0.00353752,0.05166539,0.00909922,0.99614572,0.01012274,-0.05522399,0.06739105
1755645641575,-0.04181448,0.10073489,0.11784082,0.00584412,0.04857961,0.00549819,0.99615834,0.01015547,-0.05495195,0.06742184
1755645641586,-0.03658767,0.08220347,0.25468821,0.00608466,0.04893764,-0.00512939,0.99617502,0.01018955,-0.05467790,0.06739312
1755645641597,0.00767544,0.05235025,0.02574319,0.00883916,0.03665289,-0.00072365,0.99618593,0.01023860,-0.05447447,0.06738910
1755645641608,0.01044934,0.02699448,-0.02931466,-0.00216454,0.02580851,-0.01178949,0.99619841,0.01022648,-0.05432995,0.06732308
1755645641619,-0.01900910,-0.02098829,-0.11709815,-0.00035441,0.02855335,-0.01623957,0.99621302,0.01022453,-0.05417290,0.06723376
1755645641630,0.01840857,-0.06671728,0.03690201,0.00315902,0.03292923,-0.00018368,0.99622300,0.01024238,-0.05398685,0.06723273
1755645641642,-0.05074590,0.03803419,0.09678219,-0.01316996,0.04154044,0.00357428,0.99623499,0.01016863,-0.05375423,0.06725274
1755645641653,-0.10960358,-0.02930093,-0.03793023,0.00544382,0.04906734,0.00690163,0.99624664,0.01019857,-0.05348436,0.06729070
1755645641664,-0.14466602,0.02782737,0.06386212,0.02593281,0.05165485,-0.00191318,0.99626136,0.01034379,-0.05319509,0.06727999
1755645641675,-0.09170676,0.09218193,0.05321843,0.03771952,0.05952151,-0.00052871,0.99627708,0.01055502,-0.05286177,0.06727703
1755645641686,-0.13173541,0.06450426,0.34186466,0.04381793,0.07235387,-0.00697992,0.99629813,0.01079602,-0.05246382,0.06723864
1755645641697,-0.05697830,-0.03127081,0.04858030,0.02932365,0.08127590,0.00603964,0.99631809,0.01096170,-0.05200461,0.06727276
1755645641709,-0.13857503,-0.00960680,-0.09072514,0.02369658,0.08453582,-0.00007863,0.99634104,0.01109322,-0.05153544,0.06727232
1755645641720,-0.05829970,-0.02940883,-0.23403782,0.02229595,0.08424630,0.00964468,0.99636029,0.01121807,-0.05106366,0.06732633
1755645641732,0.07724575,0.01696628,-0.04809423,0.02877201,0.07751833,-0.00373548,0.99638492,0.01140078,-0.05057142,0.06730261
1755645641743,-0.25227493,0.00238814,0.05438670,0.02692542,0.09281114,-0.00078995,0.99640819,0.01154213,-0.05008416,0.06729847
1755645641754,-0.00183831,-0.13761032,0.08105131,0.00107204,0.08887298,-0.00633676,0.99643516,0.01154808,-0.04959092,0.06726330
1755645641765,0.04363031,-0.04451343,0.08814375,-0.00461269,0.07570945,0.00692222,0.99645402,0.01152202,-0.04916316,0.06730241
1755645641776,0.09578982,0.16456673,0.13459352,-0.01231437,0.06576786,0.01119113,0.99646868,0.01145306,-0.04879486,0.06736508
1755645641787,0.10422710,0.38629912,0.01939680,0.04797190,0.05937958,0.01442649,0.99647565,0.01169772,-0.04849202,0.06743865
1755645641799,0.21297896,0.18407668,-0.09091592,0.06910239,0.03078978,0.02350951,0.99647016,0.01210888,-0.04830882,0.06757854
1755645641810,-0.00727269,0.06814056,0.05756490,0.07319736,0.02398702,0.02070206,0.99646361,0.01252610,-0.04817210,0.06769654
1755645641821,-0.05345536,0.05723557,0.02559450,0.07136083,-0.00679844,0.01826822,0.99645008,0.01291502,-0.04820915,0.06779610
1755645641832,0.10806149,-0.13309742,0.06785132,0.05581689,-0.01119988,0.02145342,0.99643490,0.01322480,-0.04827131,0.06791517
1755645641844,0.08565881,-0.18069559,-0.03352127,0.03776281,-0.02378891,0.02379137,0.99641586,0.01344383,-0.04840928,0.06805316
1755645641854,-0.03240496,-0.07761460,0.11077869,0.02446256,-0.03450764,0.02065386,0.99639772,0.01357348,-0.04859217,0.06816262
1755645641866,0.13328815,-0.03047329,0.03292084,0.01106520,-0.03567337,0.02199347,0.99637868,0.01363544,-0.04879194,0.06828578
1755645641877,0.11498983,-0.09503292,0.12544345,0.03135407,-0.04885960,0.01017236,0.99635892,0.01381103,-0.04906556,0.06834275
1755645641888,0.30626191,-0.10384959,0.31126801,0.02861225,-0.04432745,0.01664531,0.99633822,0.01396982,-0.04931158,0.06843513
1755645641899,0.01354541,-0.00725647,-0.01161035,0.04587157,-0.06200489,0.01323914,0.99631248,0.01422441,-0.04965570,0.06850861
1755645641910,-0.06517623,0.10558599,-0.16282902,0.02979779,-0.05208117,0.02190072,0.99628660,0.01439426,-0.04995257,0.06863344
1755645641921,-0.23571182,0.17409432,-0.21086041,0.03638921,-0.04557261,0.01086716,0.99626733,0.01459076,-0.05019866,0.06869213
1755645641932,-0.02759474,-0.01650757,-0.05716054,0.03261702,-0.04744955,0.00510449,0.99624924,0.01477342,-0.05046437,0.06872071
1755645641944,-0.03944290,-0.11385698,-0.05962299,0.03886938,-0.04609372,0.00092256,0.99623223,0.01499497,-0.05072711,0.06872597
1755645641954,-0.00844517,-0.02724510,0.11403675,-0.00883143,-0.04050606,0.01571623,0.99621592,0.01494728,-0.05094584,0.06881084
1755645641966,-0.02440938,-0.15196467,-0.06068028,-0.00371202,-0.03191898,0.01792383,0.99620014,0.01492650,-0.05112459,0.06891121
1755645641977,0.05851985,0.05853653,0.02577358,0.00000312,-0.03397196,0.02123080,0.99618197,0.01492651,-0.05131653,0.06903116
1755645641988,0.10503722,0.22173120,-0.03752481,0.03886739,-0.02104422,0.02175261,0.99616447,0.01514028,-0.05143227,0.06915080
1755645641999,0.05969795,0.25867960,-0.11459242,0.07182141,-0.02166170,0.02339677,0.99614291,0.01554248,-0.05155358,0.06928183
1755645642010,-0.16298145,-0.04181448,-0.02280790,0.06479719,-0.02896575,0.00648373,0.99612624,0.01590535,-0.05171579,0.06931813
1755645642021,-0.14235207,-0.06053105,-0.05127905,0.03591792,-0.03265151,-0.01766233,0.99612043,0.01610469,-0.05189700,0.06922011
1755645642033,0.00878494,-0.12953262,-0.00097564,0.01654330,-0.03410138,0.00578395,0.99610659,0.01619816,-0.05208968,0.06925279
1755645642045,0.05490126,-0.16803910,0.01055962,0.00803419,-0.02327231,0.01261866,0.99609267,0.01624838,-0.05223513,0.06933165
1755645642055,-0.22323802,0.02216548,0.26399891,0.00115108,-0.02439016,-0.00107829,0.99608679,0.01625390,-0.05235220,0.06932648
1755645642066,0.07124233,-0.06391490,-0.02610782,0.00616022,-0.02408959,0.00582749,0.99607703,0.01628778,-0.05248469,0.06935853
1755645642077,0.10251597,0.03928690,0.20022822,0.03235617,-0.03437648,0.02132400,0.99605538,0.01647059,-0.05267892,0.06947901
1755645642088,0.07054648,0.15717439,0.20415452,0.03365768,-0.05895720,0.02326352,0.99602616,0.01665571,-0.05300318,0.06960696
1755645642099,0.11329809,0.06305285,0.09063847,0.04294363,-0.05471084,0.01965129,0.99599857,0.01689190,-0.05330409,0.06971504
1755645642111,-0.08280462,0.02134936,-0.13012458,0.02519792,-0.05716151,0.01072011,0.99597457,0.01703427,-0.05362706,0.06977561
1755645642122,-0.07266745,-0.08208587,-0.12404925,0.02298941,-0.05235978,0.01474278,0.99595095,0.01716186,-0.05391765,0.06985743
1755645642132,-0.12454425,-0.04885398,0.10552299,0.02537584,-0.05247265,0.01954117,0.99592696,0.01729255,-0.05418789,0.06995807
1755645642143,-0.03052884,-0.03352066,-0.09017749,0.00431642,-0.01853554,0.01813157,0.99591387,0.01731650,-0.05429076,0.07005870
1755645642154,-0.10739576,-0.05805176,-0.05031153,0.02069141,-0.00860891,0.01179851,0.99590465,0.01743134,-0.05433854,0.07012418
1755645642165,-0.07118907,-0.03710136,0.00917795,0.01921962,-0.00201999,0.00340909,0.99590080,0.01753897,-0.05434985,0.07014327
1755645642176,-0.08077798,-0.04704129,-0.03801317,0.03142186,-0.00844352,0.00375072,0.99589362,0.01771493,-0.05439713,0.07016428
1755645642187,-0.18722333,0.02118182,-0.03138568,0.05282163,-0.00291642,0.01997860,0.99587979,0.01800545,-0.05441317,0.07027416
1755645642199,0.00711883,0.15453216,-0.04900243,0.06409641,0.00744587,0.01690804,0.99586883,0.01836439,-0.05437148,0.07036884
1755645642210,0.02755955,0.06319689,-0.04941712,0.05700050,0.02618812,0.01546482,0.99586476,0.01868359,-0.05422482,0.07045545
1755645642221,0.02839928,0.00841059,0.00293412,0.03784596,0.03589038,-0.00113009,0.99587220,0.01889742,-0.05402204,0.07044906
1755645642232,-0.13393935,-0.14560046,0.01049718,0.01605561,0.04892609,-0.00385554,0.99588658,0.01898573,-0.05375295,0.07042786
1755645642243,-0.09429857,-0.18622132,-0.05888585,0.01038790,0.06748671,-0.00647016,0.99590836,0.01904390,-0.05337502,0.07039162
1755645642254,-0.21038434,-0.08132304,0.02843008,-0.01086564,0.11464095,-0.01808442,0.99595012,0.01898414,-0.05274450,0.07029216
1755645642266,-0.20292288,-0.05898551,-0.08782476,0.00227998,0.14648773,-0.01236676,0.99599829,0.01899702,-0.05191684,0.07022229
1755645642277,-0.24959176,0.05480372,-0.01153851,0.01447659,0.16063936,-0.01967686,0.99605098,0.01907809,-0.05101726,0.07011210
1755645642288,-0.38616350,0.01563127,-0.01625581,0.03184547,0.18164110,-0.01671505,0.99610475,0.01925324,-0.05001824,0.07002016
1755645642299,0.15594038,0.05734804,-0.07526607,0.01862610,0.16301076,-0.02121558,0.99615649,0.01935755,-0.04910538,0.06990136
1755645642310,0.08077798,-0.12259246,0.03421185,0.02371804,0.18395505,-0.01272749,0.99620914,0.01949037,-0.04807523,0.06983008
1755645642321,-0.09222628,-0.05881196,-0.11299360,0.00515913,0.17675302,0.00968345,0.99625167,0.01951900,-0.04709425,0.06988383
1755645642332,-0.01788502,-0.05385199,0.04356103,-0.01491974,0.17849983,0.01440374,0.99629439,0.01943545,-0.04609465,0.06996449
1755645642344,-0.02755955,-0.00665230,-0.05321843,-0.01164348,0.18555660,0.02831505,0.99633205,0.01937025,-0.04505553,0.07012305
1755645642355,0.01973069,-0.04634638,0.08327663,-0.00406589,0.20148315,0.02862666,0.99637123,0.01934768,-0.04393730,0.07028193
1755645642366,-0.14309731,0.10960463,-0.18516864,-0.00723322,0.18471949,0.02686924,0.99640647,0.01930718,-0.04290287,0.07043240
1755645642377,0.11342554,-0.20589370,-0.07633115,-0.00175709,0.19458402,0.02544951,0.99644258,0.01929742,-0.04182293,0.07057364
1755645642388,-0.02612329,-0.02660706,-0.20511622,-0.00266123,0.18124071,0.01506690,0.99647865,0.01928265,-0.04081705,0.07065726
1755645642399,0.02515576,-0.26703810,0.02709082,-0.00223285,0.18415021,0.02428075,0.99651066,0.01927026,-0.03979501,0.07079202
1755645642411,0.01908379,0.08253804,0.21894638,-0.03219928,0.18616545,0.01151245,0.99655099,0.01908834,-0.03874318,0.07085707
1755645642422,-0.06393400,-0.06854474,0.01318580,-0.06208020,0.19166266,0.01865704,0.99659095,0.01874379,-0.03767945,0.07096061
1755645642433,-0.17473214,-0.10471600,-0.00089040,-0.06586162,0.18783543,0.01778629,0.99662994,0.01837497,-0.03662757,0.07106022
1755645642444,0.10083902,-0.01092790,0.00476854,-0.07216508,0.19873080,0.01964610,0.99666938,0.01797445,-0.03552462,0.07116925
1755645642455,-0.00686718,0.10932947,-0.14577263,-0.05554112,0.18721999,0.01238373,0.99670746,0.01765787,-0.03445746,0.07123984
1755645642467,0.06932032,0.19231309,-0.03928178,-0.03714760,0.18509183,0.01622810,0.99674078,0.01744427,-0.03339318,0.07133315
1755645642479,0.23090537,0.15880328,0.03630044,-0.01640919,0.19188892,0.01613653,0.99677293,0.01734745,-0.03226104,0.07142836
1755645642489,-0.23932574,-0.01190306,0.14085747,-0.01849965,0.21464523,0.00529118,0.99680846,0.01725033,-0.03113415,0.07145613
1755645642500,0.13426879,-0.02350407,0.05911204,-0.02986492,0.22542738,0.00808885,0.99684606,0.01708607,-0.02989430,0.07150062
1755645642511,-0.38841321,-0.23410882,-0.11579831,-0.04764845,0.23767354,0.01546421,0.99688373,0.01681686,-0.02855145,0.07158800
1755645642523,-0.40926491,-0.13538561,-0.08466310,-0.03941231,0.25309703,0.01381345,0.99692113,0.01659812,-0.02714676,0.07166466
1755645642534,-0.17789134,0.23304468,-0.10212186,-0.02880976,0.27573662,-0.00571417,0.99696695,0.01643679,-0.02560263,0.07163266
1755645642545,-0.13737189,0.06962756,-0.03628235,-0.00950433,0.29668050,-0.01237520,0.99701367,0.01638404,-0.02395605,0.07156398
1755645642556,-0.03670982,0.00208135,-0.06880429,0.00308443,0.30196543,0.00150589,0.99705132,0.01640100,-0.02229524,0.07157226
1755645642567,-0.05060023,-0.15767803,-0.00427751,-0.00303634,0.28999119,0.00564898,0.99708460,0.01638385,-0.02065679,0.07160418
1755645642578,0.05099504,-0.08727745,-0.06654028,-0.02022882,0.30329668,0.00361770,0.99711816,0.01627259,-0.01898866,0.07162408
1755645642590,0.03474462,-0.20881600,-0.20945107,-0.02474736,0.29763850,-0.01842989,0.99715920,0.01613029,-0.01727724,0.07151810
1755645642600,-0.05561607,0.09425316,0.19210562,-0.06814420,0.32699497,-0.00712640,0.99719688,0.01576231,-0.01551147,0.07147962
1755645642612,-0.14434240,-0.05634782,-0.11106187,-0.06263979,0.30335324,0.00768860,0.99722448,0.01540840,-0.01379752,0.07152306
1755645642624,0.08702346,-0.06088253,0.07640394,-0.05360229,0.30676865,-0.00962088,0.99725704,0.01508946,-0.01197225,0.07146582
1755645642634,-0.39531846,-0.13804942,-0.13587400,-0.07499488,0.35723992,0.00401050,0.99728239,0.01469199,-0.01007888,0.07148707
1755645642645,-0.05644199,-0.17107443,-0.06153021,-0.06350458,0.35049485,0.00344102,0.99730320,0.01435224,-0.00820373,0.07150548
1755645642656,0.31463692,0.13829340,0.00951253,-0.08868747,0.33667768,-0.00839862,0.99732713,0.01386002,-0.00633517,0.07145887
1755645642667,-0.06530823,-0.12916517,-0.21285645,-0.06873498,0.32812627,-0.04372358,0.99735962,0.01347855,-0.00451407,0.07121620
1755645642679,0.25669344,0.44046222,0.01746054,-0.10188071,0.29154583,-0.03604867,0.99738785,0.01290292,-0.00286683,0.07101253
1755645642690,0.17375777,0.05707123,-0.02696958,-0.09202192,0.27362132,-0.01930058,0.99740587,0.01236919,-0.00127983,0.07090059
1755645642701,0.03989848,-0.17311631,-0.02814885,-0.09256833,0.29460569,-0.02782569,0.99742324,0.01187395,0.00029631,0.07075172
1755645642712,-0.07776983,-0.44103331,-0.31766213,-0.10193980,0.27037679,-0.01897211,0.99743550,0.01131838,0.00176986,0.07064832
1755645642724,0.37899863,0.03668452,0.23715333,-0.10981942,0.24573615,-0.00866003,0.99744278,0.01065397,0.00325657,0.07059593
1755645642735,0.02990145,-0.06223373,-0.11802259,-0.09912866,0.25653891,-0.01005916,0.99744679,0.01010381,0.00468036,0.07054010
1755645642745,-0.17321096,0.07394404,-0.03413503,-0.11410361,0.23983421,-0.00863952,0.99744916,0.00951617,0.00591550,0.07049561
1755645642756,0.38422656,-0.01298180,-0.13087008,-0.08015456,0.20478096,-0.01329488,0.99745113,0.00907132,0.00705204,0.07042182
1755645642767,0.16203112,0.28670831,0.15472386,-0.09646047,0.20075917,-0.01881322,0.99745474,0.00853114,0.00817629,0.07031647
1755645642779,0.08172831,-0.06652304,-0.15585398,-0.08259036,0.17488708,-0.01015945,0.99745409,0.00806863,0.00915566,0.07025957
1755645642791,0.44898150,-0.00403826,-0.01021524,-0.06171861,0.15442135,-0.01152801,0.99745291,0.00768906,0.01010535,0.07018867
1755645642801,-0.18927625,-0.10947386,-0.07071146,-0.09303658,0.16342284,0.00191683,0.99744710,0.00722388,0.01092246,0.07019826
1755645642812,0.33209735,0.07050114,0.03579991,-0.08875075,0.13193056,-0.00285639,0.99744345,0.00674019,0.01164148,0.07018269
1755645642824,0.26084055,0.04835159,0.01875901,-0.07798185,0.09530380,-0.01122403,0.99744438,0.00628399,0.01219901,0.07011703
1755645642835,0.17357959,0.08109190,0.07529556,-0.09335402,0.07530546,-0.00050742,0.99744242,0.00574254,0.01263578,0.07011409
1755645642845,-0.54537538,-0.13982447,-0.23621919,-0.09158918,0.06028391,-0.00361539,0.99744235,0.00528002,0.01294022,0.07009583
1755645642856,0.89689970,0.14136945,0.05299379,-0.05307893,0.03852219,-0.00526909,0.99744313,0.00498543,0.01315402,0.07006659
1755645642868,0.20588753,0.10077770,-0.12184761,-0.05868063,0.00672818,0.00402618,0.99744263,0.00465682,0.01319169,0.07008913
1755645642879,0.32415356,-0.00784377,-0.06261679,-0.05683603,-0.01680985,-0.00298490,0.99744652,0.00433569,0.01309672,0.07007227
1755645642890,0.42418741,-0.09994856,-0.06606890,-0.06613931,-0.03054079,0.00952047,0.99744654,0.00396531,0.01292569,0.07012558
1755645642901,0.16432881,-0.07460774,-0.00981351,-0.09832104,-0.05645598,0.00562863,0.99745038,0.00341963,0.01261236,0.07015682
1755645642912,0.09820423,-0.16447999,-0.15093458,-0.11383069,-0.06564496,0.00798769,0.99745376,0.00278787,0.01224803,0.07020115
1755645642924,0.05827748,-0.10019623,0.06281083,-0.12591474,-0.05904949,-0.02327749,0.99746879,0.00207645,0.01191440,0.07006964
1755645642934,0.08861340,-0.10929363,-0.10958306,-0.14559101,-0.06941752,-0.03070988,0.99748616,0.00129026,0.01153954,0.06990380
1755645642946,0.06188017,0.01950152,0.10473425,-0.11710461,-0.07342831,-0.03575409,0.99750564,0.00062862,0.01112467,0.06970179
1755645642956,0.23320629,0.03664033,-0.13461658,-0.11385994,-0.07941299,-0.03727062,0.99752354,0.00004793,0.01071967,0.06951171
1755645642967,-0.03582704,0.34203585,0.02105799,-0.07778432,-0.07363843,-0.02167140,0.99753615,-0.00038377,0.01031097,0.06939144
1755645642978,-0.00633323,-0.01149317,-0.07842102,-0.06230976,-0.05519902,-0.03037932,0.99755105,-0.00073582,0.00999910,0.06921979
1755645642989,-0.05566820,-0.11685527,-0.19135563,-0.05719463,-0.05508625,-0.03675336,0.99756777,-0.00105039,0.00969613,0.06901765
1755645643000,-0.02691491,0.02204208,0.00629774,-0.06126827,-0.03624740,-0.04391539,0.99758612,-0.00139043,0.00949495,0.06877392
1755645643012,-0.03280159,0.22280267,0.15768311,-0.06846565,-0.04243598,-0.03421714,0.99760107,-0.00177726,0.00925519,0.06858059
1755645643023,-0.01020973,0.07368415,-0.00851091,-0.06050720,-0.03007041,-0.04780348,0.99762032,-0.00211610,0.00908680,0.06831289
1755645643035,-0.06177140,-0.09645841,0.01140395,-0.08258818,-0.02501670,-0.04680198,0.99763841,-0.00257859,0.00894670,0.06805080
1755645643045,0.01395115,-0.29837508,-0.23039623,-0.09386964,-0.01718368,-0.04053875,0.99765297,-0.00309488,0.00885219,0.06782784
1755645643056,-0.02812633,0.30322371,0.31103611,-0.08150521,-0.02166741,-0.03611408,0.99766636,-0.00355538,0.00872977,0.06762379
1755645643068,-0.13420393,0.16460801,-0.06470889,-0.04623825,-0.01067953,-0.02184455,0.99767442,-0.00382125,0.00866836,0.06749819
1755645643079,0.27507224,-0.30638581,-0.11437124,-0.01863403,0.00275812,0.00682536,0.99767144,-0.00392094,0.00868312,0.06753470
1755645643090,-0.24051321,0.40968512,0.23642768,-0.00637757,0.00953343,0.00313465,0.99766964,-0.00395666,0.00873651,0.06755226
1755645643101,-0.11879114,0.00665230,0.04561580,-0.00474144,0.01464174,-0.00120525,0.99766927,-0.00398321,0.00881850,0.06754551
1755645643112,-0.13843830,0.03978628,0.00570009,-0.03095963,0.02115696,0.00418872,0.99766598,-0.00415349,0.00893486,0.06756855
1755645643123,-0.08111993,-0.00856775,0.14299106,-0.04467889,0.01567911,0.00554978,0.99766198,-0.00440592,0.00902345,0.06759990
1755645643134,-0.02816538,-0.10308469,0.05476387,-0.04884572,0.01280349,0.00007716,0.99766007,-0.00467702,0.00909451,0.06760033
1755645643146,0.01451294,-0.02805835,0.02709082,-0.05162882,0.00941605,0.00903962,0.99765480,-0.00496356,0.00914677,0.06765050
1755645643157,-0.00712804,0.00325493,0.13245112,-0.03355407,0.00937455,0.00447302,0.99765164,-0.00515314,0.00919974,0.06767577
1755645643168,0.03773364,0.12488406,0.02383718,-0.02670281,0.00536312,0.00787778,0.99764762,-0.00530134,0.00922950,0.06771949
1755645643179,-0.05070134,0.06561980,0.06791001,-0.00288186,0.00609137,0.01344326,0.99764211,-0.00531748,0.00926361,0.06779478
1755645643190,-0.07123435,0.00828879,-0.07239193,0.01526232,0.00119470,0.01305875,0.99763757,-0.00523277,0.00927024,0.06786725
1755645643202,0.01678059,0.22615682,0.15368703,0.02698658,0.00477882,0.01480866,0.99763227,-0.00507625,0.00929796,0.06795314
1755645643213,0.03372691,0.25781525,0.02044055,0.03891725,0.00027175,0.00189944,0.99763261,-0.00486609,0.00929943,0.06796340
1755645643224,0.03942345,0.06916943,0.08356252,0.03196616,0.00049949,-0.00074390,0.99763375,-0.00468229,0.00930230,0.06795912
1755645643235,0.04642671,-0.08336190,0.07863391,0.01598919,0.00345758,0.00767516,0.99763115,-0.00459595,0.00932097,0.06800057
1755645643246,-0.06419651,-0.05126430,0.04845861,0.00131275,-0.00447909,-0.00404002,0.99763292,-0.00458879,0.00929656,0.06797855
1755645643257,-0.03134785,-0.12416234,0.08907587,-0.00419887,0.00299129,-0.01549566,0.99763861,-0.00461252,0.00931346,0.06789100
1755645643268,0.04609955,-0.06173198,0.07386390,-0.01468901,0.00426381,-0.00279432,0.99763906,-0.00469331,0.00933691,0.06787563
1755645643279,0.56522121,0.10257113,0.09614214,-0.01250348,0.01015788,-0.00345999,0.99763952,-0.00476395,0.00939430,0.06785608
1755645643291,0.20585257,0.08727029,0.00887045,-0.00127075,0.00776815,-0.00167616,0.99763971,-0.00477100,0.00943742,0.06784678
1755645643302,-0.00741000,0.09345331,-0.02914343,0.00204890,0.00784358,0.01461672,0.99763378,-0.00475953,0.00948134,0.06792863
1755645643314,-0.57875441,-0.07914347,-0.05225812,0.01836826,0.00760382,-0.00236607,0.99763485,-0.00464657,0.00952810,0.06791408
1755645643325,-0.11820621,-0.06760338,-0.06152107,0.01959003,0.00153512,-0.00415463,0.99763679,-0.00454078,0.00953639,0.06789165
1755645643335,0.02877237,0.06722041,0.03182785,0.00222841,-0.00722851,-0.02098276,0.99764447,-0.00452941,0.00949953,0.06778463
1755645643346,-0.01149653,-0.07467050,0.02117182,-0.00025766,-0.02076230,0.00016367,0.99764549,-0.00453084,0.00938430,0.06778554
1755645643358,0.04600031,-0.06158827,0.06475831,-0.00309280,-0.01666101,0.01155384,0.99764169,-0.00454909,0.00928600,0.06785371
1755645643369,0.01947488,0.00220284,0.04761725,-0.01125533,-0.01792771,0.00526512,0.99764040,-0.00460874,0.00919098,0.06788162
1755645643380,-0.12394941,0.01763138,-0.03479803,-0.01072848,-0.01265180,0.01842436,0.99763387,-0.00466775,0.00912140,0.06798295
1755645643391,-0.04525295,0.08303285,0.02184029,-0.00459593,-0.00666490,0.01671754,0.99762770,-0.00469349,0.00908407,0.06807657
1755645643402,-0.02850987,0.03041053,-0.02660922,0.01451087,-0.01902948,0.00757238,0.99762615,-0.00461223,0.00897751,0.06811897
1755645643413,0.14646426,0.04609152,0.17321310,0.01932583,-0.01783140,-0.00259344,0.99762855,-0.00450304,0.00887676,0.06810432
1755645643424,0.06257332,0.03566339,0.02395869,0.01415659,-0.01517831,-0.00080018,0.99762994,-0.00442518,0.00879328,0.06809992
1755645643436,-0.04830871,-0.08513009,-0.00465094,0.01578147,-0.00912845,0.00585752,0.99762853,-0.00433601,0.00874170,0.06813301
1755645643447,-0.08103272,0.03935618,0.01989857,0.00765493,-0.00675192,0.00624040,0.99762667,-0.00429353,0.00870423,0.06816765
1755645643458,0.04621511,0.01239709,0.09838903,0.00035732,0.01224222,0.00777645,0.99762310,-0.00429152,0.00877279,0.06821120
1755645643469,-0.07033593,-0.01928148,-0.10701566,0.00961023,0.00647196,0.00890594,0.99761963,-0.00423819,0.00880871,0.06826062
1755645643480,0.38331655,0.06044864,0.05664304,0.02287171,0.01336578,0.00304656,0.99761834,-0.00411011,0.00888355,0.06827769
1755645643491,0.08845705,0.08359324,-0.02327291,0.01947124,0.01388115,-0.00082026,0.99761840,-0.00400009,0.00896198,0.06827305
1755645643502,0.02145689,0.01113087,0.05168148,0.01824011,0.00839578,-0.00032532,0.99761850,-0.00389886,0.00900858,0.06827125
1755645643514,-0.32433621,-0.02314608,-0.08095777,0.01835584,0.00919090,-0.00441256,0.99762013,-0.00379607,0.00906005,0.06824654
1755645643525,-0.05606942,-0.00142549,0.01140395,0.02447264,0.00707526,-0.01258582,0.99762510,-0.00365902,0.00909967,0.06817605
1755645643536,-0.01382185,-0.07292752,-0.08849438,0.02877435,-0.00009129,-0.01373865,0.99763088,-0.00349932,0.00909916,0.06809981
1755645643548,0.01217999,-0.02018231,0.00498968,0.00668687,0.00478818,-0.00063502,0.99763102,-0.00346021,0.00912717,0.06809609
1755645643558,0.01502538,-0.13206389,-0.06219517,0.01408467,-0.00783034,-0.00316107,0.99763274,-0.00338767,0.00908685,0.06807981
1755645643569,-0.00317238,-0.04532347,0.03724593,-0.00772421,-0.00509755,0.00172295,0.99763218,-0.00343208,0.00905754,0.06808972
1755645643580,-0.14167384,-0.12041031,0.08398572,-0.01076982,-0.00274491,-0.00904815,0.99763542,-0.00348970,0.00904285,0.06804131
1755645643592,-0.05899899,-0.00936637,-0.00188462,-0.00992936,-0.00903900,0.00553805,0.99763355,-0.00354580,0.00899178,0.06807260
1755645643603,-0.00875914,0.09578540,0.02383718,-0.00344313,-0.01090514,-0.00089103,0.99763436,-0.00356491,0.00893126,0.06806765
1755645643614,0.14930442,0.10511411,-0.07273871,0.01342711,-0.01197819,-0.00046868,0.99763540,-0.00348972,0.00886418,0.06806503
1755645643626,0.01678367,0.03985463,0.08165596,0.00755791,-0.01541277,0.00561295,0.99763409,-0.00344475,0.00877247,0.06809843
1755645643636,0.05471218,-0.00069998,-0.02491928,0.00391183,-0.01127340,0.00613278,0.99763245,-0.00342382,0.00871216,0.06813124
1755645643648,-0.09776453,0.00641730,-0.04359050,-0.00149690,-0.01093449,0.00249937,0.99763200,-0.00343228,0.00865038,0.06814536
1755645643661,-0.05152396,-0.03603983,-0.00040573,-0.00328646,-0.00206312,0.00040153,0.99763186,-0.00345348,0.00863707,0.06814795
1755645643669,0.13485457,-0.08300809,-0.13968999,-0.00392372,-0.00631817,0.00644638,0.99763014,-0.00347035,0.00860991,0.06817567
1755645643680,0.00479265,-0.07070277,0.05071654,-0.01067218,-0.00125255,-0.00299002,0.99763113,-0.00352958,0.00860295,0.06815907
1755645643692,0.00365430,-0.02139794,0.02705805,-0.00775973,-0.00270805,-0.00555172,0.99763329,-0.00357420,0.00858738,0.06812715
1755645643703,0.01981110,0.03437494,0.05003106,-0.00419911,0.00082418,-0.01038167,0.99763706,-0.00359729,0.00859192,0.06807005
1755645643714,-0.12856870,0.08423466,-0.03152642,0.00937847,-0.00771398,-0.00141906,0.99763814,-0.00354571,0.00854949,0.06806225
1755645643725,0.03869280,0.17157569,0.03381270,0.00518203,-0.00127913,-0.00050111,0.99763850,-0.00351643,0.00854226,0.06805942
1755645643737,-0.02466095,0.02595974,-0.00389640,0.02009571,-0.01173657,0.00029458,0.99763936,-0.00340189,0.00847536,0.06806110
1755645643747,0.00193647,0.08348351,-0.04367823,0.02241176,-0.01739849,0.00405501,0.99763906,-0.00328087,0.00838141,0.06808299
1755645643759,0.01655568,-0.07722865,0.07916170,0.02442955,-0.01256838,0.00904039,0.99763648,-0.00313551,0.00830663,0.06813678
1755645643770,0.00834729,-0.05485601,0.00205731,0.00391599,-0.01297015,-0.00479701,0.99763892,-0.00311417,0.00823594,0.06811064
1755645643781,-0.16236740,-0.51507623,0.15746762,0.00310159,-0.02226995,-0.00742450,0.99764280,-0.00309695,0.00811234,0.06806943
1755645643792,-0.01375327,-0.16678838,0.05235554,-0.00931092,-0.01618142,0.00214363,0.99764255,-0.00314770,0.00802416,0.06808112
1755645643803,-0.03080786,0.06639259,0.13933812,-0.02169371,-0.01180154,0.00022506,0.99764261,-0.00326701,0.00795925,0.06808235
1755645643814,0.04801754,0.39586393,-0.10996172,-0.01051150,-0.00942045,-0.00307041,0.99764400,-0.00332588,0.00790649,0.06806516
1755645643825,-0.02279741,0.12620643,-0.09015300,0.00809686,-0.00937559,0.00159806,0.99764396,-0.00328094,0.00785446,0.06807403
1755645643837,0.00947026,0.08131535,0.00922235,0.02523622,-0.00366711,-0.00724390,0.99764740,-0.00313709,0.00783356,0.06803274
1755645643848,-0.03584951,0.14724269,0.09115145,0.01024337,-0.00881047,-0.00465152,0.99764972,-0.00308024,0.00778466,0.06800692
1755645643859,0.00141706,-0.04963349,0.00389792,0.01726657,-0.00778684,-0.00627935,0.99765283,-0.00298096,0.00773988,0.06797082
1755645643870,-0.00207516,0.05673141,0.00479909,0.01219105,-0.01075171,-0.00493625,0.99765529,-0.00291513,0.00768182,0.06794416
1755645643882,0.38427770,-0.02241033,0.16150996,0.00735774,-0.01077029,-0.00248627,0.99765684,-0.00287356,0.00762097,0.06793011
1755645643893,0.03474693,-0.08676383,-0.00048705,0.03484863,-0.01004000,-0.00916174,0.99766138,-0.00267492,0.00756374,0.06787789
1755645643904,0.01147031,-0.06407336,0.05570932,0.02250721,-0.01504412,-0.00437891,0.99766399,-0.00255001,0.00748025,0.06785359
1755645643916,-0.42771541,-0.02286629,-0.10385208,-0.00106603,-0.01725454,-0.01059547,0.99766890,-0.00255619,0.00738017,0.06779213
1755645643926,-0.03292630,-0.08498643,0.10221786,0.00332744,-0.02077161,0.01122548,0.99766570,-0.00253855,0.00727008,0.06785163
1755645643938,-0.02455658,0.03007993,-0.10820008,0.01575226,-0.00965401,0.00546938,0.99766410,-0.00244246,0.00721119,0.06788499
1755645643949,-0.00824324,0.03923078,0.01400680,0.03332440,-0.00517344,0.02787374,0.99765447,-0.00226251,0.00718326,0.06803551
1755645643959,0.01210661,0.18791642,0.00455171,0.03301055,0.00991782,0.04232333,0.99764046,-0.00210241,0.00723136,0.06824078
1755645643971,-0.04399987,0.00520260,-0.15675120,0.03072576,0.00416727,0.02448917,0.99763083,-0.00192267,0.00725574,0.06838404
1755645643982,-0.33705300,-0.18760222,0.12717868,0.02931185,0.00008766,-0.01924245,0.99763899,-0.00174826,0.00725626,0.06826955
1755645643993,0.06141282,-0.01724027,0.16080231,0.00235028,-0.00036358,-0.02010606,0.99764590,-0.00173651,0.00725444,0.06816902
1755645644003,-0.01741333,0.00532785,0.00630111,-0.01021978,-0.01911377,0.00088766,0.99764622,-0.00179221,0.00715027,0.06817386
1755645644015,0.35593517,0.05196806,-0.10507526,-0.01395539,-0.01387994,0.00395247,0.99764511,-0.00187105,0.00707185,0.06819619
1755645644026,-0.05116347,-0.03202265,0.03123493,-0.02312095,-0.01933733,0.00295019,0.99764450,-0.00199938,0.00696453,0.06821256
1755645644037,-0.00575710,-0.08430849,0.06267626,-0.02644581,-0.00651550,0.00677804,0.99764182,-0.00214879,0.00692771,0.06825086
1755645644048,0.00359107,-0.02722315,0.08080321,-0.03184124,0.00260565,0.02109917,0.99763323,-0.00232711,0.00694231,0.06836901
1755645644060,0.01791314,-0.09951834,-0.04647913,0.00107969,-0.01004317,0.02524314,0.99762386,-0.00232100,0.00688556,0.06851164
1755645644071,0.01834881,0.08592602,0.02582361,-0.00394178,-0.01112213,0.00935864,0.99762066,-0.00234288,0.00682383,0.06856358
1755645644082,0.48585485,-0.12664267,0.21436548,0.00781899,-0.01074923,-0.00782114,0.99762412,-0.00229988,0.00676471,0.06852056
1755645644093,-0.00692127,0.12645077,-0.06444286,0.02558081,-0.01318292,-0.00252635,0.99762594,-0.00215407,0.00668957,0.06850616
1755645644105,0.01300695,0.07662240,0.00094884,0.05728456,-0.00965646,-0.01038667,0.99763107,-0.00182468,0.00663405,0.06844644
1755645644116,-0.36484376,0.27103801,-0.09800786,0.03210521,-0.01162899,0.00839291,0.99762858,-0.00164489,0.00656892,0.06849344
1755645644126,0.02905895,-0.00435884,0.10190908,0.00131705,-0.01780611,0.01510626,0.99762376,-0.00163798,0.00647544,0.06857274
1755645644138,0.00316776,-0.11470473,-0.01951343,-0.00051912,-0.01746634,0.00011789,0.99762434,-0.00164088,0.00637763,0.06857340
1755645644148,0.03613370,-0.10638571,0.10484093,0.00427914,-0.01804496,-0.00338435,0.99762614,-0.00161906,0.00628560,0.06855614
1755645644159,-0.00232481,-0.01195353,-0.09346819,-0.01049780,-0.00793855,-0.00702656,0.99762906,-0.00167837,0.00624075,0.06851644
1755645644170,-0.06029506,-0.04132977,0.01308305,0.00072971,-0.00210902,-0.01692324,0.99763558,-0.00167432,0.00622904,0.06842252
1755645644182,-0.15611939,-0.27488913,0.25955116,0.00375501,0.00224037,-0.01577795,0.99764159,-0.00165329,0.00624159,0.06833416
1755645644192,-0.00997846,0.01140395,0.03801317,-0.00005416,-0.00483680,-0.02174675,0.99765010,-0.00165360,0.00621450,0.06821238
1755645644205,0.07045508,-0.07534038,-0.08069457,0.00312193,-0.00720060,-0.02208215,0.99765952,-0.00163471,0.00617094,0.06807878
1755645644219,0.14574661,0.23922333,-0.22062491,0.00154256,-0.01226549,-0.01094071,0.99766546,-0.00162360,0.00608263,0.06800001
1755645644226,0.48520756,0.41219647,0.80484667,-0.00247978,-0.04826009,-0.01157936,0.99766933,-0.00163253,0.00590889,0.06795833
1755645644237,-0.17451810,-0.07830941,-0.44425722,0.00713148,-0.02399416,0.00349242,0.99766885,-0.00159295,0.00577572,0.06797771
1755645644249,0.01054868,0.02797694,-0.04839255,0.01782536,-0.01682329,-0.00726905,0.99767238,-0.00149135,0.00567983,0.06793628
1755645644260,0.01960895,-0.01848548,0.05696880,0.00361220,-0.02506249,-0.00222405,0.99767402,-0.00147148,0.00554199,0.06792404
1755645644271,0.03515367,-0.07262432,-0.06063201,0.00142129,-0.02355961,-0.00926587,0.99767832,-0.00146345,0.00540888,0.06787169
1755645644282,0.20526178,-0.19041402,0.12533846,-0.00421438,-0.02799531,-0.02127328,0.99768706,-0.00148663,0.00525490,0.06775469
1755645644293,0.00378404,-0.04431990,-0.05619037,-0.00496539,-0.04354455,-0.01314900,0.99769327,-0.00151443,0.00501105,0.06768105
1755645644305,0.01933202,-0.00009492,-0.02493230,-0.00133267,-0.03224177,-0.01141391,0.99769867,-0.00152216,0.00482405,0.06761485
1755645644316,-0.07295513,0.10071857,-0.12696376,-0.00381263,-0.03984619,-0.00414044,0.99770131,-0.00154390,0.00459693,0.06759125
1755645644327,0.14739327,-0.04889871,0.03699059,-0.00778514,-0.04755743,-0.00194875,0.99770306,-0.00158477,0.00434725,0.06758102
1755645644338,0.06929245,-0.11641789,-0.13548856,-0.01576194,-0.05616251,-0.00678603,0.99770674,-0.00167146,0.00403836,0.06754370
1755645644349,0.08036457,-0.06869053,0.00563545,-0.04299789,-0.05937642,-0.00829956,0.99771078,-0.00191440,0.00370288,0.06749681
1755645644361,-0.00609552,-0.07117932,-0.05956595,-0.03392416,-0.05686143,-0.00738940,0.99771464,-0.00212133,0.00335602,0.06745173
1755645644371,0.23591181,-0.06564516,0.10005540,-0.04145788,-0.07456750,-0.02790543,0.99772468,-0.00232655,0.00298692,0.06731360
1755645644382,-0.17396246,-0.14057977,-0.05322370,-0.04040614,-0.06720027,-0.02804558,0.99773587,-0.00255485,0.00260723,0.06715514
1755645644394,0.06032908,0.03810988,-0.05281475,-0.04192305,-0.09281297,-0.04116638,0.99775195,-0.00278961,0.00208748,0.06692461
1755645644405,0.18827010,0.05755508,0.01168167,-0.02869523,-0.10207431,-0.02940421,0.99776335,-0.00294744,0.00152607,0.06676289
1755645644416,0.07575912,0.33707050,-0.11517255,-0.01240929,-0.10012052,-0.01892298,0.99777126,-0.00302003,0.00094037,0.06665219
1755645644428,0.04813377,0.08742622,0.01760952,-0.00898238,-0.10169244,-0.02674582,0.99778147,-0.00307033,0.00037089,0.06650241
1755645644438,-0.03015457,0.09317369,0.02128558,-0.01074925,-0.08791275,-0.03123510,0.99779268,-0.00312892,-0.00010823,0.06633218
1755645644450,-0.07405716,0.00570428,0.02141247,-0.01087933,-0.07760340,-0.01886521,0.99779943,-0.00319039,-0.00054669,0.06622559
1755645644461,-0.04341164,-0.01960526,-0.03734334,0.00128186,-0.07894055,-0.02111637,0.99780702,-0.00318314,-0.00099271,0.06610628
1755645644472,-0.01844311,0.02883366,0.07518533,-0.00168585,-0.08651321,-0.03875919,0.99782074,-0.00319258,-0.00147718,0.06588923
1755645644483,0.37622913,0.08309476,0.14831883,-0.00125972,-0.09341596,-0.03999502,0.99783360,-0.00319913,-0.00196294,0.06568126
1755645644494,-0.07404934,0.00277382,-0.06165242,-0.00267770,-0.09471865,-0.02025593,0.99783988,-0.00321426,-0.00249811,0.06556681
1755645644505,-0.02614041,-0.01192153,0.00264834,-0.00037592,-0.08792462,-0.01354601,0.99784359,-0.00321643,-0.00300367,0.06548892
1755645644517,-0.22173016,-0.03174590,-0.16700593,-0.00242262,-0.09719649,-0.01578011,0.99784759,-0.00323011,-0.00355283,0.06539976
1755645644528,0.07182465,-0.05690298,-0.07636197,0.00770660,-0.10946472,-0.00071014,0.99784568,-0.00318811,-0.00414941,0.06539589
1755645644539,0.04181427,-0.00719459,-0.00476213,-0.00876316,-0.10717890,-0.00100368,0.99784319,-0.00323762,-0.00475498,0.06539022
1755645644550,0.04154447,-0.13256887,0.00373433,-0.00617472,-0.12427695,-0.00645956,0.99784187,-0.00327251,-0.00545714,0.06535373
1755645644561,0.17867160,-0.02074495,-0.03662899,-0.02351758,-0.14850072,-0.01725263,0.99784282,-0.00339598,-0.00623677,0.06526315
1755645644572,-0.01571532,0.05475246,0.01909845,-0.03014089,-0.14760604,-0.00584833,0.99783882,-0.00356627,-0.00707074,0.06523011
1755645644583,-0.10536417,-0.26618729,-0.10012429,-0.01178907,-0.15520095,0.01118876,0.99782815,-0.00363111,-0.00792435,0.06529165
1755645644594,0.05268637,0.12241005,-0.14048526,0.01031566,-0.14679398,-0.00406700,0.99782303,-0.00357386,-0.00873905,0.06526907
1755645644606,-0.04002599,0.18196062,-0.13063717,0.01220312,-0.14196423,0.02695840,0.99780549,-0.00350308,-0.00956245,0.06542543
1755645644617,0.25420165,0.39761702,-0.15373708,0.06239462,-0.13983344,0.00553983,0.99779689,-0.00315679,-0.01033852,0.06545618
1755645644628,-0.08658250,0.11098103,-0.02231558,0.04987684,-0.12646399,-0.01602984,0.99779600,-0.00287000,-0.01106569,0.06536401
1755645644639,0.10300854,-0.00736528,-0.11163412,0.03914988,-0.15094899,-0.03697796,0.99780013,-0.00266642,-0.01185063,0.06517172
1755645644650,-0.08065477,-0.08428713,0.07625542,0.00676475,-0.13496342,-0.02584101,0.99780041,-0.00262955,-0.01258618,0.06503089
1755645644661,-0.07688789,-0.19915308,0.03473959,0.00859695,-0.12817231,-0.00634597,0.99779348,-0.00258098,-0.01331035,0.06499503
1755645644673,-0.14868547,-0.11058702,0.05397051,-0.00406131,-0.11431257,-0.01900104,0.99779152,-0.00260454,-0.01397336,0.06488483
1755645644684,0.32721300,0.00616085,-0.14502738,-0.00780711,-0.09343551,-0.01357874,0.99778886,-0.00264865,-0.01450127,0.06480811
1755645644694,-0.02581636,0.02367775,0.01018110,-0.00392336,-0.09254054,-0.01747945,0.99778758,-0.00266925,-0.01498711,0.06471634
1755645644705,-0.19856466,-0.01238438,-0.04024922,0.02261872,-0.08202621,-0.00809085,0.99778388,-0.00254371,-0.01544236,0.06467144
1755645644717,-0.43073529,0.01817124,0.15330957,0.02845069,-0.05927618,-0.02508586,0.99778821,-0.00238297,-0.01577727,0.06452970
1755645644728,-0.18736687,0.07051160,-0.13001162,0.02932443,-0.04764066,-0.01897886,0.99779115,-0.00222168,-0.01603929,0.06442532
1755645644739,-0.12709043,0.00184595,0.11162265,0.02114359,-0.02020483,-0.02111519,0.99779727,-0.00210222,-0.01615345,0.06430602
1755645644751,-0.16081002,-0.06739650,-0.01382975,0.02478217,-0.01423195,-0.01950358,0.99780350,-0.00195848,-0.01623599,0.06419290
1755645644762,-0.05991434,0.00056739,0.02913425,0.02486963,-0.00393877,-0.01452065,0.99780868,-0.00181797,-0.01625825,0.06411085
1755645644772,-0.01154942,0.05694335,-0.04026510,0.02465373,-0.01248552,0.00328871,0.99780673,-0.00168854,-0.01632380,0.06412812
1755645644784,-0.21871809,-0.59199733,0.15326384,0.02319260,-0.01229113,-0.00129948,0.99780627,-0.00155634,-0.01639386,0.06412071
1755645644795,0.01189640,0.01492872,-0.06539593,0.03691744,-0.00422819,-0.00268854,0.99780711,-0.00135883,-0.01641648,0.06410633
1755645644805,-0.07060331,-0.02951348,0.06139677,0.01919837,-0.00652934,0.00948156,0.99780344,-0.00125708,-0.01645108,0.06415658
1755645644816,0.13119025,0.48417478,-0.04798266,0.02353517,0.00606406,0.01158766,0.99779999,-0.00112528,-0.01641712,0.06422147
1755645644827,-0.05122290,-0.04453658,0.06769250,0.00610712,-0.00386232,0.02388656,0.99779113,-0.00109139,-0.01643856,0.06435404
1755645644839,-0.05129951,-0.09193208,0.00268170,0.00114873,0.00048152,-0.00843766,0.99779434,-0.00108473,-0.01643577,0.06430510
1755645644850,-0.00912414,-0.09377713,0.10369116,-0.00980551,0.00646060,-0.00300877,0.99779589,-0.00113719,-0.01640120,0.06428901
1755645644861,-0.04552037,0.03646853,0.07174081,-0.01643549,0.00189323,0.00343194,0.99779468,-0.00123169,-0.01639032,0.06430874
1755645644872,-0.00569669,0.04567130,0.00174189,0.00494359,0.00486212,0.00003479,0.99779513,-0.00120499,-0.01636406,0.06430893
1755645644883,0.12236559,0.13182587,0.19275334,0.00856271,0.00142293,0.00474311,0.99779362,-0.00115747,-0.01635616,0.06433525
1755645644895,0.01793285,0.10406201,0.07410307,0.00830547,0.00869259,0.01119974,0.99779020,-0.00110764,-0.01630401,0.06440245
1755645644906,-0.01272458,0.05482892,0.00458137,0.02784193,-0.00281450,0.01801088,0.99778388,-0.00095868,-0.01631907,0.06449881
1755645644916,-0.07085616,0.09798001,-0.11581303,0.01528475,0.00489615,0.00994077,0.99778097,-0.00087767,-0.01629312,0.06455150
1755645644928,-0.05655355,-0.06731199,-0.09395707,0.01934914,-0.00916689,0.01339779,0.99777537,-0.00076932,-0.01634445,0.06462652
1755645644939,-0.00014487,0.08584163,0.12007849,0.01161076,-0.00101067,0.00865815,0.99777209,-0.00070256,-0.01635026,0.06467631
1755645644950,-0.00457050,-0.03236288,-0.01477498,0.03537320,-0.00353537,0.02200480,0.99776382,-0.00050270,-0.01637024,0.06480063
1755645644962,0.00186717,0.11529757,0.01120300,0.04239034,0.01229655,0.00792346,0.99776214,-0.00026319,-0.01630076,0.06484540
1755645644972,-0.07654005,0.10231814,-0.05144135,0.05807302,0.00917220,0.01130856,0.99775910,0.00004169,-0.01625261,0.06490477
1755645644984,-0.22048420,-0.50200823,0.42028008,0.06066507,0.01405846,0.01184390,0.99775588,0.00039355,-0.01617107,0.06497347
1755645644995,-0.02805602,-0.00143127,0.04712905,0.06584842,0.00932507,0.00470533,0.99775477,0.00076888,-0.01611792,0.06500029
1755645645006,-0.00171978,-0.03908827,0.01631631,0.05319677,0.00687750,0.01564648,0.99774950,0.00106147,-0.01608009,0.06508634
1755645645017,0.26856415,0.45585584,-0.57886401,0.05616368,0.00285383,0.01006520,0.99774573,0.00137317,-0.01606425,0.06514220
1755645645029,0.03333429,-0.07896294,-0.03886932,0.04172551,0.00473805,0.01086209,0.99774184,0.00160684,-0.01603772,0.06520303
1755645645040,0.00071269,-0.01078968,-0.02657250,0.02780446,-0.00474949,0.00262815,0.99774020,0.00176115,-0.01606408,0.06521762
1755645645051,0.08756140,0.03434729,-0.04257129,0.05874397,-0.00567459,0.00498209,0.99773726,0.00208718,-0.01609557,0.06524527
1755645645062,0.03194354,0.10392498,-0.04740090,0.05638840,-0.01284381,0.02018477,0.99772782,0.00240859,-0.01616878,0.06536032
1755645645073,0.00306773,-0.01461339,-0.01627230,0.05363370,-0.00741332,0.01684094,0.99772019,0.00270894,-0.01621030,0.06545463
1755645645084,0.45419991,0.09559251,0.31089849,0.05536178,-0.00733047,0.00944592,0.99771530,0.00301066,-0.01625025,0.06550611
1755645645096,0.00483464,-0.02888580,0.01959101,0.03398022,-0.01111321,0.01544395,0.99770788,0.00320435,-0.01631359,0.06559414
1755645645107,0.06834182,-0.01370639,0.05641571,0.02104716,-0.01536959,0.01446248,0.99770088,0.00332011,-0.01639812,0.06567369
1755645645118,-0.35947243,-0.22847697,-0.36631031,0.02232979,-0.01959905,0.00737254,0.99769584,0.00344739,-0.01650984,0.06571571
1755645645129,0.06468443,-0.05115175,-0.03289600,0.03424359,-0.03668519,0.00629261,0.99768947,0.00363744,-0.01671344,0.06575063
1755645645140,0.03821741,0.08611011,-0.01548047,0.03279087,-0.03044903,0.01333719,0.99768107,0.00381943,-0.01688243,0.06582465
1755645645151,0.04633497,0.03655343,-0.02554759,0.04340975,-0.03745903,0.01007391,0.99767281,0.00406253,-0.01709220,0.06588107
1755645645162,-0.02788675,-0.02093331,0.01898051,0.03935557,-0.04898909,-0.00898705,0.99767056,0.00427505,-0.01735675,0.06583254
1755645645174,0.04393503,-0.04209757,-0.00223120,0.02355664,-0.04421679,0.00740368,0.99766264,0.00441168,-0.01761320,0.06587548
1755645645185,-0.03457249,-0.32953966,0.31538120,0.01852399,-0.05372331,0.02726347,0.99764686,0.00451448,-0.01791137,0.06602679
1755645645196,0.01935059,-0.11852234,-0.10449317,0.01873547,-0.06315151,0.02513239,0.99763079,0.00461847,-0.01826186,0.06616628
1755645645207,0.17164185,-0.09690382,-0.02600236,0.00144440,-0.05897372,0.03109445,0.99761388,0.00462619,-0.01857737,0.06633263
1755645645218,0.11212208,0.17045917,-0.28588174,-0.01419552,-0.06721713,0.03115586,0.99759522,0.00454528,-0.01896051,0.06651022
1755645645230,0.06892537,-0.15518178,-0.02100105,0.00493321,-0.07581693,0.01735574,0.99757952,0.00457463,-0.01941162,0.06661349
1755645645240,0.21259872,-0.03414893,-0.07047910,-0.00657619,-0.11109046,-0.02139356,0.99757573,0.00454076,-0.01998373,0.06650331
1755645645251,0.03798284,0.18455775,0.06029811,-0.00025987,-0.10114760,-0.02653532,0.99757416,0.00453933,-0.02054004,0.06635737
1755645645263,0.06292353,0.19401565,-0.02668352,0.02535869,-0.11009456,0.01536017,0.99755472,0.00468261,-0.02116208,0.06644415
1755645645274,0.00154120,0.07124184,0.02955674,0.04598397,-0.10506142,0.01655022,0.99753482,0.00493782,-0.02174517,0.06653600
1755645645285,-0.13712929,-0.16775040,0.77786480,0.02081196,-0.09648481,-0.00535829,0.99752451,0.00505229,-0.02227584,0.06650653
1755645645296,-0.11032458,-0.08302421,0.06324009,0.01516776,-0.08563781,-0.00155253,0.99751383,0.00513723,-0.02275541,0.06649784
1755645645307,0.02470856,-0.03136086,0.02280790,0.00452261,-0.08616216,-0.00320188,0.99750377,0.00516255,-0.02323791,0.06647991
1755645645318,0.08520227,0.21399968,-0.56050885,0.00109711,-0.09428512,-0.01306006,0.99749631,0.00516859,-0.02375648,0.06640808
1755645645329,-0.01335644,0.08347346,0.07913650,0.01049291,-0.09636919,-0.01096188,0.99748709,0.00522735,-0.02429615,0.06634669
1755645645341,-0.06272172,0.14540036,-0.02660922,0.03722854,-0.08845438,-0.00818229,0.99747683,0.00543583,-0.02479150,0.06630087
1755645645352,-0.06082107,0.06747337,-0.01520527,0.05776219,-0.07643790,0.01288354,0.99745949,0.00575930,-0.02521955,0.06637302
1755645645363,-0.13231828,0.11307135,-0.06897102,0.05130141,-0.06122887,0.01614121,0.99744319,0.00604402,-0.02555937,0.06646260
1755645645374,-0.06653160,-0.08640290,0.12917627,0.04759161,-0.05746003,0.01905773,0.99742612,0.00631053,-0.02588114,0.06656933
1755645645385,-0.13943653,-0.05504551,0.41921664,0.02458552,-0.05439172,0.00296629,0.99741627,0.00644698,-0.02618302,0.06658579
1755645645396,-0.07325668,-0.25667877,-0.02773934,0.03406900,-0.05313019,0.00249886,0.99740623,0.00663777,-0.02648055,0.06659978
1755645645407,0.02747524,-0.05352079,0.04346971,0.00545677,-0.03848013,0.01718255,0.99739396,0.00666805,-0.02669411,0.06669515
1755645645418,-0.05403515,0.05880140,-0.47946436,0.02044774,-0.02811866,0.01946811,0.99738189,0.00678052,-0.02684876,0.06680222
1755645645430,-0.12413267,0.11746179,-0.09963883,0.04645050,-0.01033325,0.02126915,0.99737044,0.00704296,-0.02690715,0.06692239
1755645645441,-0.07701617,0.08414273,-0.08849784,0.05676800,0.00210145,0.01929348,0.99736088,0.00737222,-0.02689496,0.06703429
1755645645452,-0.10455868,0.07680319,-0.06047094,0.04912057,0.01703507,-0.01806782,0.99736804,0.00764238,-0.02680127,0.06693492
1755645645463,-0.01829765,-0.06133727,-0.04962075,0.03667925,0.01357098,-0.01772277,0.99737495,0.00784228,-0.02672730,0.06683833
1755645645474,-0.03876297,-0.16290734,0.08146675,0.01639247,0.00771925,-0.00945006,0.99737892,0.00793408,-0.02668408,0.06678541
1755645645486,-0.04137916,-0.27257547,0.54071068,0.01017539,0.01317886,-0.01107131,0.99738454,0.00799055,-0.02661093,0.06672397
1755645645497,-0.04974673,-0.13849977,0.04951985,-0.01026914,0.01001298,-0.01400692,0.99739174,0.00793304,-0.02655486,0.06664553
1755645645508,-0.00102614,-0.00704214,-0.06586611,0.00290331,0.01199473,-0.00609119,0.99739578,0.00794974,-0.02648589,0.06661050
1755645645519,0.05643725,0.14834464,-0.58689097,-0.00298141,0.00909233,0.01479100,0.99739198,0.00793409,-0.02643816,0.06668816
1755645645530,0.02357401,0.15081341,0.00094348,0.02645723,0.01252485,0.01286199,0.99738776,0.00808489,-0.02636676,0.06676147
1755645645541,0.00465291,0.13001266,-0.07423147,0.05441778,0.00779306,0.02123891,0.99737876,0.00837875,-0.02632468,0.06687616
1755645645552,-0.03003459,-0.00465063,0.02105750,0.03472252,0.00564791,0.00397063,0.99737643,0.00857493,-0.02629277,0.06689859
1755645645563,0.00190461,-0.10032719,0.04048960,0.00097713,0.00217773,0.01247739,0.99737213,0.00858026,-0.02628090,0.06696659
1755645645575,-0.00168575,-0.14340897,0.10827178,-0.00160198,0.00316092,-0.00696110,0.99737543,0.00857088,-0.02626241,0.06692587
1755645645586,0.06050608,-0.18971665,0.09649415,-0.01465676,0.00073865,-0.00525749,0.99737814,0.00849101,-0.02625839,0.06689722
1755645645597,0.01276429,0.05139001,0.11919251,-0.02448274,-0.00170801,-0.00615810,0.99738133,0.00835513,-0.02626787,0.06686304
1755645645608,-0.02080188,0.05418164,-0.05805176,-0.00224421,-0.00487852,-0.00752827,0.99738352,0.00834267,-0.02629494,0.06682126
1755645645619,-0.02882237,0.15093539,-0.08835493,0.01368933,-0.00778283,0.00326935,0.99738050,0.00841933,-0.02633852,0.06683957
1755645645630,-0.01086228,0.11316028,-0.02766409,0.02564772,-0.00455957,0.00167968,0.99737804,0.00855911,-0.02636337,0.06684872
1755645645641,-0.03438842,-0.01961810,-0.00705755,0.03106088,-0.00531310,0.00858229,0.99737248,0.00873461,-0.02639339,0.06689721
1755645645653,-0.05836884,0.00234596,0.07721360,0.01887108,-0.00077733,0.00259623,0.99737042,0.00884217,-0.02639782,0.06691201
1755645645663,-0.08796026,-0.04554881,0.00825669,0.00342721,-0.00436990,0.00020843,0.99736956,0.00886051,-0.02642120,0.06691313
1755645645675,0.10935891,-0.10100134,0.11482108,0.00120309,0.00190915,0.00142509,0.99736925,0.00886724,-0.02641051,0.06692111
1755645645686,0.20622143,-0.01805625,0.31550928,-0.00293617,0.00050029,-0.00149552,0.99737003,0.00885080,-0.02640771,0.06691273
1755645645697,-0.06462238,0.05987074,-0.00760263,0.00471600,0.00012634,-0.00213260,0.99737062,0.00887721,-0.02640700,0.06690079
1755645645708,-0.07555117,0.13399641,-0.09883423,0.02883313,0.01109456,0.01090749,0.99736671,0.00903868,-0.02634487,0.06696187
1755645645719,-0.34987279,0.18088265,-0.37421772,0.05587813,0.01115408,0.01734393,0.99735916,0.00934321,-0.02628408,0.06705639
1755645645730,-0.01114305,0.00032547,0.03264973,0.04617074,0.01406892,0.01098635,0.99735460,0.00960408,-0.02620459,0.06711847
1755645645742,-0.05119583,0.05836535,0.04615404,0.02616529,0.01245193,-0.00327331,0.99735624,0.00975060,-0.02613486,0.06710014
1755645645753,0.00304513,-0.09920631,0.00096753,0.02339944,0.02032084,0.01487240,0.99735235,0.00988047,-0.02602208,0.06718268
1755645645764,-0.02387399,-0.11660571,-0.08349698,0.01692733,0.01189401,0.00689313,0.99735051,0.00997695,-0.02595429,0.06722197
1755645645775,-0.01301502,-0.10127691,-0.05040080,0.00290185,0.01187121,0.01965767,0.99734476,0.00999291,-0.02588900,0.06733009
1755645645786,0.04594410,-0.06698093,0.06890750,0.00127070,0.01803278,-0.00098646,0.99734767,0.01000003,-0.02578801,0.06732456
1755645645797,-0.02982311,-0.05309301,0.00118253,0.00416688,0.00622836,0.00843227,0.99734522,0.01002274,-0.02575407,0.06737052
1755645645809,0.02152381,0.05647753,0.01716423,-0.00137714,0.00916117,0.01916119,0.99733931,0.01001496,-0.02570231,0.06747878
1755645645819,-0.03939780,-0.05972982,0.00698235,0.01746224,0.01985457,0.03840460,0.99732707,0.01010926,-0.02559509,0.06768616
1755645645830,-0.10352564,0.09858049,-0.13341155,0.01501457,0.01775931,0.01515737,0.99732303,0.01019259,-0.02549653,0.06777029
1755645645842,0.02571002,0.03186142,-0.01942462,0.00134745,0.01486610,0.02964315,0.99731354,0.01020033,-0.02541105,0.06794074
1755645645853,0.00480820,-0.06638934,-0.08049844,0.02027164,0.01679262,0.02827342,0.99730405,0.01031284,-0.02531785,0.06809765
1755645645864,-0.00157960,-0.09501151,0.03188312,-0.00204668,0.00487597,-0.00214559,0.99730568,0.01030138,-0.02529054,0.06808564
1755645645875,0.11802177,-0.07766373,0.03300422,-0.02306393,0.00676236,-0.01034125,0.99731180,0.01017453,-0.02525335,0.06802876
1755645645886,0.17065059,-0.00616590,0.09974068,-0.03792223,0.00170530,-0.01818663,0.99732121,0.00996027,-0.02524372,0.06792601
1755645645897,0.07181778,-0.08886665,0.01226433,-0.03376943,0.01520200,0.00986221,0.99732147,0.00977791,-0.02516162,0.06797926
1755645645909,-0.13445765,-0.05370267,-0.09761135,-0.02959677,0.02204844,0.01405853,0.99732081,0.00961069,-0.02503705,0.06805869
1755645645920,-0.25448694,-0.06848453,-0.15215684,-0.02779762,0.03075332,0.01053909,0.99732254,0.00945780,-0.02486791,0.06811666
1755645645931,-0.00072571,0.05442794,-0.01479058,-0.03393946,0.03629382,-0.00343973,0.99733069,0.00926774,-0.02466466,0.06809740
1755645645942,0.04242405,-0.01444711,-0.02135944,-0.02448990,0.02283766,-0.00156895,0.99733580,0.00912815,-0.02453449,0.06808845
1755645645953,0.03903642,0.08270501,0.00172842,-0.02380146,0.00853449,-0.02675893,0.99734818,0.00899724,-0.02448755,0.06794128
1755645645964,0.11403213,0.05708423,0.06051456,0.00866675,0.00884293,-0.02857061,0.99735974,0.00904534,-0.02443847,0.06778271
1755645645975,0.02784208,0.17197961,0.06270460,-0.00601071,0.00181746,-0.00014250,0.99736035,0.00901168,-0.02442829,0.06778191
1755645645987,0.08462426,0.20187240,0.22698929,0.00401441,-0.00036289,0.00006830,0.99736007,0.00903396,-0.02443031,0.06778229
1755645645998,0.03161038,-0.02252138,0.08572859,0.00217739,0.00118258,0.01345191,0.99735513,0.00904583,-0.02442386,0.06785561
1755645646009,-0.05476163,-0.06648817,-0.07651458,0.00159065,-0.00431357,0.02961665,0.99734316,0.00905474,-0.02444802,0.06802146
1755645646020,-0.05321843,-0.07412567,0.05701975,0.00465782,0.00466492,0.01832488,0.99733656,0.00908082,-0.02442189,0.06812408
1755645646031,-0.02077596,-0.02805835,-0.02194218,0.01127092,0.00571998,0.01291083,0.99733187,0.00914338,-0.02439015,0.06819573
1755645646042,-0.06223891,0.00235499,-0.02822619,0.01176320,0.01223604,0.00744413,0.99733007,0.00920984,-0.02432101,0.06823779
1755645646053,-0.08757425,0.09387175,0.02873477,0.00374726,0.02080930,-0.00081764,0.99733300,0.00923063,-0.02420552,0.06823325
1755645646065,0.02192606,-0.05192136,-0.03527348,0.01993194,0.04047270,0.00701530,0.99733475,0.00934225,-0.02397887,0.06827254
1755645646076,0.08172831,0.15395332,0.19766846,0.01812112,0.04062320,-0.00647736,0.99734172,0.00944373,-0.02375138,0.06823627
1755645646087,0.20374303,0.19870267,0.29288611,0.02170104,0.03800192,-0.00594526,0.99734777,0.00956309,-0.02354237,0.06820357
1755645646098,-0.02857035,0.07236325,-0.01015988,0.02615941,0.03058584,-0.00274703,0.99735144,0.00970958,-0.02337109,0.06818819
1755645646109,-0.03516218,-0.03706284,-0.25088690,0.02938092,0.04886379,0.00125344,0.99735572,0.00987411,-0.02309746,0.06819520
1755645646120,-0.28091416,-0.14283651,-0.30956415,0.05331733,0.03883794,-0.01477951,0.99736325,0.01016736,-0.02288385,0.06811392
1755645646131,0.02075102,0.07438539,-0.05611686,0.03004485,0.03869280,-0.00835620,0.99736972,0.01033711,-0.02266523,0.06806670
1755645646143,0.01216690,-0.05728544,0.01065138,0.03476236,0.03220560,-0.01263063,0.99737653,0.01053004,-0.02248649,0.06799660
1755645646154,0.04305506,-0.08465882,-0.02322070,0.02995085,0.03551538,-0.00673922,0.99738173,0.01069627,-0.02228938,0.06795920
1755645646165,-0.04817628,-0.05848775,-0.02499649,0.02076989,0.03014405,-0.00997907,0.99738810,0.01081362,-0.02211907,0.06790282
1755645646176,-0.00306841,0.11257746,0.07049231,0.00965003,0.02820785,-0.00512193,0.99739304,0.01086863,-0.02195828,0.06787363
1755645646187,0.00586319,0.17004186,-0.03119590,0.01482600,0.04269032,-0.00262004,0.99739808,0.01094720,-0.02173202,0.06785974
1755645646198,-0.07662431,-0.06115853,-0.02691539,0.02179965,0.02506307,0.00377112,0.99739835,0.01107037,-0.02159042,0.06788105
1755645646209,-0.05593486,-0.16604269,-0.05769255,0.03613095,0.04043513,0.00497533,0.99739906,0.01127270,-0.02136398,0.06790891
1755645646221,-0.08302076,-0.08626664,-0.00246300,0.03695254,0.06036049,0.01077643,0.99739976,0.01147594,-0.02103200,0.06796818
1755645646232,-0.11660539,0.10848439,-0.06600468,0.04236982,0.05836177,0.00429281,0.99740220,0.01171321,-0.02070517,0.06799222
1755645646243,-0.04941712,-0.04371514,-0.04561580,0.05382893,0.07669076,0.00364438,0.99740605,0.01201466,-0.02027570,0.06801263
1755645646254,-0.08824818,0.01309188,-0.04868746,0.03827000,0.08673681,-0.00439640,0.99741480,0.01222706,-0.01979432,0.06798823
1755645646265,-0.04055201,-0.05116627,-0.07697439,0.03542561,0.08843523,-0.00710687,0.99742485,0.01242721,-0.01929466,0.06794807
1755645646276,-0.03275574,0.11921365,-0.04582491,0.03273566,0.10258364,-0.00945270,0.99743689,0.01260726,-0.01873045,0.06789608
1755645646287,-0.01381808,0.16180169,0.05411128,0.08124521,0.11296827,-0.01281910,0.99744751,0.01305817,-0.01810347,0.06782494
1755645646299,-0.09517846,0.38462218,-0.06136900,0.11360232,0.13764158,-0.02850546,0.99746351,0.01369434,-0.01733268,0.06766531
1755645646310,-0.26630381,0.31385529,-0.13545411,0.16903363,0.13251685,-0.04885791,0.99748105,0.01463248,-0.01659721,0.06739414
1755645646321,-0.13013270,0.29267762,0.03870117,0.20607768,0.15542449,-0.05863274,0.99749953,0.01577621,-0.01573461,0.06706873
1755645646332,-0.46144902,1.23349300,-0.01815043,0.25039047,0.14816005,-0.08808820,0.99752216,0.01717839,-0.01490491,0.06657544
1755645646343,0.04133932,-0.02328306,0.01520527,0.33087982,0.17594266,-0.10804338,0.99754296,0.01903132,-0.01391963,0.06597040
1755645646354,-0.35295696,0.45694842,0.02181516,0.44143013,0.20861369,-0.13481417,0.99755780,0.02145919,-0.01277225,0.06522892
1755645646366,-0.18442089,0.00643664,0.33373993,0.44650191,0.24626459,-0.11308559,0.99755860,0.02409355,-0.01131929,0.06456171
1755645646377,0.14301630,0.06855510,0.18753954,0.43316461,0.30918826,-0.10702681,0.99755373,0.02654093,-0.00957238,0.06395701
1755645646388,0.15668123,0.33244979,0.35456007,0.40693431,0.35039302,-0.09675166,0.99754328,0.02863664,-0.00776786,0.06345874
1755645646399,-0.03384474,-0.55649375,0.11674228,0.32503526,0.31469507,-0.08433523,0.99753160,0.03044059,-0.00602130,0.06299068
1755645646411,-0.21925844,-0.75234288,0.08415107,0.27058685,0.28145034,-0.07375778,0.99751749,0.03205058,-0.00434667,0.06255182
1755645646421,-0.98293484,0.06735682,0.18660212,0.26127137,0.30088368,-0.08771533,0.99750724,0.03338306,-0.00281216,0.06210447
1755645646432,0.26638252,-0.35991936,0.02581084,0.22982481,0.23651835,-0.06743812,0.99748946,0.03468157,-0.00147583,0.06172345
1755645646445,0.43801212,-0.44198331,-0.04261354,0.18419061,0.20093023,-0.03177461,0.99746072,0.03588802,-0.00015974,0.06151532
1755645646454,-1.44295201,0.89188889,0.68346670,0.20635047,0.29000172,-0.00047489,0.99742676,0.03680628,0.00113077,0.06151321
1755645646466,0.95539738,-0.74442557,-0.34484268,0.15254779,0.21710363,0.02055653,0.99738338,0.03770631,0.00241168,0.06163449
1755645646479,0.31877093,-0.09462660,0.03572730,0.10125732,0.17408428,0.03351793,0.99734240,0.03834930,0.00351711,0.06184733
1755645646488,-1.02559017,-0.31306456,0.57965102,0.14596992,0.22491190,0.05137708,0.99729749,0.03902076,0.00455171,0.06208367
1755645646499,0.57960069,-0.43491714,-0.27816923,0.07161038,0.14966845,0.03434680,0.99726670,0.03940745,0.00535992,0.06226914
1755645646510,0.25130231,-0.02830023,0.02687581,0.01988898,0.12870901,0.03302777,0.99724678,0.03951784,0.00607425,0.06245244
1755645646522,0.22866300,-0.03940382,-0.19140695,-0.00225391,0.07934035,0.03008971,0.99723251,0.03950386,0.00656616,0.06263900
1755645646533,-0.27477112,-0.07333447,-0.12519310,0.03431912,0.06954275,0.05485746,0.99720449,0.03968575,0.00693474,0.06292975
1755645646545,0.35379618,0.02608035,-0.05263720,0.02025490,0.04962211,0.05859281,0.99717553,0.03980627,0.00722999,0.06327837
1755645646556,0.05530365,-0.26222078,0.00279689,0.03303235,0.05485979,0.08436490,0.99713612,0.03998960,0.00753446,0.06374660
1755645646564,-0.74304485,-0.14631092,0.42910736,-0.00369928,0.05059903,0.11373398,0.99710408,0.03997388,0.00774951,0.06422997
1755645646576,0.82945562,-0.28600690,-0.27056427,-0.02181797,0.02458819,0.08387624,0.99707705,0.03984952,0.00788966,0.06470806
1755645646587,0.20475976,0.04730709,0.12343637,-0.04687759,0.01676649,0.07939901,0.99705797,0.03958935,0.00798272,0.06514873
1755645646600,0.27704086,0.11360976,-0.04461213,-0.03964940,0.01686969,0.06302297,0.99704003,0.03932568,0.00809490,0.06556783
1755645646610,-0.69190537,0.05527065,-0.23446515,-0.02060851,0.00370068,0.06904725,0.99702061,0.03921954,0.00811396,0.06592342
1755645646620,-0.05209956,0.42114481,0.05943692,0.00743277,0.02475894,0.05886242,0.99699929,0.03925559,0.00823404,0.06620890
1755645646633,0.30390625,-0.31679294,-0.11935571,0.03500017,0.01139587,0.03879990,0.99697332,0.03947959,0.00830697,0.06645722
1755645646642,-0.41084907,0.64173946,-0.17850349,0.06798819,0.01784416,0.05641036,0.99694154,0.03980594,0.00839262,0.06672799
1755645646655,0.43476271,-0.08262753,-0.13198913,0.04495783,0.01920464,0.03638692,0.99691313,0.04009591,0.00851649,0.06696269
1755645646666,-0.21997360,-0.06853526,0.00741564,0.03903130,0.01815318,0.03299904,0.99689180,0.04030668,0.00861452,0.06714088
1755645646676,-0.21809496,-0.11198028,0.09600824,0.01767005,0.01887299,0.04067384,0.99687423,0.04039238,0.00870606,0.06733815
1755645646688,0.24121763,-0.05538344,0.07158381,0.00283748,0.02126373,0.02892813,0.99686057,0.04040955,0.00883470,0.06751317
1755645646699,-0.01710228,-0.10274637,-0.03047482,0.00382687,0.01897290,0.01691589,0.99685218,0.04043136,0.00894285,0.06760959
1755645646709,-0.13480061,-0.04086578,-0.08407392,-0.01080576,0.01064907,0.00655770,0.99685167,0.04037733,0.00899609,0.06764238
1755645646722,0.50001144,-0.11577606,-0.20828247,-0.02078822,0.00688138,0.02370611,0.99684647,0.04024741,0.00903910,0.06779054
1755645646734,-0.03908711,-0.02323744,-0.04099971,-0.01790139,-0.00902146,0.00975969,0.99684730,0.04014089,0.00898542,0.06784861
1755645646743,-0.30681312,-0.03232541,-0.12611461,-0.01596221,0.00678664,0.01546809,0.99684520,0.04006986,0.00901562,0.06791744
1755645646754,0.27351861,0.07376263,0.02195367,-0.02190807,0.00349445,0.02006461,0.99684228,0.03994718,0.00903519,0.06802980
1755645646765,0.02235043,0.03800147,-0.03682211,-0.02582545,0.00994586,0.02021716,0.99683978,0.03979997,0.00909188,0.06814504
1755645646776,0.00492676,-0.18412338,0.04562665,-0.01676377,0.00254932,0.01729615,0.99683680,0.03970693,0.00910603,0.06824104
1755645646788,0.18859142,-0.07753750,0.17111724,-0.03355659,0.00841409,0.02310353,0.99683484,0.03950559,0.00915652,0.06837966
1755645646800,-0.04964331,-0.09491822,-0.02887885,-0.04191000,0.00211595,0.01834116,0.99683697,0.03926880,0.00916847,0.06848329
1755645646811,0.03873697,-0.03789695,-0.09263272,-0.05118415,0.00462702,0.02017145,0.99684035,0.03896938,0.00919554,0.06860129
1755645646822,-0.05880589,-0.03761847,-0.14497067,-0.06997601,0.00924098,0.01551657,0.99684882,0.03859150,0.00924544,0.06868508
1755645646832,-0.13154912,-0.10995373,-0.05250012,-0.06996026,0.01362904,0.00696102,0.99685906,0.03824870,0.00931222,0.06871919
1755645646844,0.20805281,0.16252946,-0.03001933,-0.03864242,0.00379753,0.00726903,0.99686495,0.03800718,0.00933596,0.06876462
1755645646854,-0.17910687,0.04218251,-0.03121983,-0.01296495,0.01418495,0.00850703,0.99686384,0.03794366,0.00940546,0.06880630
1755645646866,0.20240664,0.20811293,-0.00701140,0.01426084,0.00464637,0.00612248,0.99685813,0.03802423,0.00943172,0.06884089
1755645646877,-0.00571940,0.12387374,-0.02472592,-0.00142865,-0.00011722,0.00481955,0.99685661,0.03801637,0.00943107,0.06886740
1755645646888,0.04184366,-0.02570074,0.00270930,0.01473644,-0.00803860,0.00826359,0.99685026,0.03810479,0.00938284,0.06891698
1755645646899,-0.02085911,-0.08710240,0.06590923,-0.01894908,-0.01593229,0.01118366,0.99685079,0.03800341,0.00929760,0.06897682
1755645646911,0.27615495,-0.17271794,0.08515220,-0.03159820,-0.01165804,0.00581164,0.99685601,0.03782172,0.00923057,0.06901023
1755645646922,0.10380857,-0.04606735,0.18971370,-0.08085736,-0.01650734,-0.01245440,0.99687816,0.03738105,0.00914060,0.06894236
1755645646933,0.07303365,0.01801217,0.03268399,-0.03267539,-0.03033383,-0.00088804,0.99688697,0.03719644,0.00896922,0.06893734
1755645646944,0.06150216,0.16072325,0.00079769,-0.00858411,-0.02487451,0.00119386,0.99688961,0.03714708,0.00882619,0.06894420
1755645646955,0.05653127,0.11513105,-0.01335125,-0.00047818,-0.01729330,0.00778859,0.99688767,0.03714457,0.00873540,0.06898509
1755645646966,0.04197287,-0.02150912,0.04358843,-0.00895748,-0.02002531,0.00077395,0.99689022,0.03709440,0.00862326,0.06898943
1755645646978,-0.01947440,-0.14780613,0.05011772,-0.02458015,-0.02461974,0.01195890,0.99689193,0.03695184,0.00848046,0.06905879
1755645646989,-0.10698927,-0.10361274,0.19142617,-0.05548325,-0.03929461,-0.00898374,0.99690903,0.03663558,0.00825648,0.06900758
1755645647002,0.08405825,0.00596433,0.08237165,-0.04349956,-0.03841787,-0.01355328,0.99692666,0.03636589,0.00801829,0.06892355
1755645647012,0.25861578,0.15744845,0.08447499,-0.04673016,-0.04899473,0.00664970,0.99693512,0.03612289,0.00776352,0.06895813
1755645647022,0.08202989,0.23697329,-0.06708347,-0.00181075,-0.05901237,-0.00856447,0.99694061,0.03611393,0.00747141,0.06891574
1755645647034,0.02389155,0.25850660,-0.10266541,0.02434345,-0.02799476,-0.00763708,0.99693968,0.03626729,0.00729504,0.06886762
1755645647044,0.03643368,0.16492171,0.13427799,0.04395437,-0.04309916,0.00004304,0.99693346,0.03647827,0.00708817,0.06886783
1755645647055,-0.02125361,0.03322488,-0.03411470,0.03391671,-0.02936859,-0.02168820,0.99693605,0.03666990,0.00692223,0.06874529
1755645647066,0.00885152,-0.12704976,0.04645680,0.01567254,-0.03549263,-0.02123213,0.99694237,0.03675767,0.00672347,0.06862639
1755645647078,-0.15250854,-0.10803040,0.16588860,-0.00870844,-0.04144331,-0.01532557,0.99695185,0.03670759,0.00648518,0.06853827
1755645647089,-0.05827334,-0.03779724,0.23348441,-0.01819303,-0.02702086,-0.00110886,0.99695682,0.03660935,0.00633926,0.06853228
1755645647100,-0.02145408,-0.10584355,-0.15247178,0.02620661,-0.02231065,-0.01248780,0.99695701,0.03675873,0.00621209,0.06846110
1755645647112,0.13431779,0.13560004,-0.19061251,0.02605576,-0.02151859,-0.00887029,0.99695573,0.03690985,0.00608728,0.06840965
1755645647122,0.13208932,0.16008582,-0.23209380,0.04698344,-0.02076174,0.00035939,0.99694701,0.03715887,0.00597725,0.06841156
1755645647134,0.01230945,0.03822834,-0.02467270,0.03945107,-0.02700842,-0.00723449,0.99694243,0.03737979,0.00582600,0.06837104
1755645647145,-0.03445209,-0.07356711,-0.02788579,0.01716217,-0.04015927,-0.02214221,0.99694894,0.03748105,0.00558906,0.06824041
1755645647156,0.10903350,-0.07383746,0.00971304,-0.02922028,-0.03258810,-0.02675505,0.99696524,0.03732764,0.00541797,0.06809994
1755645647169,-0.05100488,-0.15945535,0.02717069,-0.02715647,-0.03457664,-0.00700575,0.99697589,0.03715520,0.00519841,0.06805546
1755645647178,-0.07845048,0.07381628,0.21388642,-0.03320650,-0.06734541,-0.01271770,0.99698761,0.03699581,0.00487515,0.06799441
1755645647189,0.00724135,0.11457664,0.07474164,-0.02412947,-0.03110454,0.00870382,0.99699011,0.03686189,0.00470252,0.06804272
1755645647200,-0.03241223,0.08465882,-0.05031153,0.00818184,-0.03057285,0.01364383,0.99698404,0.03690730,0.00453284,0.06811844
1755645647212,0.06747337,-0.05245218,-0.06982779,0.01283819,-0.03367797,0.02383370,0.99697309,0.03697919,0.00434425,0.06825191
1755645647223,0.01125617,-0.13042209,-0.03790642,0.00980195,-0.04357985,0.01121091,0.99696783,0.03703359,0.00410238,0.06831413
1755645647234,-0.02303478,-0.09549524,-0.00044520,-0.01673565,-0.04813878,-0.01053807,0.99697643,0.03693987,0.00383280,0.06825512
1755645647245,0.01425494,-0.04894195,0.07602633,-0.00995392,-0.05492669,-0.00510256,0.99698158,0.03688413,0.00352521,0.06822654
1755645647256,0.01853142,0.08315380,-0.06842370,0.01864128,-0.03874572,0.01529012,0.99697259,0.03698852,0.00330824,0.06831217
1755645647269,-0.13633078,0.13033220,-0.10350027,0.02880822,-0.04353718,0.01279088,0.99696110,0.03717145,0.00303178,0.06839339
1755645647279,0.01770129,0.06872559,0.07084127,0.05174091,-0.02602880,0.01593744,0.99694604,0.03743533,0.00289903,0.06847467
1755645647290,-0.13232366,-0.03557157,-0.01772095,0.01921778,-0.03868287,0.02341842,0.99693448,0.03753526,0.00269788,0.06859644
1755645647301,0.00665010,-0.17237224,-0.06237079,0.02126406,-0.01768225,0.00607851,0.99692803,0.03765222,0.00260063,0.06862988
1755645647312,0.00998086,-0.01956706,-0.00179927,-0.02298020,-0.01711129,0.00276247,0.99693209,0.03752238,0.00250395,0.06864548
1755645647324,0.02381760,-0.14566892,-0.03121400,-0.01830280,-0.01330146,-0.00221713,0.99693738,0.03741165,0.00242347,0.06863207
1755645647343,-0.01331386,0.00074641,-0.05986527,-0.01411326,-0.00674395,0.00047858,0.99694224,0.03727757,0.00235941,0.06863662
1755645647354,0.10926863,0.14555860,0.36894103,0.00809635,-0.02405919,-0.03059704,0.99695236,0.03732170,0.00222828,0.06846986
1755645647365,-0.04363433,0.18423287,-0.26287659,0.02751470,-0.01304052,-0.00999630,0.99695057,0.03747715,0.00215460,0.06841338
1755645647377,-0.11910125,0.08306865,-0.11048118,0.02137023,-0.01092795,-0.00573197,0.99694831,0.03760110,0.00209122,0.06838014
1755645647388,-0.26177924,-0.03038126,-0.06856113,0.00993083,-0.01728803,-0.00836329,0.99694961,0.03765622,0.00199527,0.06833372
1755645647399,0.03631724,-0.07083460,-0.00595475,-0.00389919,-0.01144092,-0.01054524,0.99695465,0.03763419,0.00193063,0.06827414
1755645647411,0.18997370,-0.10894082,0.03932114,-0.01176455,-0.01194579,-0.00757954,0.99696027,0.03756713,0.00186254,0.06823094
1755645647422,0.14199918,-0.09033129,-0.00473497,-0.00382711,-0.01354007,-0.01128650,0.99696554,0.03754570,0.00178672,0.06816773
1755645647433,-0.00891072,0.03139175,-0.01257004,-0.00332054,-0.01346647,-0.01881110,0.99697364,0.03752694,0.00171063,0.06806145
1755645647444,0.01896874,-0.00363732,0.00127832,0.00550813,-0.00708999,-0.00726839,0.99697533,0.03755778,0.00167093,0.06802075
1755645647456,-0.06407968,0.09369595,-0.00873568,0.00639373,-0.01114290,-0.00586142,0.99697633,0.03759391,0.00160797,0.06798763
1755645647467,0.00102746,0.04794408,0.01794638,0.02613315,-0.00525838,-0.00390699,0.99697237,0.03773895,0.00157879,0.06796595
1755645647478,0.06387478,0.08640695,0.03465193,0.02598927,-0.00780267,0.00395066,0.99696535,0.03788579,0.00153470,0.06798827
1755645647490,0.05373999,0.01929730,0.14310461,0.02146828,-0.01115062,0.00954410,0.99695679,0.03801245,0.00146891,0.06804458
1755645647500,0.02932022,-0.01029489,-0.03157700,0.00707168,-0.01301459,-0.00325882,0.99695663,0.03804993,0.00139993,0.06802731
1755645647512,-0.03460865,-0.18367377,-0.16462778,0.01002177,-0.01722602,0.00375517,0.99695315,0.03810655,0.00130261,0.06804852
1755645647523,-0.02894109,-0.03781014,-0.13070170,-0.00486365,-0.02061241,0.00111634,0.99695392,0.03807907,0.00118615,0.06805483
1755645647534,0.00840225,-0.08542290,0.01867167,-0.00994670,-0.02701725,0.00158006,0.99695562,0.03802287,0.00103350,0.06806376
1755645647545,0.01671972,-0.10442055,-0.05103821,-0.01052431,-0.03760699,0.00617824,0.99695570,0.03796551,0.00082854,0.06809743
1755645647557,0.06742786,0.00456514,0.13138690,-0.00680318,-0.03192540,0.01717034,0.99695067,0.03792708,0.00064816,0.06819444
1755645647567,0.01337666,0.07754291,-0.10811434,0.01082669,-0.03275658,0.02256521,0.99694010,0.03798608,0.00046964,0.06831742
1755645647579,0.05275199,0.11039076,-0.11044743,0.02476677,-0.03354491,0.02440654,0.99692550,0.03812478,0.00028179,0.06845410
1755645647590,0.03689796,0.04825775,0.04251565,0.02034103,-0.01324802,0.02174096,0.99691222,0.03824377,0.00020429,0.06858128
1755645647602,-0.08159553,-0.00486092,-0.09135983,0.02488677,-0.01367430,0.00387548,0.99690490,0.03839309,0.00012224,0.06860454
1755645647612,-0.00978594,0.00899342,-0.07112035,0.00078563,-0.00587875,0.01826223,0.99689891,0.03839675,0.00009491,0.06868946
1755645647623,-0.09213376,-0.12105040,0.03907570,0.00249313,-0.00559129,0.00492311,0.99689650,0.03841058,0.00006387,0.06871678
1755645647683,-0.02422107,-0.00714513,0.02891947,-0.00305130,0.00022612,-0.00121471,0.99690254,0.03831889,0.00007067,0.06868028
1755645647699,0.38078281,-0.43746923,0.16746899,-0.05170270,-0.02635192,0.00015023,0.99691836,0.03790268,-0.00014146,0.06868149
1755645647744,-0.11447599,0.14632921,-0.02589290,0.01788490,-0.00826633,0.00646594,0.99689296,0.03830420,-0.00032704,0.06882665
1755645647773,0.15067653,-0.02594797,-0.14741486,-0.00921037,-0.02983443,0.01915983,0.99687828,0.03816743,-0.00077008,0.06911117
1755645647777,14.66643693,-3.26818415,-10.83583199,-0.09597668,-0.29918129,0.12796146,0.99686860,0.03799947,-0.00129365,0.06933510
1755645647809,-1.50590439,0.28798762,1.06396150,-0.04758586,-0.06921566,-0.01472427,0.99691124,0.03724523,-0.00239072,0.06910172
1755645647866,-0.07964980,0.03720185,0.08926218,-0.02434395,-0.03348199,0.00276466,0.99692886,0.03654534,-0.00335333,0.06918121
1755645647895,0.75268744,-0.17691391,-0.22360539,-0.06449581,-0.19426904,0.00762991,0.99694157,0.03561015,-0.00617023,0.06929184
1755645647899,39.92163000,-2.12796734,-7.34995338,-0.26695667,-1.26832594,0.07124307,0.99693263,0.03511628,-0.00851663,0.06942364
1755645647950,-3.21615527,0.28934171,0.67418810,-0.00805125,-0.08035725,0.00530814,0.99691094,0.03491218,-0.01055369,0.06955820
1755645647972,0.54437185,-0.00611957,-0.00879479,-0.00818421,-0.14091736,-0.01632802,0.99690891,0.03482011,-0.01213901,0.06937451
1755645647987,0.76321375,0.66605687,0.46635882,0.02266057,-0.21229936,-0.03123157,0.99689873,0.03498780,-0.01371002,0.06914340
1755645648028,-0.59141506,-0.22438868,-0.11604816,0.02523696,-0.05953821,-0.01458750,0.99688349,0.03550894,-0.01493949,0.06884217
1755645648033,30.32797966,2.50310980,2.76591740,0.05616967,-1.06299712,-0.07280910,0.99684844,0.03564656,-0.01754383,0.06866378
1755645648067,-4.13061419,-0.35104470,-0.30762642,-0.02158222,-0.12515028,0.00431073,0.99681643,0.03527642,-0.01969016,0.06873771
1755645648091,0.17796872,0.06820448,0.00059156,-0.01290661,-0.13720518,0.01272987,0.99677848,0.03512542,-0.02129546,0.06888665
1755645648109,0.23734231,-0.36527822,-0.05357078,-0.00622838,-0.14243316,-0.00426880,0.99675557,0.03507092,-0.02254175,0.06884930
1755645648152,-0.35604435,0.10235399,-0.01808603,-0.00648296,-0.06271362,-0.00437222,0.99673531,0.03492991,-0.02390577,0.06875421
1755645648166,3.00479176,0.27576252,0.30284749,0.02647049,-0.31349875,-0.03813102,0.99669278,0.03511256,-0.02606891,0.06849110
1755645648208,-0.95313449,-0.09114570,-0.08336664,0.00849087,-0.04593540,-0.01172607,0.99667756,0.03529214,-0.02704044,0.06824309
1755645648210,145.93173660,13.75275018,11.59865878,0.19020143,-1.38721907,-0.34203370,0.99665441,0.03549185,-0.02849702,0.06788396
1755645648243,-9.34153453,-0.88748532,-0.66282578,-0.03475476,-0.05798438,-0.00343842,0.99665077,0.03492535,-0.02944217,0.06782791
1755645648296,-0.13977046,-0.03278578,-0.04114515,-0.02585881,-0.02474519,-0.01112456,0.99667507,0.03423751,-0.03010039,0.06753200
1755645648312,1.69106890,0.43875159,0.72384996,0.09062385,-0.21198596,-0.01782441,0.99660645,0.03496703,-0.03180688,0.06738851
1755645648351,-0.58158929,-0.11035721,-0.29715241,-0.01095851,-0.07021986,0.00032726,0.99656875,0.03475279,-0.03317968,0.06739491
1755645648376,0.32720206,-0.29201018,0.08382302,-0.09834057,-0.13113401,0.01501509,0.99654246,0.03353337,-0.03480574,0.06758110
1755645648380,17.20620736,-3.14807083,2.07096716,-0.10517270,-0.60773164,0.12865241,0.99648748,0.03331776,-0.03605159,0.06784484
1755645648429,-1.69128805,0.37231293,-0.28308211,-0.00520148,-0.06615004,-0.01345281,0.99645430,0.03319085,-0.03766565,0.06751659
1755645648443,1.14462696,-0.35156296,0.30750385,-0.13313378,-0.18662675,0.03731502,0.99641528,0.03221897,-0.03902803,0.06778899
1755645648461,-0.37926013,-0.18032598,0.01784208,-0.10565995,-0.11389376,0.00087760,0.99640436,0.03126803,-0.04005307,0.06779689
1755645648476,-0.09274697,0.23834520,-0.00769635,-0.02030520,-0.15340312,-0.00079779,0.99636290,0.03111676,-0.04119592,0.06779094
1755645648495,-0.46623198,0.23866345,-0.06231109,-0.00043315,-0.08617638,0.00013344,0.99632985,0.03111277,-0.04198875,0.06779217
1755645648509,0.01668787,-0.03601863,-0.07694527,-0.00502011,-0.08353086,0.02780875,0.99629101,0.03107587,-0.04260270,0.06799656
1755645648522,0.36634953,-0.06268240,0.15115818,-0.05008990,-0.07179589,0.00260855,0.99628049,0.03076782,-0.04304424,0.06801261
1755645648540,-0.20703936,-0.07466360,-0.08229468,-0.03043220,-0.07261836,-0.00472507,0.99626278,0.03048480,-0.04371959,0.06796866
1755645648546,3.09814977,-1.11342720,0.97876426,-0.12631019,-0.18409831,-0.00513594,0.99625117,0.03011219,-0.04426268,0.06795351
1755645648561,-1.07386242,0.44348550,-0.28448590,-0.07438985,-0.06232918,-0.01050791,0.99625237,0.02955426,-0.04473015,0.06787470
1755645648575,0.07415039,-0.01862228,-0.06757882,-0.04263790,-0.03941492,-0.01880308,0.99625760,0.02926219,-0.04500014,0.06774590
1755645648590,-0.02150323,0.11032653,-0.08329553,-0.02535186,-0.03384023,-0.01289961,0.99625827,0.02906445,-0.04526410,0.06764528
1755645648593,17.23987462,-3.66986496,1.37360498,-0.27269734,-0.11962233,-0.14894670,0.99627522,0.02869631,-0.04542559,0.06744421
1755645648603,-4.22495776,0.64675737,-0.39368969,-0.09001035,-0.02795671,-0.06206251,0.99630293,0.02824175,-0.04556677,0.06713079
1755645648619,-0.47535842,0.10052730,-0.02177334,-0.06171683,-0.02796160,-0.03973184,0.99632714,0.02776345,-0.04578347,0.06682287
1755645648632,0.26857672,-0.20937155,0.07152032,-0.06835300,-0.03474546,-0.05449084,0.99635232,0.02732599,-0.04600584,0.06647413
1755645648643,0.21233673,-0.05764916,0.02734305,-0.03803238,-0.06815619,-0.06358857,0.99636476,0.02710160,-0.04640796,0.06609896
1755645648656,-0.01202999,0.32963171,0.04173193,-0.03217730,-0.03804618,-0.02005698,0.99636748,0.02689566,-0.04665146,0.06597059
1755645648671,-0.13171958,0.09665812,-0.05829313,-0.01838044,-0.03944850,-0.01712273,0.99636580,0.02675873,-0.04694535,0.06584303
1755645648686,0.17766007,-0.09430424,0.08393187,-0.04374336,-0.04735246,-0.02662999,0.99637094,0.02643065,-0.04730049,0.06564330
1755645648698,0.51741670,-0.71130022,0.06246885,-0.09599751,-0.10133980,-0.05431926,0.99637859,0.02584027,-0.04792373,0.06530924
1755645648700,40.47539695,-21.46038367,11.80843950,-0.30614347,-0.44591909,-0.38319787,0.99638942,0.02554943,-0.04834736,0.06494520
1755645648718,-4.75821651,2.76263547,-1.32630784,-0.02654005,-0.05060404,-0.02733124,0.99638932,0.02531190,-0.04880026,0.06470059
1755645648732,0.23167148,0.09642940,0.02285082,-0.01159891,-0.06942431,-0.03699932,0.99638436,0.02523245,-0.04927582,0.06444714
1755645648746,0.03971781,0.05997244,0.03572645,-0.02856956,-0.06061134,-0.03189910,0.99638271,0.02502818,-0.04970919,0.06421906
1755645648758,0.51230292,-0.18827332,0.08663423,-0.03679793,-0.11057221,-0.04726178,0.99637347,0.02481475,-0.05035051,0.06394494
1755645648759,55.85206270,-15.84384056,13.88807427,-0.31576071,-0.53675588,-0.26756535,0.99637153,0.02454635,-0.05080675,0.06371751
1755645648774,-7.14423135,1.83047417,-1.77260692,-0.05093612,-0.07209208,-0.03005783,0.99636774,0.02418216,-0.05132221,0.06350260
1755645648789,0.20458499,0.03666261,-0.20039771,-0.04571047,-0.08336085,-0.02679019,0.99635623,0.02383476,-0.05195575,0.06329899
1755645648801,2.72477050,-0.99261936,-0.38132919,-0.16235576,-0.23403369,-0.08257552,0.99633530,0.02282003,-0.05341846,0.06278290
1755645648816,-2.29261692,0.80567734,0.44373908,-0.07457553,-0.11499092,-0.05239119,0.99632648,0.02228682,-0.05424065,0.06240830
1755645648831,0.19841322,-0.17211429,0.10146233,-0.06762442,-0.12576516,-0.03734134,0.99630214,0.02175259,-0.05523419,0.06211330
1755645648842,0.39646224,-0.22188841,0.07707013,-0.11099621,-0.17979649,-0.02624453,0.99626895,0.02114211,-0.05622307,0.06196896
1755645648844,66.74683323,-30.28063127,6.93046150,-0.49918971,-0.87996937,-0.19774491,0.99624443,0.02069284,-0.05701505,0.06179099
1755645648861,-7.70023639,3.39799739,-0.82743266,-0.06983497,-0.10291753,-0.01011712,0.99621206,0.02010971,-0.05787441,0.06170651
1755645648875,0.31865184,-0.25010732,0.04261210,-0.10603025,-0.13283904,-0.03513088,0.99618733,0.01936220,-0.05881092,0.06145884
1755645648877,48.84674179,-24.67395076,6.83980854,-0.81818531,-0.86544673,-0.26291327,0.99616556,0.01846220,-0.05976291,0.06116963
1755645648889,-8.91199553,4.20776629,-1.54629957,-0.15001884,-0.17436921,-0.04519682,0.99613644,0.01759959,-0.06076554,0.06090975
1755645648900,-0.17088069,-0.32381864,0.04051970,-0.16453548,-0.20992521,-0.04426117,0.99609425,0.01666174,-0.06196211,0.06065746
1755645648920,-0.35824245,0.57569400,0.12150045,-0.12822316,-0.11467250,-0.03040187,0.99606255,0.01542438,-0.06306870,0.06036408
1755645648921,108.58075452,-70.53292882,9.61163234,-1.56105982,-1.36919379,-0.71485221,0.99604448,0.01409748,-0.06423252,0.05975646
1755645648935,-12.71386434,8.10550851,-1.35488868,-0.20042443,-0.18173467,-0.08288241,0.99601559,0.01271455,-0.06548648,0.05918457
1755645648951,-0.14332084,0.24379553,-0.03144092,-0.18080978,-0.15105053,-0.08236186,0.99599143,0.01124999,-0.06670999,0.05851744
1755645648985,-0.33809849,0.08690293,-0.04773237,-0.08686416,-0.08817335,-0.05444371,0.99595994,0.00979502,-0.06818690,0.05760551
1755645649001,6.62163548,-4.98415258,-0.84421747,-0.89778113,-0.81449184,-0.45938974,0.99574472,0.00265766,-0.07466211,0.05395336
1755645649029,-2.90810926,2.04202931,0.43922339,-0.36571499,-0.27694222,-0.08926194,0.99551025,-0.00253549,-0.07859469,0.05268584
1755645649055,2.30926272,-2.67365628,0.45561614,-1.04061506,-0.73908121,-0.23972838,0.99473872,-0.01606349,-0.08820274,0.04956937
1755645649069,4.64114813,-1.24024329,-0.00728362,-1.27414226,-1.26847417,-0.39540590,0.99382701,-0.02530102,-0.09739918,0.04670268
1755645649105,-2.62208583,2.03296233,-0.11390567,-0.42844606,-0.52298261,-0.11598041,0.99274846,-0.03288452,-0.10665597,0.04464983
1755645649140,1.57132831,-1.41598217,0.56095217,-0.88399091,-1.01690666,-0.19103773,0.99017736,-0.04839856,-0.12450268,0.04129711
1755645649174,3.06193140,-1.58711126,1.19162337,-1.59011105,-1.87003120,-0.19986351,0.98399371,-0.07582797,-0.15676072,0.03784947
1755645649205,-0.23434701,1.75016364,-0.10482734,-1.12775299,-1.82579310,-0.03875616,0.97760057,-0.09325176,-0.18496923,0.03725068
1755645649250,-1.46905339,0.54434375,-0.17803269,-0.70359553,-1.19563760,-0.04791010,0.97063523,-0.10883640,-0.21145260,0.03618948
1755645649293,0.98778169,0.31018324,0.20473726,-0.65272447,-1.43649739,-0.16381024,0.96182558,-0.12286997,-0.24233729,0.03266756
1755645649317,4.14002977,-0.89455305,1.40993561,-0.31410736,-1.73411006,-0.20921401,0.95575293,-0.12674920,-0.26375355,0.03008376
1755645649363,-3.78615289,0.88887222,-0.94115337,-0.35137512,-0.67997655,-0.12847625,0.95037425,-0.13469028,-0.27912102,0.02718020
1755645649397,0.46896084,0.71508965,-0.19658916,-0.14722792,-0.60917351,-0.11116997,0.94690298,-0.13723732,-0.28965972,0.02525696
1755645649414,8.48341037,-2.05568822,4.22750113,-0.30355715,-1.07168059,-0.20091471,0.94369591,-0.13984791,-0.29887618,0.02352909
1755645649450,-5.66095584,1.00977369,-2.24791048,-0.13140681,-0.32167957,-0.05135087,0.94151705,-0.14220666,-0.30465033,0.02260734
1755645649462,11.85371347,0.14137425,4.36145135,-0.08460231,-0.78369850,-0.17703065,0.93993056,-0.14271428,-0.30935252,0.02154516
1755645649478,-3.91687522,0.49683031,-0.74755882,-0.04422445,-0.54314893,-0.13351850,0.93848716,-0.14306144,-0.31361624,0.02049704
1755645649494,-4.35670788,-0.20169749,-1.19883108,-0.04234734,-0.31299893,-0.10260048,0.93760702,-0.14340233,-0.31613588,0.01967111
1755645649508,-0.49666625,0.15037585,-0.15614148,-0.08867802,-0.25366714,-0.06646534,0.93692580,-0.14401865,-0.31789886,0.01920917
1755645649526,-1.61946706,0.17373696,-1.49458368,-0.02042468,-0.16135789,-0.04147168,0.93641683,-0.14420043,-0.31933495,0.01884007
1755645649537,2.07667895,1.00443340,1.17780733,0.03303487,-0.20491861,-0.05204769,0.93604941,-0.14401048,-0.32051323,0.01854080
1755645649573,-1.75037667,-0.11254616,-0.93844198,0.02430798,-0.06159750,-0.01341392,0.93574445,-0.14357779,-0.32160967,0.01830203
1755645649607,2.17677108,0.12368140,1.26460915,0.09309184,-0.20285289,-0.03189123,0.93480154,-0.14199058,-0.32506831,0.01775829
1755645649642,-0.77482295,0.19723567,-0.39933155,0.06940991,-0.04360248,0.02431889,0.93471089,-0.14076896,-0.32583571,0.01818630
1755645649676,-0.36887056,0.49107069,-0.35927971,0.36506758,0.24140006,-0.00268252,0.93702416,-0.13461757,-0.32176812,0.01814110
1755645649712,-0.97021518,-0.30705068,-0.28936291,0.17936752,0.24783609,-0.02016964,0.93903588,-0.13134412,-0.31724511,0.01777300
1755645649743,-0.58791127,1.51320529,-1.19180061,0.45860375,0.58656587,0.13786047,0.94291732,-0.12435041,-0.30829998,0.01987538
1755645649778,-1.11883188,0.26070404,-0.29920519,0.81084400,0.87830457,0.14211201,0.94948535,-0.11020118,-0.29297357,0.02235523
1755645649797,-4.30737433,1.72729952,-1.52019589,1.22200741,1.99635471,0.19336178,0.95656209,-0.09822551,-0.27340929,0.02425018
1755645649833,1.49878074,-1.92408059,0.91597854,0.48969629,0.89455478,0.04008068,0.96184601,-0.08943546,-0.25735203,0.02496962
1755645649875,-0.23659109,0.10155779,0.09472552,0.45599580,0.97902289,0.05783171,0.96783573,-0.07999635,-0.23708626,0.02616674
1755645649924,-0.05646788,0.09755263,-0.07920722,0.49807993,0.89303907,0.13530629,0.97375496,-0.06781829,-0.21525145,0.02947498
1755645649951,-3.13337254,0.97402120,-0.63029802,0.89392958,1.70371089,0.34781650,0.97922074,-0.05561616,-0.19199580,0.03422267
1755645649977,1.60774870,-0.48786383,0.22612853,0.61219515,1.03620915,0.23597474,0.98211459,-0.04753518,-0.17831784,0.03733754
1755645650015,1.87341598,-1.24028290,0.64344547,0.23983644,0.43378141,0.13227879,0.98369041,-0.04296630,-0.17005430,0.03985745
1755645650039,-0.52453703,-0.16722194,-0.28528647,0.12252122,0.44751565,0.13347850,0.98458572,-0.04152054,-0.16477362,0.04143250
1755645650046,-14.26803257,4.18009489,-8.40255567,0.43740608,1.16868461,0.41078062,0.98527287,-0.03996775,-0.16062479,0.04289077
1755645650071,4.60320077,-0.64472472,2.05072010,0.20311735,0.32604344,0.11196120,0.98597187,-0.03740847,-0.15651664,0.04430148
1755645650107,0.74363477,-0.39370956,0.32525158,0.12321596,0.15657192,0.06077205,0.98644051,-0.03522139,-0.15373749,0.04538018
1755645650138,-0.66671333,-0.13125636,-0.50947452,0.15788303,0.35666681,0.09647743,0.98730607,-0.03275842,-0.14817349,0.04688523
1755645650149,-8.42823643,-0.44668225,-6.44225687,0.11417053,0.94794524,0.12343449,0.98806939,-0.03212477,-0.14291239,0.04757029
1755645650199,2.26852465,-0.01403551,1.68011452,0.02408610,0.15697204,0.01369088,0.98862857,-0.03152623,-0.13901164,0.04791051
1755645650244,-0.21057317,-0.25861258,-0.70542478,-0.02653616,0.33667502,0.03878267,0.98960652,-0.03212595,-0.13140278,0.04878700
1755645650274,-0.46657523,-0.28640736,-1.10464865,-0.08807733,0.48276727,0.00346222,0.99048910,-0.03343830,-0.12420955,0.04883859
1755645650306,0.36640707,-0.35254466,0.24117192,-0.18294069,0.44335965,0.03948071,0.99121851,-0.03636535,-0.11711579,0.04947028
1755645650328,0.04994039,-1.44642915,-2.17289553,-0.40485084,0.58209591,0.01479440,0.99177745,-0.04085919,-0.11065453,0.04963450
1755645650361,0.55242209,0.79116533,1.98537557,-0.25087712,0.26816265,0.03205023,0.99205700,-0.04502376,-0.10620303,0.05016653
1755645650374,-0.69826016,-6.31042123,-6.58783656,-0.85478487,0.66079047,0.08970516,0.99220416,-0.05032342,-0.10210613,0.05072270
1755645650395,0.46128528,1.59097663,2.27239711,-0.67195253,0.43213021,0.02337597,0.99226521,-0.05737892,-0.09756876,0.05096815
1755645650417,0.15680525,0.77993299,1.25195557,-0.54775119,0.29025178,-0.00022932,0.99220743,-0.06340419,-0.09437599,0.05096563
1755645650440,0.28285830,-0.51770204,0.39120478,-0.59137240,0.29150085,0.01573993,0.99205341,-0.07020497,-0.09102373,0.05114664
1755645650461,-0.17967754,-3.24555532,-1.53798007,-1.25972728,0.45613171,-0.03437315,0.99146573,-0.08362106,-0.08616593,0.05078056
1755645650473,0.57279195,-16.52125172,-6.97569835,-2.98749065,0.91040843,-0.04732517,0.99029969,-0.10109788,-0.08084004,0.05050371
1755645650483,0.71900435,-8.19816990,-0.21658823,-3.61309842,1.07522317,0.03438170,0.98865141,-0.11970534,-0.07530264,0.05068078
1755645650534,-0.23388709,6.94133391,2.82854523,-0.64240587,0.17737025,-0.00179576,0.98687092,-0.13605457,-0.07078857,0.05063507
1755645650570,-0.13737995,-8.22784748,-3.12198469,-3.19085975,0.93209611,-0.21171960,0.97835202,-0.19428776,-0.05377781,0.04677119
1755645650603,0.37127978,2.01412583,0.61989990,-2.44505269,0.64912447,-0.20162587,0.97029589,-0.23401987,-0.04322954,0.04349477
1755645650629,-0.82711160,-2.06435357,-1.78766820,-2.80901093,0.94856788,-0.32114204,0.96148452,-0.27025611,-0.03099302,0.03935204
1755645650651,1.11597478,-0.40866583,-4.35394952,-2.31277587,1.13919178,-0.43326534,0.95440914,-0.29592792,-0.01834799,0.03454279
1755645650672,0.23946864,6.01782577,5.83257293,-1.82812611,0.59396230,-0.29782292,0.94827615,-0.31567168,-0.01193319,0.03132631
1755645650720,-0.20727676,3.36717665,1.53686621,-0.59620936,0.20097604,-0.06708011,0.94349304,-0.32998071,-0.00710977,0.02971638
1755645650756,0.24247218,-2.11725055,-2.30779994,-0.70155831,0.33922769,-0.15779066,0.93918096,-0.34236321,-0.00112240,0.02693138
1755645650793,0.78874123,0.05350777,0.57510877,-0.84806683,0.06751341,-0.26345885,0.93337706,-0.35822206,0.00014010,0.02200470
1755645650815,1.65787639,-1.16986270,-2.42610893,-0.86361048,-0.24578126,-0.27050726,0.92978810,-0.36759223,-0.00252663,0.01906969
1755645650841,0.38868400,1.20451117,2.37019543,-0.67017058,-0.48497364,-0.36589314,0.92631628,-0.37637147,-0.00887978,0.01427649
1755645650875,-0.80801373,2.41856917,1.99018986,-0.32885110,-0.43713852,-0.20761698,0.92396454,-0.38197838,-0.01633299,0.01073662
1755645650913,-0.17252124,0.47457937,0.26570092,-0.16161614,-0.38253947,-0.09407943,0.92255086,-0.38504909,-0.02360124,0.00894911
1755645650928,17.40877511,-7.46729556,-3.91171195,-0.79943388,-2.31496229,-0.67314918,0.91956116,-0.39084498,-0.04038472,0.00406878
1755645650951,-8.26951970,5.44956198,2.97803343,-0.06360520,-0.89987914,-0.18381827,0.91871701,-0.39159870,-0.05104829,0.00189054
1755645651000,-1.19739658,0.29865855,0.30504434,0.01777178,-0.45064371,-0.08932433,0.91822788,-0.39116596,-0.06202146,-0.00028451
1755645651042,2.12059728,0.22869815,0.16306386,0.03297510,-1.20792562,-0.27796604,0.91642129,-0.39046854,-0.08756909,-0.00616349
1755645651045,793.41328373,23.60402132,114.89546314,0.83471423,-18.45675141,-3.13247766,0.91423712,-0.38938341,-0.11156286,-0.01023571
1755645651109,-32.74620731,-0.91257859,-4.22124644,0.03596394,-0.95542894,-0.13677183,0.91041702,-0.38823256,-0.14213659,-0.01461241
1755645651173,0.76285505,0.28676004,0.53318217,0.10744010,-1.38865512,-0.10731577,0.90376869,-0.38479448,-0.18657355,-0.01804652
1755645651207,10.20039761,2.76296192,6.21442411,0.74309711,-4.55894090,-0.02753811,0.88982424,-0.37231045,-0.26316376,-0.01850916
1755645651240,-6.39401409,-1.18137540,-1.72237499,0.49979963,-2.62263550,-0.00938581,0.87921483,-0.36398878,-0.30683064,-0.01866543
1755645651263,3.55735389,1.17800391,6.01916411,0.52409100,-3.27307235,-0.13116374,0.86736625,-0.35783072,-0.34528924,-0.02020660
1755645651297,-6.29926407,-1.71662466,-5.28690598,0.28756086,-1.48674092,-0.13135917,0.85900055,-0.35302845,-0.37011782,-0.02240030
1755645651330,-1.19369522,-0.22999799,-0.88811626,0.25680400,-1.12220800,-0.07977526,0.85247335,-0.34877834,-0.38869036,-0.02372058
1755645651352,1.85996619,1.15226754,2.79901731,0.38987841,-1.44404355,-0.18717879,0.84655944,-0.34435322,-0.40508025,-0.02584506
1755645651388,-1.72867540,-0.59474758,-2.25154620,0.29276261,-0.85434564,-0.05841443,0.84120045,-0.33914205,-0.42028761,-0.02688484
1755645651409,5.91822347,3.54077909,9.96581658,1.04829364,-2.10865448,-0.13512231,0.83434918,-0.32844945,-0.44179588,-0.02826309
1755645651430,-3.93304318,-1.32597953,-5.15218501,0.61556654,-1.29062580,-0.07143882,0.82937784,-0.32177056,-0.45579917,-0.02903820
1755645651463,-1.50628025,-0.86441229,-2.39806560,0.30027000,-0.77079428,-0.00150969,0.82426175,-0.31689117,-0.46832458,-0.02906273
1755645651500,0.32561947,0.58025927,1.07840165,0.45792087,-0.85491325,-0.05904736,0.81827624,-0.30841963,-0.48414047,-0.03015511
1755645651532,-0.03895559,0.60005285,0.86906376,0.53270213,-0.83623164,-0.12682622,0.81334250,-0.29992303,-0.49747837,-0.03217799
1755645651541,19.66349669,17.99070462,41.62880530,1.89333951,-2.13220935,-0.52188223,0.81020962,-0.29083500,-0.50771297,-0.03468302
1755645651575,-6.85531119,-6.71932823,-14.73003387,0.35864960,-0.30225992,-0.17845666,0.80899153,-0.28468416,-0.51289673,-0.03774355
1755645651598,0.91318511,0.44783777,2.24112828,0.45882351,-0.37386928,-0.26910863,0.80797110,-0.27954534,-0.51708407,-0.04075757
1755645651635,-1.10863509,-1.07969788,-1.77700774,0.18722320,-0.18013579,-0.16720003,0.80686583,-0.27610043,-0.52039856,-0.04383405
1755645651667,0.10570089,-0.34878631,1.03593967,0.14111591,-0.22519923,-0.38823238,0.80489667,-0.27379319,-0.52408057,-0.05018165
1755645651713,-0.58244635,0.03978656,-0.57341983,0.05241718,-0.20652018,-0.32912256,0.80169223,-0.27259021,-0.52882021,-0.05773501
1755645651733,-4.66387180,2.07557956,3.73554713,0.25286736,-0.35636241,-0.53222322,0.79983465,-0.27012476,-0.53229474,-0.06292419
1755645651803,0.74303632,0.01331236,-2.14027936,0.31632017,-0.15603613,-0.10862721,0.79953283,-0.25897447,-0.53779502,-0.06675330
1755645651836,-3.62897951,7.12305906,-2.06328233,1.59636456,-0.72995707,0.39679357,0.79996000,-0.23303355,-0.54965682,-0.06030540
1755645651881,0.99920446,-3.24206081,-0.46752038,0.87250303,-0.40127632,0.35613381,0.79974103,-0.21318410,-0.55878586,-0.05220336
1755645651955,0.15188971,-0.69520737,-0.13943895,0.56748650,-0.37201924,0.24126655,0.79587341,-0.19230060,-0.57247616,-0.04332475
1755645651964,-103.99886851,53.53625710,-113.52934662,4.21125467,-5.15179915,2.49314930,0.78278307,-0.17208658,-0.59720480,-0.03135763
1755645652056,10.89669018,-6.09510861,11.29485719,0.24430319,-0.41397471,0.22195271,0.77074379,-0.16092192,-0.61612344,-0.02121439
1755645652091,-4.96321970,0.87836658,-7.42225622,0.28229684,-1.22653552,0.42479390,0.75414978,-0.15593938,-0.63777180,-0.01371678
1755645652122,-0.23545076,-1.06872645,-2.40064576,0.26945067,-1.22176419,0.32438885,0.73866476,-0.15176290,-0.65670914,-0.00868875
1755645652177,2.29874107,-0.23761810,4.88812122,0.19978194,-0.54459418,0.18846070,0.72619870,-0.14624892,-0.67173994,-0.00348724
1755645652209,-2.00112713,-0.16865011,-2.30483225,0.31128796,-0.67812087,0.41493852,0.71706933,-0.14129944,-0.68252206,0.00311028
1755645652245,0.54048888,-0.60831621,1.78348482,-0.04936333,-0.47078427,0.18203215,0.70866026,-0.14219291,-0.69104326,0.00640507
1755645652279,-0.01919417,0.40439319,0.85452380,-0.14655604,-0.47906841,0.00873671,0.70024177,-0.14464773,-0.69906765,0.00655141
1755645652323,1.36314838,-0.03927095,1.47170316,-0.08426209,-0.39965112,-0.20824487,0.69096903,-0.14650571,-0.70787996,0.00195961
1755645652357,-2.00409208,-1.36031986,-1.00200123,-0.33409593,-0.43967129,-0.37832018,0.68200033,-0.15216863,-0.71533239,-0.00445292
1755645652378,-2.24090529,-0.81905516,0.42651037,-0.43697853,-0.40927765,-0.84709529,0.67627260,-0.15677876,-0.71965027,-0.01338978
1755645652399,4.12464184,-0.36760953,1.49534800,-0.43710327,-0.13269900,-0.81379054,0.67345262,-0.16141205,-0.72105688,-0.02201596
1755645652421,0.57721414,-0.03261810,0.88725487,-0.29813495,0.04711526,-0.89095668,0.67283422,-0.16463191,-0.72054803,-0.03163829
1755645652455,1.66759328,0.81263558,1.68820245,-0.22596848,0.06311436,-0.60827232,0.67246568,-0.16847337,-0.71947509,-0.04197892
1755645652491,0.74855686,0.27034735,0.35537703,-0.17279247,0.07241040,-0.33033561,0.67267549,-0.17159228,-0.71816808,-0.04794147
1755645652503,-31.91279164,-6.34259969,-11.83708069,-0.30118017,0.73734929,-1.99402069,0.67595378,-0.17339936,-0.71374398,-0.05990560
1755645652520,15.60681122,2.74569973,7.17773473,-0.15725741,0.36659390,-0.79381858,0.67819061,-0.17469673,-0.71071959,-0.06645460
1755645652544,2.48487676,0.71917840,1.04899299,-0.19052219,0.27940092,-0.45081260,0.68065363,-0.17708778,-0.70721310,-0.07211230
1755645652567,1.88964069,0.67113964,0.33232898,-0.09857549,0.17588742,-0.34403252,0.68197722,-0.17818197,-0.70526075,-0.07593106
1755645652580,-4.52596643,-0.43888795,0.53285078,-0.03999637,0.25072818,-0.60213113,0.68321559,-0.17845795,-0.70353073,-0.08008577
1755645652585,-55.64414712,-8.43741868,1.74269409,0.11393347,0.71421882,-1.50812377,0.68455685,-0.17819590,-0.70188803,-0.08355445
1755645652638,6.82045663,1.28492743,-0.07681196,-0.01057506,0.09281971,-0.10168474,0.68667187,-0.17847720,-0.69941902,-0.08625926
1755645652664,-8.65921836,-0.10534990,1.23117561,0.23355329,0.77491654,-0.39431719,0.69670860,-0.17549939,-0.68953884,-0.09128681
1755645652687,6.18793820,1.94981134,0.85432661,0.34858717,0.27480323,0.08703051,0.70094495,-0.17149064,-0.68637860,-0.09028596
1755645652715,1.10322641,-0.64301889,-0.08420290,0.24955762,0.20336080,0.17990514,0.70486802,-0.16800931,-0.68354172,-0.08777628
1755645652750,0.87180837,-0.20152477,-0.36116194,0.08369716,0.16899684,0.08109542,0.70827338,-0.16653206,-0.68055892,-0.08634495
1755645652798,-0.16907081,0.65431893,0.76837683,0.09082987,0.15115983,0.01017148,0.71223610,-0.16437485,-0.67696888,-0.08610337
1755645652808,-14.36444646,6.36780019,26.56822122,1.01570100,0.10981158,0.60967660,0.71433099,-0.15914399,-0.67640335,-0.08296354
1755645652867,3.06422104,-1.82927230,-4.83955213,0.04324386,0.00488067,-0.03188377,0.71464254,-0.15785964,-0.67625839,-0.08391049
1755645652907,0.15725047,0.42766730,0.91616039,0.11140177,0.05795549,0.06471685,0.71637152,-0.15563718,-0.67510218,-0.08261939
1755645652912,-31.30235412,22.16138064,126.51185955,0.58966056,0.44231669,0.30173435,0.71773018,-0.15425148,-0.67406273,-0.08191031
1755645652962,3.19278102,-2.05630144,-12.68563575,0.02058506,0.02676279,0.05284325,0.71862119,-0.15373479,-0.67339099,-0.08058395
1755645652985,0.15133519,1.38132662,0.82821754,0.23796993,0.13066698,0.29064381,0.72091031,-0.15106953,-0.67192752,-0.07732873
1755645653012,0.28818029,-0.24370663,-0.57766017,0.29215824,0.10958563,0.23612570,0.72346164,-0.14708157,-0.67043167,-0.07410562
1755645653050,0.08925888,-0.47536271,-0.62074555,0.14010079,0.07017839,0.14684189,0.72553660,-0.14438463,-0.66908074,-0.07127891
1755645653075,0.92194669,1.07784271,1.71980424,0.31592033,0.25861758,0.38921409,0.72973520,-0.14043562,-0.66584802,-0.06641374
1755645653101,-0.14696964,-1.15668180,-1.67352278,0.08702099,0.15833712,0.12980975,0.73196692,-0.13930870,-0.66379755,-0.06473270
1755645653111,4.13241068,2.81180854,4.72022465,0.17935198,0.35206863,0.15159907,0.73375921,-0.13842988,-0.66207242,-0.06398986
1755645653160,-1.06255644,-0.93396333,-1.30221626,-0.01213518,0.05923226,0.01009444,0.73503146,-0.13872719,-0.66062123,-0.06374255
1755645653202,0.58314576,0.27698378,0.34284629,0.04841270,0.14928606,0.11912605,0.73821650,-0.13771778,-0.65750861,-0.06125877
1755645653241,-0.04869094,0.19421195,0.10157497,0.08559507,0.08830928,0.07274740,0.74017650,-0.13604440,-0.65578217,-0.05983656
1755645653291,-0.10602273,-0.11108056,-0.27662311,0.08548215,0.02432124,0.08392227,0.74127049,-0.13390735,-0.65517414,-0.05773850
1755645653320,2.16949000,1.30914621,0.98420097,0.37368276,-0.00855056,0.21724111,0.74235777,-0.12848895,-0.65529812,-0.05458851
1755645653335,3.75334674,0.86053370,1.52404059,0.60734545,-0.20055444,0.41534298,0.74201116,-0.12375165,-0.65686244,-0.05134883
1755645653387,-1.87605609,-1.05140870,-1.02153543,0.08100905,-0.06697712,0.15341393,0.74108966,-0.12166567,-0.65858710,-0.04739842
1755645653450,-0.37306811,-0.17478804,-0.16558704,0.03431284,-0.03502699,0.05157811,0.74039014,-0.12058996,-0.65968520,-0.04578145
1755645653477,6.13216643,1.06207473,1.85935610,0.16190078,-0.20302646,0.27680706,0.73849393,-0.11838002,-0.66245651,-0.04200303
1755645653499,-2.07733865,1.34166017,-1.49846903,0.32775281,-0.06455045,0.35209192,0.73863700,-0.11474196,-0.66317302,-0.03809481
1755645653546,-2.23050770,-0.74646673,-0.54312168,0.14268218,0.02026553,0.25759612,0.73987168,-0.11136753,-0.66269374,-0.03200267
1755645653574,0.48941581,0.84056298,-0.74433402,0.24154982,0.20181945,0.39003198,0.74308446,-0.10800998,-0.65988845,-0.02658122
1755645653625,-0.42392497,0.69221919,-0.44681466,0.57143990,0.31433400,0.57907795,0.75240403,-0.09352398,-0.65192008,-0.01190160
1755645653678,-0.66793556,-0.18322894,-0.61903466,0.71801733,0.61850438,0.59367091,0.76858001,-0.07435292,-0.63540602,0.00394942
1755645653689,-4.30212486,32.28928644,-19.70556642,2.92450187,2.67237000,2.41198668,0.78122605,-0.05885306,-0.62124246,0.01673295
1755645653731,0.62864863,-8.59659681,5.66997897,0.46501923,0.36015438,0.36111281,0.78774230,-0.04894815,-0.61357117,0.02442465
1755645653757,-0.64056067,-0.31460458,0.30211277,0.22155706,0.38845537,0.39176249,0.79163429,-0.04607899,-0.60854067,0.02949797
1755645653782,0.21543344,0.26017977,-0.54243360,0.31049801,0.44729214,0.27948917,0.79591038,-0.04225986,-0.60303898,0.03293569
1755645653831,0.36752676,-0.72085023,0.61149401,0.13303902,0.17153264,0.08802404,0.79915107,-0.03900041,-0.59883643,0.03509228
1755645653873,-0.98791897,0.07230064,-0.76725578,0.11885995,0.49005060,0.04134657,0.80680256,-0.03651623,-0.58859437,0.03595642
1755645653916,-0.23370016,-0.41800383,-0.07730212,-0.06423527,0.60155641,-0.01762934,0.81614017,-0.03791335,-0.57551052,0.03557298
1755645653936,-4.56081553,2.25185492,-8.61620081,0.34107031,2.43465962,-0.13316577,0.83297985,-0.03450265,-0.55116392,0.03424133
1755645653996,2.11122963,-0.56097905,3.29415003,0.11857490,0.36522955,0.06790098,0.84018011,-0.03094540,-0.54020704,0.03627836
1755645654030,-0.78169868,0.00522185,-0.43359062,0.03509336,0.44322867,0.14234137,0.84491900,-0.03034530,-0.53262783,0.03871239
1755645654099,0.65648304,0.04865250,0.42394635,0.10874582,0.08805774,0.05805588,0.84685591,-0.02659901,-0.52959424,0.04071242
1755645654126,-0.55154440,-0.14926144,-0.51451198,0.09017873,0.11489069,-0.16396515,0.84797278,-0.02537258,-0.52803172,0.03848249
1755645654169,0.76715073,-0.53373378,0.61111583,-0.05829983,0.04524183,0.00587131,0.84852836,-0.02661437,-0.52706807,0.03860755
1755645654207,0.14459305,0.38484144,0.13559883,-0.04228347,-0.11883221,0.00673943,0.84710546,-0.02740929,-0.52930212,0.03873425
1755645654234,0.14219906,-0.45063777,0.09150865,-0.13543629,-0.08966723,0.01699016,0.84627308,-0.02924446,-0.53051711,0.03896447
1755645654248,0.55158464,-1.21955457,1.04856903,-0.25387301,-0.18200505,-0.03582030,0.84540292,-0.03105965,-0.53181844,0.03870835
1755645654295,-0.28955398,0.68484649,-0.30790951,0.00386614,-0.06263559,0.02363058,0.84445896,-0.03096937,-0.53328099,0.03926013
1755645654333,0.35446887,-0.30284619,0.09713634,0.00002618,-0.12043210,0.02616997,0.84299408,-0.03096888,-0.53555715,0.03975474
1755645654348,4.57032789,-2.25804586,4.15633568,-0.51443614,-0.70944387,-0.30203090,0.83951985,-0.03485287,-0.54091345,0.03747441
1755645654371,-1.57812558,1.01002687,-1.10653131,-0.13184145,-0.51477740,-0.16370212,0.83571036,-0.03636246,-0.54680766,0.03560002
1755645654409,-0.51788832,-0.10373628,-0.28128152,-0.18718215,-0.41742324,-0.10129476,0.83029876,-0.03997507,-0.55486392,0.03364503
1755645654414,59.39386097,-53.25117778,70.68750185,-2.69648041,-3.73740067,-1.43624731,0.82442621,-0.04604215,-0.56327308,0.03041347
1755645654462,-5.64251523,4.75796672,-6.59901636,-0.32271905,-0.38613495,-0.17835577,0.81766424,-0.05381968,-0.57257893,0.02611510
1755645654485,4.03746068,-4.10551308,3.93244319,-1.20546459,-1.31286517,-0.64561448,0.80604319,-0.06768252,-0.58767688,0.01869053
1755645654521,-1.87069007,1.58834906,-1.97179820,-0.65021914,-0.53317184,-0.34979244,0.79786494,-0.07958153,-0.59743392,0.01228933
1755645654536,16.39213825,-20.98935915,12.34325468,-3.20385637,-2.22123065,-2.07020949,0.78293941,-0.10280949,-0.61353784,-0.00271969
1755645654573,-6.09941980,8.12265359,-5.01288671,-0.59593020,-0.39835069,-0.44044657,0.77553964,-0.11377461,-0.62086750,-0.01082390
1755645654580,41.51934236,-42.33716916,22.79461394,-2.82403932,-1.50851483,-1.92150805,0.76972256,-0.12351754,-0.62607187,-0.01745311
1755645654632,-5.95409631,5.85952431,-3.53960129,-0.38808528,-0.16018777,-0.31324726,0.76433954,-0.13370478,-0.63027680,-0.02567585
1755645654643,36.17287979,-45.89261552,18.39799038,-3.54572375,-1.06891068,-3.24437249,0.75512402,-0.15285169,-0.63604892,-0.04319546
1755645654671,-11.90936944,15.80525918,-6.49859092,-0.90314286,-0.11774083,-0.72081425,0.75046166,-0.16536022,-0.63767963,-0.05317874
1755645654704,-0.13607972,1.49777073,-0.55051915,-0.41888991,-0.06847547,-0.39582146,0.74742071,-0.17233474,-0.63881975,-0.05976916
1755645654715,11.52378840,-6.24393939,0.69987604,-0.45905322,-0.23080997,-0.57819270,0.74544917,-0.17490544,-0.64011228,-0.06300704
1755645654725,3.77747366,-4.32554038,3.81077690,-0.70371402,-0.17541096,-0.72513090,0.74360171,-0.17831845,-0.64096303,-0.06652393
1755645654749,-7.94142663,5.98658023,-2.22893588,-0.26490528,0.00398061,-0.15766104,0.74269399,-0.18152380,-0.64091486,-0.06843163
1755645654759,12.60518136,-2.84223880,0.20207789,-0.24380437,0.05046439,-0.25865198,0.74248836,-0.18276720,-0.64065749,-0.06975075
1755645654783,-4.98583452,1.81530044,-0.51205841,0.00242412,0.03932399,-0.03643386,0.74285038,-0.18273896,-0.64019937,-0.07017521
1755645654810,0.81012907,-0.36145923,0.05601185,0.02685095,0.06695916,-0.03187859,0.74368282,-0.18237379,-0.63928872,-0.07060876
1755645654847,0.60513995,-0.49305313,0.04555275,0.01130766,0.07600420,-0.09740211,0.74477908,-0.18216234,-0.63786744,-0.07243017
1755645654859,50.13214337,-22.66304934,4.23878012,-0.23116863,0.37228656,-0.64861664,0.74590046,-0.18348000,-0.63574541,-0.07612729
1755645654882,-21.23181230,9.49617737,-1.96661576,-0.27983453,0.14565895,-0.27901187,0.74619932,-0.18676805,-0.63403392,-0.07940568
1755645654927,-2.25094945,1.02310629,-0.12793314,-0.10273185,0.05730000,-0.15779093,0.74632528,-0.18907952,-0.63274467,-0.08295598
1755645654938,52.45696374,7.22587352,-0.34069933,0.54265418,0.10103743,0.82869039,0.74805247,-0.18606779,-0.63218391,-0.07835674
1755645654971,-15.86898928,-0.81324546,-0.66443863,0.64975453,0.01640984,0.39588562,0.75150862,-0.17537933,-0.63191397,-0.07184443
1755645655001,0.20775871,0.25620562,0.20636325,0.47529400,0.00153183,0.13604897,0.75335999,-0.16820239,-0.63189084,-0.06979009
1755645655012,28.18473314,2.12481327,-3.49575119,0.78828722,-0.06459675,0.41485472,0.75424027,-0.16378798,-0.63225258,-0.06746690
1755645655026,-2.14825934,7.11832620,-1.12269939,0.72135812,-0.14559136,0.64231481,0.75484096,-0.15884668,-0.63324988,-0.06306704
1755645655048,-10.87757036,-2.54196893,1.26245924,0.58119437,-0.07949056,0.45891897,0.75582943,-0.15245354,-0.63412428,-0.05801893
1755645655061,10.93805053,3.42878862,-3.10190374,0.90591574,-0.14449231,0.67555173,0.75650407,-0.14679157,-0.63502735,-0.05379674
1755645655085,-5.35033111,-3.09764559,1.32486906,0.48329826,-0.08965686,0.35494878,0.75699973,-0.14091949,-0.63611668,-0.04948411
1755645655117,-1.36781564,-0.99732659,0.25650903,0.22889829,-0.05925380,0.17718436,0.75705525,-0.13726856,-0.63706178,-0.04665802
1755645655127,129.12934387,-8.13817882,-38.01969447,0.18343110,-0.10928599,0.37231601,0.75686970,-0.13633307,-0.63761914,-0.04475921
1755645655149,-47.88927781,-1.55126604,12.87507172,-0.50319527,0.12666661,-0.21293053,0.75688286,-0.14184305,-0.63623214,-0.04709080
1755645655172,-8.06270939,0.61343706,2.47383135,-0.47026609,0.11888161,-0.28008067,0.75679129,-0.14722760,-0.63487095,-0.05029772
1755645655183,22.81151999,-10.51313789,-8.06718963,-1.12961147,0.30182037,-0.61431700,0.75671274,-0.15360991,-0.63316566,-0.05376861
1755645655194,2.08462631,-3.26387027,-1.42774312,-1.10353615,0.27994048,-0.80345074,0.75642522,-0.15951382,-0.63166798,-0.05806707
1755645655216,-12.66394270,5.60785146,4.67046234,-0.51567209,0.12739590,-0.42285012,0.75599482,-0.16531513,-0.63023478,-0.06282414
1755645655251,0.51166934,-0.11965164,-0.23356107,-0.46695246,0.11727410,-0.37291887,0.75531201,-0.17337006,-0.62821180,-0.06925699
1755645655261,197.73717047,-78.27252515,-75.53348720,-3.40928875,0.94329246,-2.49760981,0.75375862,-0.19143930,-0.62321235,-0.08249432
1755645655306,-45.72254338,18.44515271,17.24133547,-0.39522775,0.14239952,-0.25982905,0.75343098,-0.20025287,-0.62003684,-0.08828851
1755645655316,206.89431862,-69.19122598,-83.49290343,-1.99424214,0.79865023,-1.39188444,0.75314273,-0.21022408,-0.61604359,-0.09524793
1755645655339,-72.78762238,24.66884026,28.81449758,-0.66704953,0.16359761,-0.57514027,0.75165946,-0.21776174,-0.61419493,-0.10174701
1755645655378,-11.82110572,3.87794848,4.95716894,-0.24748932,0.04561543,-0.21189199,0.75039051,-0.22262491,-0.61329859,-0.10591069
1755645655413,11.08971131,-3.69837582,-4.81253665,-0.71744291,0.12665076,-0.47348441,0.74714654,-0.23518016,-0.61108220,-0.11419667
1755645655441,26.07651227,-1.95481129,-11.69177762,-0.77117268,0.08890091,-0.48057221,0.74364613,-0.24589946,-0.60984648,-0.12087662
1755645655476,-21.48956105,6.76785606,9.16556585,-0.39279490,0.01993640,-0.29821724,0.74078044,-0.25271445,-0.60950058,-0.12605069
1755645655496,50.70807697,2.21424342,-22.01911695,0.07033884,-0.22525257,-0.26980594,0.73869636,-0.25201106,-0.61175311,-0.12874875
1755645655531,-27.08265030,1.54008777,12.58717669,0.04990635,-0.09047857,0.15256206,0.73813309,-0.25112523,-0.61335910,-0.12604077
1755645655552,41.28408162,5.18214364,-17.78890358,-0.03981545,-0.13473365,-0.20960741,0.73642464,-0.25154528,-0.61478054,-0.12825213
1755645655588,-17.88398688,-0.07381073,8.46600420,0.05391162,-0.14396920,-0.32328426,0.73353738,-0.25057217,-0.61737919,-0.13408741
1755645655641,-6.13903471,-1.43599077,2.98061435,0.39752842,-0.30202550,0.10244896,0.73078276,-0.24009730,-0.62533756,-0.13138788
1755645655673,24.68527918,1.20160107,-6.06996822,0.27114596,-0.57670761,-0.04058258,0.72409343,-0.23575897,-0.63456488,-0.13203720
1755645655695,2.24537959,-0.66103947,2.66172225,-0.12341949,-0.60283033,-0.46947040,0.71691229,-0.23709807,-0.64110559,-0.13713096
1755645655730,-24.10722400,-1.74025471,6.09758522,0.00826934,-0.24319484,-0.13423869,0.71266371,-0.23695294,-0.64537366,-0.13948685
1755645655753,6.95314277,1.25650714,-0.79005653,-0.05499545,-0.28847497,-0.10638862,0.70911637,-0.23759914,-0.64876324,-0.14073691
1755645655790,-8.42078722,-0.53864404,1.64201007,0.03412972,-0.20156658,-0.03651848,0.70574569,-0.23696432,-0.65251238,-0.14141616
1755645655834,7.97844625,1.45198553,-0.51571479,0.34775121,-0.43931043,0.15513552,0.69994971,-0.22934857,-0.66213328,-0.13801869
1755645655871,3.33318327,-0.21691650,0.37274447,0.41947228,-0.46804180,0.37448172,0.69554742,-0.22163028,-0.67074525,-0.13112822
1755645655906,-4.24800307,-0.99160313,1.16663901,0.41423740,-0.43689896,0.29145091,0.69133450,-0.21438113,-0.67839098,-0.12602783
1755645655927,27.96808337,-1.01360174,-1.28248865,0.69011677,-0.68782064,0.66002896,0.68767404,-0.20720391,-0.68554431,-0.11916353
1755645655952,-4.55776680,-4.12519312,1.57162077,0.25723959,-0.39395061,0.24800967,0.68427203,-0.20402700,-0.69040960,-0.11610061
1755645656004,-15.73305095,0.52743456,0.43203502,0.04037815,-0.07114334,0.09892021,0.68314387,-0.20297515,-0.69226289,-0.11352374
1755645656038,18.02469896,-1.48230454,-0.53905290,0.58891669,-0.06962993,0.39041847,0.68597988,-0.19269856,-0.69347793,-0.10671094
1755645656050,138.73231161,-21.86401661,3.10026033,0.39691486,0.31346875,0.50636489,0.68890264,-0.19039645,-0.69165981,-0.10377402
1755645656109,-35.57385987,4.25679501,0.08741258,-0.05833005,0.15314876,-0.08713570,0.69255056,-0.19212010,-0.68713427,-0.10634888
1755645656150,12.23977957,-1.56660334,0.38947542,-0.24676775,0.36347138,-0.42384791,0.69705650,-0.19715417,-0.67971945,-0.11499538
1755645656213,-7.81423894,1.60928495,-0.24542998,-0.45777484,0.33597385,-0.57659077,0.69983364,-0.21159696,-0.66911947,-0.13318682
1755645656239,79.45937086,13.05488072,-4.85601034,-0.46341869,1.34352897,-1.49550273,0.71053285,-0.21769092,-0.65145207,-0.15285268
1755645656285,-34.63747996,-4.25438338,0.70204422,0.08669715,0.23511932,0.00310845,0.71597669,-0.21573156,-0.64613837,-0.15278243
1755645656334,-5.40998442,-1.84374890,-0.60077172,-0.44028328,0.38176048,-0.28646452,0.71949784,-0.22656253,-0.63674706,-0.15982946
1755645656373,-1.10799897,-0.84858733,-0.57358191,-0.70919545,0.31643406,-0.76717190,0.71694671,-0.24046276,-0.63054496,-0.17486603
1755645656395,47.92115674,1.79146691,-9.79263398,-1.68100201,0.65679356,-0.78596640,0.71465957,-0.25895378,-0.62332023,-0.18351166
1755645656430,-23.57381494,-0.30767876,3.98265375,-0.00069816,0.17008924,0.03834931,0.71740396,-0.25896597,-0.62035217,-0.18284246
1755645656493,-9.91452308,-0.55736715,2.05607489,-0.02084480,0.03002293,0.00607802,0.71803031,-0.25962049,-0.61940945,-0.18265161
1755645656527,25.84669682,-0.68429405,-6.88573027,-0.07642256,0.08130081,-0.04749866,0.71855330,-0.26094260,-0.61800295,-0.18347334
1755645656550,32.32472645,-1.69245092,-9.15242229,0.82625151,-0.44267991,0.98598731,0.72035520,-0.25139940,-0.62311590,-0.17208518
1755645656611,-23.27858229,0.44228252,5.76717382,0.33290545,-0.17446398,0.34696308,0.72165379,-0.24124578,-0.62843705,-0.16150281
1755645656643,21.69555224,-1.49380699,-7.43028698,0.55509777,-0.58935275,0.83599154,0.71918583,-0.23244748,-0.63777829,-0.14825234
1755645656687,-11.34009228,1.24310055,3.34008108,0.62877680,-0.50341543,0.66152249,0.71649274,-0.21874015,-0.64875275,-0.13383115
1755645656722,12.46102314,-0.83852441,-3.99600160,0.92005947,-1.13600362,1.11941875,0.70620634,-0.20254710,-0.66874641,-0.11412938
1755645656767,-11.70459408,2.08880999,3.51762178,0.13628467,-0.52856840,0.22783645,0.69650385,-0.19949433,-0.68058634,-0.10902585
1755645656807,9.82220940,3.41116452,-1.92709061,0.14865007,-0.81913332,-0.00837199,0.68082861,-0.19649903,-0.69709188,-0.10919454
1755645656839,6.85478672,0.76245524,-0.94015286,0.45139560,-0.54952903,0.69828161,0.67540820,-0.18916385,-0.70602173,-0.09784747
1755645656863,-0.49922671,2.04120791,2.60541584,-0.69598333,-0.07143581,-0.27207933,0.67164539,-0.19748085,-0.70687538,-0.10109881
1755645656900,-18.09673450,-2.35280681,5.19835746,-0.10288971,-0.13480830,-0.07005964,0.66831328,-0.19934830,-0.70932215,-0.10237040
1755645656932,-0.14057321,-0.59786809,0.21545882,0.28454755,-0.21608992,0.06228304,0.66610480,-0.19475285,-0.71281201,-0.10136453
