UnixTime(ms),Ax,Ay,Az,Gx,Gy,Gz,QuatW,QuatX,QuatY,QuatZ
1761619889082,0.00000000,0.00000000,0.00000000,0.00000000,0.00000000,0.00000000,0.99697098,0.06697226,0.01281804,0.03740693
1761619889086,3.43322754,-1.20401382,-1.83105469,0.02165380,-0.05471660,-0.01598759,0.99697059,0.06702640,0.01268125,0.03736696
1761619889098,-0.84987777,0.33940929,0.49196932,0.02318814,-0.01757531,-0.00042821,0.99696326,0.06715509,0.01258370,0.03736458
1761619889109,-0.19135941,0.16830578,0.27465861,-0.00099325,-0.01329242,-0.01188812,0.99696709,0.06714948,0.01250860,0.03729741
1761619889120,-0.00842364,-0.12769276,-0.04958462,-0.00766222,-0.02111567,-0.00316706,0.99697226,0.06710542,0.01238719,0.03727920
1761619889132,0.05338475,-0.13635191,-0.15119183,-0.01798086,-0.02346194,-0.00417454,0.99698161,0.06700383,0.01225463,0.03725562
1761619889143,-0.08301915,0.01244517,0.11531580,-0.00965869,-0.01698485,-0.00713439,0.99698784,0.06695022,0.01216036,0.03721602
1761619889154,-0.23218853,-0.03116823,0.05448554,-0.00134471,-0.00841376,-0.00095106,0.99698912,0.06694269,0.01211324,0.03721070
1761619889165,-0.45890047,-0.07247306,0.26568267,-0.00395579,0.00375397,-0.00297656,0.99699101,0.06692014,0.01213464,0.03719373
1761619889177,-0.62946465,-0.14908265,0.35263254,0.00862353,0.01298655,0.01356173,0.99698398,0.06696887,0.01220802,0.03727035
1761619889188,0.00740079,-0.07944920,0.00861183,-0.00404003,0.01976543,0.02996497,0.99697785,0.06694624,0.01231870,0.03743816
1761619889199,0.50177380,0.13352125,-0.25088690,-0.04525653,0.03018000,0.03319315,0.99698574,0.06669281,0.01248771,0.03762404
1761619889210,0.21287373,0.13304608,-0.26989348,-0.04732044,0.01846706,0.01914879,0.99699807,0.06642781,0.01259113,0.03773127
1761619889221,-0.12164213,-0.08410413,-0.08362897,-0.03622995,0.02326149,-0.00744479,0.99701149,0.06622492,0.01272139,0.03768958
1761619889233,0.07602633,-0.03611251,-0.05701975,-0.01835546,0.03150549,-0.00514437,0.99701714,0.06612213,0.01289782,0.03766077
1761619889244,-0.01520527,0.15442849,0.04941712,-0.00809122,0.00761010,0.01073909,0.99701732,0.06607682,0.01294044,0.03772091
1761619889255,0.15205267,0.10643687,0.10643687,-0.02165177,0.01276181,0.02787856,0.99701850,0.06595557,0.01301190,0.03787703
1761619889266,-0.30410533,-0.20717176,-0.24328426,-0.01527011,0.00025537,0.00838033,0.99702235,0.06587006,0.01301333,0.03792396
1761619889277,-0.15812194,0.06848294,0.03299966,-0.01639150,0.02103341,0.01460099,0.99702374,0.06577909,0.01313007,0.03800500
1761619889289,0.11109433,-0.00966382,0.00530814,-0.01715886,0.01077675,0.03093726,0.99702266,0.06568300,0.01319042,0.03817825
1761619889300,0.22807900,0.25468821,0.12924477,-0.01582978,0.00114953,-0.00151737,0.99702873,0.06559435,0.01319686,0.03816975
1761619889311,0.06082107,-0.13494674,-0.02660922,-0.02233422,0.00507708,0.00248144,0.99703604,0.06546928,0.01322529,0.03818364
1761619889322,-0.07602633,-0.06390964,0.00000000,-0.01830842,0.01901496,0.00865202,0.99703950,0.06536675,0.01333177,0.03823210
1761619889334,-0.12868083,0.11011416,0.05241582,0.01369778,0.03932321,0.00848141,0.99702950,0.06544483,0.01355591,0.03828044
1761619889345,-0.11181311,0.18941294,-0.06858059,0.05477424,0.05341469,0.00244620,0.99700535,0.06574335,0.01384702,0.03829377
1761619889356,-0.73151842,-0.01265049,0.20425781,0.04977143,0.06372955,-0.00396318,0.99698256,0.06602456,0.01420710,0.03827138
1761619889367,-0.29939573,-0.17365583,0.11901821,0.02105331,0.09279701,0.00624192,0.99696586,0.06614246,0.01472676,0.03830633
1761619889378,-0.01340719,-0.07775437,0.00615072,-0.01547338,0.08547621,0.02025733,0.99696011,0.06605658,0.01520115,0.03841876
1761619889389,0.34780335,0.13479263,-0.21136690,-0.02489930,0.06330871,0.00731304,0.99696229,0.06591714,0.01555568,0.03845972
1761619889401,-0.01520527,0.15656673,-0.11403950,-0.00260119,0.09513856,-0.01543941,0.99695813,0.06590258,0.01608846,0.03837325
1761619889412,-0.41299681,0.17913762,-0.03932316,0.02738125,0.12450945,0.00367200,0.99693589,0.06605454,0.01677948,0.03839363
1761619889423,-0.25635701,0.20806298,0.03175866,0.06408180,0.18547073,0.01137511,0.99689117,0.06641660,0.01782739,0.03845790
1761619889434,-0.28084037,0.10118388,0.02185075,0.08311281,0.20253208,0.02018526,0.99683527,0.06687788,0.01895145,0.03856993
1761619889445,-0.69662112,0.00290259,0.13545411,0.05961693,0.21036150,0.01831177,0.99678620,0.06720875,0.02011895,0.03867156
1761619889456,0.46588389,-0.23307679,-0.18698368,0.02183907,0.22046787,0.00191428,0.99675184,0.06733105,0.02135357,0.03868228
1761619889468,-0.27834128,-0.22879258,-0.35382818,0.02254328,0.21469288,-0.01561768,0.99671993,0.06745842,0.02256659,0.03859404
1761619889479,-0.13443604,0.08122177,0.05601502,0.01323895,0.22703017,-0.03113853,0.99669179,0.06753322,0.02384931,0.03841811
1761619889490,0.10527296,0.14667269,0.30974545,0.05383392,0.23629727,-0.03405469,0.99664735,0.06782662,0.02513713,0.03823251
1761619889501,0.22936196,0.15737452,0.22954273,0.07661292,0.22590675,-0.05484684,0.99659800,0.06824799,0.02637962,0.03793085
1761619889512,0.31682246,0.30702543,-0.00594388,0.09198275,0.20112311,-0.05500923,0.99654382,0.06876309,0.02750590,0.03762280
1761619889523,0.10643687,-0.12496828,-0.06842370,0.11152041,0.17000090,-0.06429460,0.99648733,0.06938761,0.02845791,0.03726275
1761619889534,0.16765901,0.20576844,0.08555724,0.09895710,0.13740805,-0.05875149,0.99643900,0.06993682,0.02922052,0.03693668
1761619889545,0.13794327,-0.22602637,-0.05818412,0.11248394,0.11711198,-0.09836893,0.99639541,0.07056673,0.02987635,0.03638582
1761619889556,-0.08255388,-0.21076108,0.39086659,0.13632519,0.08535739,-0.15491266,0.99635961,0.07129607,0.03033301,0.03555703
1761619889567,-0.80303702,0.48146162,-0.25177506,0.11263555,-0.01565684,-0.18086548,0.99635257,0.07192683,0.03024534,0.03454419
1761619889579,1.64477230,-0.12194045,0.32665107,0.13832251,-0.13659745,-0.21830656,0.99636116,0.07272910,0.02945307,0.03327801
1761619889590,1.47059187,0.22131301,0.02452866,0.16025502,-0.20039858,-0.20170450,0.99636481,0.07359448,0.02837092,0.03218880
1761619889601,0.90781073,0.36785658,-0.06166580,0.18424486,-0.25131342,-0.17494497,0.99635831,0.07462625,0.02696356,0.03120911
1761619889612,0.07602633,0.15038959,-0.12164213,0.16571004,-0.22619438,-0.13100058,0.99634456,0.07555422,0.02569687,0.03047551
1761619889623,0.09123160,-0.03373668,0.01520527,0.13992629,-0.19816935,-0.09150794,0.99632837,0.07633781,0.02458713,0.02996306
1761619889635,0.39533693,0.33807960,-0.00380132,0.13955670,-0.18958515,-0.06654341,0.99630496,0.07711933,0.02352545,0.02959042
1761619889646,-0.62461727,-0.17803545,0.06621956,0.15527654,-0.18818863,-0.05253334,0.99627093,0.07797335,0.02249041,0.02930149
1761619889657,-0.55734213,-0.60251301,0.23526694,0.15564653,-0.16942053,-0.02235560,0.99622697,0.07884497,0.02154166,0.02917630
1761619889668,-0.24328426,-0.46471096,0.14064872,0.11488202,-0.15568005,-0.00567365,0.99619524,0.07948831,0.02066985,0.02914452
1761619889679,-0.25848953,-0.08410413,0.04941712,0.07749093,-0.14829327,0.00590709,0.99617644,0.07992226,0.01983941,0.02917760
1761619889690,0.63787827,0.71276461,-0.23973995,0.05041244,-0.10966159,-0.00953474,0.99616744,0.08020205,0.01923078,0.02912469
1761619889700,-0.08883777,-0.41896964,-0.32686972,0.03288756,-0.08285661,0.01203165,0.99616033,0.08036648,0.01881650,0.02918484
1761619889711,-0.17289912,-0.21950272,-0.18176883,0.02936905,-0.04266893,0.04389676,0.99614474,0.08052655,0.01858396,0.02942408
1761619889722,-0.30747905,-0.07000164,-0.03014431,0.04766037,0.00765688,0.03122563,0.99611739,0.08079106,0.01862645,0.02959738
1761619889734,-0.23125291,-0.09465924,-0.19069440,0.03183086,0.03015783,0.02160501,0.99609576,0.08097250,0.01879835,0.02972053
1761619889745,-0.16868833,-0.23434015,-0.01140368,0.00381709,0.06076932,0.02838354,0.99608325,0.08099311,0.01912650,0.02987380
1761619889756,-0.24441058,-0.43048151,-0.11544739,-0.01840860,0.06812483,0.00638608,0.99608316,0.08089002,0.01950800,0.02990957
1761619889767,-0.02800751,-0.44072231,0.07255278,-0.03113977,0.04256746,-0.01647991,0.99609548,0.08071408,0.01974851,0.02981645
1761619889778,0.08723023,-0.17800330,-0.01616032,-0.03843137,0.03075927,-0.01085497,0.99611086,0.08050463,0.01991615,0.02975729
1761619889789,0.57561782,0.05970499,-0.02868858,-0.06761608,0.01082523,-0.00280410,0.99614038,0.08012936,0.01997623,0.02974173
1761619889800,0.20917515,0.20353525,-0.09366307,-0.05293405,-0.02026533,-0.00407649,0.99616714,0.07983293,0.01986274,0.02971890
1761619889811,0.21287373,0.07341293,-0.05701975,-0.02184565,-0.01917481,0.01467667,0.99617661,0.07971059,0.01975536,0.02980109
1761619889822,-0.14215039,0.08655692,-0.11991300,-0.01515740,-0.03322659,-0.02988283,0.99619179,0.07962723,0.01957262,0.02963674
1761619889834,-0.03869240,-0.11664008,-0.01847896,-0.03903513,-0.02617947,-0.04002113,0.99621923,0.07940473,0.01942339,0.02940862
1761619889845,-0.03871666,-0.11975374,0.04673654,-0.08647039,-0.03460837,-0.01976634,0.99626392,0.07892914,0.01923305,0.02929990
1761619889858,-0.33231283,0.17871736,0.02238349,-0.04232491,-0.03862627,-0.00478561,0.99629098,0.07865826,0.01898584,0.02926927
1761619889868,-0.21396668,0.25494377,-0.05408741,-0.03456618,-0.02863781,-0.00939493,0.99631030,0.07846988,0.01882976,0.02921807
1761619889880,0.02877836,-0.07704634,-0.00760571,-0.03029318,-0.02369951,0.03043320,0.99632123,0.07829872,0.01869586,0.02939002
1761619889891,0.28541178,-0.15459805,0.09053384,-0.06028492,-0.02581396,0.03957114,0.99634345,0.07796715,0.01855388,0.02960766
1761619889902,-0.09731371,-0.00565446,0.00228079,-0.06792749,-0.02279397,0.03152411,0.99637025,0.07758676,0.01842624,0.02978420
1761619889913,-0.07602633,-0.17438540,-0.03041053,-0.06042347,0.00208102,0.03527047,0.99639040,0.07724839,0.01843789,0.02998171
1761619889924,-0.12232335,0.12278768,0.10888160,-0.04987231,-0.00085389,0.02434042,0.99640783,0.07697160,0.01843315,0.03011680
1761619889935,0.02999958,0.04033976,0.03273927,-0.02052551,0.00127212,0.02062979,0.99641308,0.07685665,0.01844028,0.03023233
1761619889947,0.10389452,0.16204135,0.07668722,-0.01324882,-0.01161499,0.01568942,0.99641737,0.07678180,0.01837465,0.03032097
1761619889958,-0.12108379,-0.17694162,0.74456764,-0.00861979,-0.01470071,0.02099026,0.99641899,0.07673439,0.01829380,0.03043642
1761619889969,-0.16836377,-0.22990190,0.34695654,0.00894138,-0.00101131,0.00042615,0.99641516,0.07678446,0.01828814,0.03043880
1761619889980,-0.04387843,0.06938943,0.05908250,-0.03176468,0.01065000,0.03259742,0.99642222,0.07660499,0.01834831,0.03062298
1761619889991,0.21398667,0.18689156,-0.69415521,-0.03563828,0.01842903,0.01559272,0.99643286,0.07640720,0.01845059,0.03070952
1761619890002,0.03209447,0.15031412,-0.33613984,-0.04227889,0.00559194,0.00135354,0.99644986,0.07617466,0.01848134,0.03071696
1761619890014,0.01249305,0.13688457,0.01948644,-0.01083785,0.00226297,-0.01539450,0.99645698,0.07611343,0.01849413,0.03062998
1761619890025,0.06176299,0.09670230,-0.09133252,0.00882615,0.00078228,0.00488407,0.99645228,0.07616286,0.01849851,0.03065734
1761619890036,-0.10684288,0.20455039,0.09194984,0.02341361,0.00885478,-0.01436989,0.99644388,0.07629280,0.01854766,0.03057758
1761619890047,-0.09288282,0.04982776,0.04644141,0.02073751,0.01672137,-0.00692224,0.99643451,0.07640789,0.01864046,0.03053916
1761619890058,0.01547562,0.09772980,-0.06408925,0.01192726,0.03172754,-0.00744014,0.99642725,0.07647528,0.01881972,0.03049713
1761619890069,-0.06478336,0.33471182,-0.01719032,-0.00631809,0.01831900,-0.00204322,0.99642835,0.07644085,0.01891956,0.03048599
1761619890081,0.03271901,-0.13722755,-0.06769334,-0.01460749,0.01950211,-0.00340489,0.99643321,0.07635759,0.01903072,0.03046658
1761619890092,0.10868320,-0.23094747,0.03512154,-0.03119626,0.00034137,-0.00328401,0.99644686,0.07618601,0.01903260,0.03044852
1761619890103,-0.03141357,-0.25170839,0.03948864,-0.02271118,-0.00945498,-0.00357397,0.99645870,0.07605315,0.01897729,0.03042761
1761619890114,0.01950730,0.00007119,0.00024918,0.00322311,-0.01142536,0.00087981,0.99645840,0.07607039,0.01891616,0.03043232
1761619890125,0.04470528,0.03901087,-0.04112452,0.01819977,-0.00877418,0.00221714,0.99645123,0.07617140,0.01886746,0.03044463
1761619890136,-0.12384376,-0.01910870,0.03870117,0.01254862,-0.00511722,0.00829529,0.99644504,0.07624104,0.01883906,0.03049067
1761619890147,-0.06054710,-0.00716814,-0.01482856,0.00419935,-0.00509855,-0.00149548,0.99644403,0.07626456,0.01881051,0.03048229
1761619890159,-0.25848953,0.22071395,-0.10263555,-0.01498431,0.00162333,0.00266286,0.99644982,0.07618065,0.01881960,0.03049720
1761619890170,-0.17346419,-0.04566825,-0.05563294,-0.01891852,0.00003203,0.00301047,0.99645733,0.07607565,0.01881978,0.03051391
1761619890181,0.06890015,-0.11506208,-0.01116936,-0.02637325,0.00439399,-0.00088827,0.99646838,0.07592664,0.01884461,0.03050889
1761619890192,0.22404220,-0.54046817,-0.03242893,-0.04666613,-0.00010649,-0.00194323,0.99648860,0.07566531,0.01884401,0.03049801
1761619890203,0.15273142,-0.09461919,0.04409169,-0.03282703,-0.00378574,-0.00658007,0.99650393,0.07548312,0.01882300,0.03046149
1761619890214,-0.07952611,0.29908165,-0.10444903,-0.00656368,0.00252497,-0.01740878,0.99650933,0.07544702,0.01883689,0.03036574
1761619890226,-0.16023689,0.20725344,-0.09621003,0.00671304,0.00055408,-0.03403295,0.99651224,0.07548495,0.01884002,0.03017346
1761619890237,0.00697487,-0.09320391,-0.05879818,-0.01445945,-0.00654565,-0.02096115,0.99652242,0.07540542,0.01880401,0.03005817
1761619890248,0.09777166,-0.08058312,0.07964317,-0.07644308,0.01197365,0.04080738,0.99654675,0.07497352,0.01887167,0.03028873
1761619890259,-0.13196459,-0.20588298,-0.30250022,-0.09446216,0.00065540,0.02458109,0.99658151,0.07445398,0.01887527,0.03042393
1761619890270,-0.04696457,0.16043171,0.02374913,-0.04214201,-0.00189250,0.00312076,0.99659909,0.07421377,0.01886448,0.03044172
1761619890281,0.04867237,0.18594368,-0.00884952,0.00216600,0.01117314,0.00690090,0.99659588,0.07422568,0.01892594,0.03047967
1761619890293,0.09731371,0.22137918,0.43777345,0.01766457,0.00725901,0.02825402,0.99658288,0.07432460,0.01896659,0.03063789
1761619890304,-0.01520527,0.18246320,0.11023818,0.01633209,0.00844594,0.01115520,0.99657323,0.07441606,0.01901388,0.03070036
1761619890315,0.05826759,0.00087525,0.06467139,0.02737383,0.00548338,0.01346178,0.99655912,0.07456662,0.01904404,0.03077440
1761619890326,-0.02241491,-0.02069293,0.15990636,0.01279847,0.01644368,0.00841249,0.99655038,0.07463957,0.01913777,0.03082235
1761619890337,0.05581117,-0.09226538,0.07628205,0.01262773,0.01693614,0.00578802,0.99654233,0.07470965,0.01923177,0.03085448
1761619890349,0.15112755,0.07653683,-0.00089249,0.04123989,0.01135110,0.00244573,0.99652299,0.07494472,0.01929647,0.03086842
1761619890359,-0.31155702,-0.10499988,0.27583985,0.06213979,-0.01065143,-0.01176755,0.99650078,0.07528028,0.01923895,0.03080487
1761619890371,0.07501286,-0.08856817,0.05055214,0.06231925,-0.00247348,0.00683558,0.99647295,0.07563550,0.01922485,0.03084384
1761619890382,-0.01377048,0.08556791,0.08563515,0.06015244,-0.01105996,-0.01149009,0.99645131,0.07596032,0.01916513,0.03078179
1761619890393,0.26499943,0.26290103,-0.18581771,0.03423291,-0.00061686,-0.00995695,0.99643835,0.07615374,0.01916164,0.03072553
1761619890404,0.17381382,0.03956932,-0.01680944,0.01457656,0.00392286,-0.01191281,0.99643382,0.07623391,0.01918322,0.03066001
1761619890415,-0.06413858,-0.28336224,-0.14348242,-0.00419231,-0.00345355,0.02382077,0.99643188,0.07621043,0.01916388,0.03079341
1761619890428,0.06631437,-0.10026147,0.07132888,-0.00151905,0.00435251,-0.00795193,0.99643367,0.07620063,0.01919195,0.03074212
1761619890440,-0.04863332,0.09734875,-0.04614576,-0.00000835,0.00567525,-0.00545924,0.99643401,0.07620058,0.01922458,0.03071073
1761619890450,0.04490828,0.09368491,-0.05439696,0.02459101,-0.00224530,-0.01332878,0.99642637,0.07633215,0.01921257,0.03063942
1761619890461,-0.37345271,0.04101070,0.05520791,0.03147604,-0.01057949,-0.02950077,0.99641906,0.07650841,0.01915333,0.03047421
1761619890473,0.07602633,-0.06248414,-0.07602633,0.00272728,-0.01761534,-0.01434277,0.99642223,0.07652368,0.01905468,0.03039389
1761619890484,0.12413529,-0.02528535,0.07445303,-0.00471534,-0.01494988,0.00105908,0.99642561,0.07649775,0.01897246,0.03039972
1761619890495,0.42508273,-0.15638318,-0.19252806,-0.03321367,-0.03445038,0.00214116,0.99644347,0.07630843,0.01877609,0.03041192
1761619890506,-0.04970045,-0.09330293,-0.10653007,0.00357756,-0.02711208,-0.00500500,0.99644562,0.07632829,0.01862562,0.03038415
1761619890517,-0.04359735,0.07001804,-0.02794065,0.01425172,-0.01889481,-0.00390501,0.99644221,0.07640667,0.01852170,0.03036267
1761619890528,0.08487303,0.00291578,-0.01783163,0.00593587,-0.03235664,0.01615473,0.99644025,0.07643991,0.01834050,0.03045314
1761619890540,-0.04561580,-0.01900658,0.06462238,0.00518966,-0.02220816,-0.00617486,0.99644136,0.07646897,0.01821613,0.03041856
1761619890551,-0.46082040,-0.15740277,0.44489072,-0.00847816,-0.01446066,0.00634470,0.99644536,0.07642192,0.01813588,0.03045377
1761619890562,-0.21672657,-0.04474823,0.14706446,-0.00966352,-0.00810315,0.00315317,0.99644975,0.07636829,0.01809090,0.03047127
1761619890573,-0.04315008,-0.10708540,-0.13431319,-0.01538646,-0.00767402,0.00076847,0.99645700,0.07628212,0.01804793,0.03047557
1761619890584,0.35664267,0.05872060,-0.41758437,-0.02150652,-0.00656737,-0.01253462,0.99646881,0.07616384,0.01801181,0.03040663
1761619890595,0.25311997,0.02599606,-0.23960847,-0.01299978,-0.00763260,-0.01246100,0.99647734,0.07609039,0.01796868,0.03033623
1761619890606,-0.05826443,0.05627336,0.07787653,-0.00752504,-0.01573668,-0.01939577,0.99648544,0.07604825,0.01788056,0.03022761
1761619890618,0.00207328,0.01716717,-0.01288887,0.00034949,-0.01779032,-0.00919477,0.99648861,0.07605019,0.01778182,0.03017658
1761619890629,-0.09288282,0.10667011,0.05031153,-0.00441576,-0.00138520,-0.01037038,0.99649236,0.07602568,0.01777414,0.03011903
1761619890640,-0.04759923,0.06976882,0.05037585,-0.00620289,0.01391806,0.00334435,0.99649306,0.07599033,0.01785347,0.03013809
1761619890651,-0.22377024,-0.05454399,-0.22377024,-0.00579493,0.02038732,0.00053795,0.99649338,0.07595903,0.01796356,0.03014099
1761619890662,-0.05631580,0.02301908,-0.17288951,-0.00636137,0.02310734,0.00658494,0.99649264,0.07592341,0.01809296,0.03017787
1761619890673,0.03041053,-0.00261341,-0.00760263,-0.00908824,0.01241589,0.00105112,0.99649507,0.07587251,0.01816249,0.03018375
1761619890684,0.07602016,0.05564374,0.06945478,0.00678708,0.00778074,-0.00878779,0.99649289,0.07591018,0.01820567,0.03013498
1761619890696,0.16565642,0.13134722,0.18964363,0.02332527,0.00284317,-0.00351581,0.99648315,0.07604197,0.01822174,0.03011512
1761619890707,0.00080736,0.06749650,0.02872853,0.04934027,0.00005293,-0.00704660,0.99646321,0.07631828,0.01822203,0.03007566
1761619890718,-0.06163502,0.08726775,0.06371341,0.01678855,-0.00434711,0.00457321,0.99645588,0.07640977,0.01819834,0.03010058
1761619890729,-0.00083699,-0.12603196,0.04443007,0.01292380,0.00269810,-0.00111039,0.99645024,0.07648215,0.01821345,0.03009436
1761619890740,0.04350513,-0.15162094,-0.01009004,0.00497895,0.00088887,0.00521415,0.99644707,0.07651053,0.01821852,0.03012408
1761619890751,-0.04475405,0.03161561,-0.10994864,-0.01362736,-0.00535882,0.00109322,0.99645307,0.07643694,0.01818958,0.03012999
1761619890762,-0.01633158,0.03902509,-0.08517765,-0.01572739,-0.01069691,0.00161185,0.99646064,0.07634887,0.01812968,0.03013901
1761619890774,0.06082107,0.05369360,0.02660922,0.00042147,-0.01583787,0.00408440,0.99646138,0.07635123,0.01804099,0.03016189
1761619890785,-0.10767219,-0.09919119,0.11790036,0.02803945,-0.00800641,0.00352316,0.99644965,0.07650685,0.01799655,0.03018144
1761619890796,-0.04534183,0.05839173,0.09602605,0.02047108,-0.00048414,0.00870877,0.99643941,0.07662148,0.01799384,0.03023021
1761619890807,-0.06082107,-0.04300239,0.10643687,0.00729780,0.01205935,0.00912971,0.99643350,0.07666235,0.01806137,0.03028134
1761619890818,-0.04982301,-0.10354284,-0.03377831,0.01168794,0.01598456,0.00945323,0.99642537,0.07672663,0.01814929,0.03033333
1761619890829,-0.00827217,0.10321031,0.04936617,0.00380551,0.01501630,0.01419453,0.99641967,0.07674833,0.01823488,0.03041424
1761619890841,0.05993166,-0.05954698,0.07970164,0.00640768,0.00712691,-0.00151927,0.99641632,0.07678549,0.01827621,0.03040542
1761619890852,-0.10504149,-0.30118770,0.30156180,0.01521692,0.00105538,-0.00074951,0.99640994,0.07686842,0.01828197,0.03040134
1761619890863,0.01605377,-0.02834494,0.33311577,-0.00205689,0.00923612,0.00239261,0.99640948,0.07685721,0.01833230,0.03041438
1761619890874,-0.06099705,0.14436768,-0.14203977,0.00686630,-0.01341879,-0.00210718,0.99640822,0.07689669,0.01825515,0.03040226
1761619890885,0.24822047,0.24877285,-0.38681023,0.01739016,-0.00836741,-0.01528690,0.99640442,0.07698799,0.01821122,0.03032201
1761619890896,0.00341425,0.12949694,-0.24511460,0.01524415,-0.00628219,-0.02804150,0.99640322,0.07707412,0.01817572,0.03016357
1761619890907,-0.04854511,-0.13954976,-0.11675937,0.00310223,-0.01413712,-0.00619987,0.99640435,0.07709118,0.01809797,0.03012947
1761619890918,0.10809562,-0.06849713,0.08473480,-0.02884218,-0.00332626,0.01881686,0.99641398,0.07692967,0.01807934,0.03023485
1761619890930,0.00013822,-0.07786667,0.09696026,-0.02727444,-0.00497241,0.01214380,0.99642411,0.07677829,0.01805174,0.03030225
1761619890941,-0.07495583,0.11708063,0.06513217,-0.02141620,-0.00263723,0.01336480,0.99643139,0.07665729,0.01803684,0.03037776
1761619890952,0.09404953,-0.11827670,0.13137810,-0.00326901,-0.00386103,0.01909160,0.99642997,0.07663948,0.01801580,0.03048181
1761619890963,-0.10408146,0.03750105,0.33876967,0.00632124,0.00153748,0.00769031,0.99642570,0.07667551,0.01802456,0.03052564
1761619890974,-0.08158153,0.00342660,-0.05053907,0.01494509,-0.00223265,0.00303885,0.99641908,0.07675771,0.01801229,0.03054235
1761619890985,0.00140732,0.03535000,-0.16419852,0.01897439,0.01099738,0.00475035,0.99640905,0.07686301,0.01807332,0.03056872
1761619890996,0.00136984,0.12564036,-0.25105813,0.02248480,0.01168645,0.00946570,0.99639651,0.07698893,0.01813876,0.03062173
1761619891008,0.06108304,-0.05645680,-0.01663779,0.03931883,0.02070918,-0.01702074,0.99638013,0.07721108,0.01825577,0.03052556
1761619891019,-0.03403738,0.03035813,-0.01084593,0.04696761,0.00761261,-0.00742843,0.99636056,0.07746940,0.01829764,0.03048470
1761619891030,0.13769509,-0.04425611,0.01429232,0.02724822,0.01628878,0.00531985,0.99634597,0.07762335,0.01838967,0.03051476
1761619891041,-0.18549164,-0.04344464,0.01102812,0.02043325,0.01074491,-0.00947672,0.99633763,0.07773676,0.01844931,0.03046217
1761619891052,0.07740235,0.00653082,0.20511622,0.00178857,0.02341205,-0.00092296,0.99633460,0.07774669,0.01857924,0.03045704
1761619891063,-0.04479389,0.01999972,0.06489635,0.00137690,0.01524205,-0.00605279,0.99633344,0.07775440,0.01866460,0.03042315
1761619891075,0.03041053,-0.11546499,-0.05321843,-0.01240884,0.02110120,0.00562467,0.99633568,0.07768491,0.01878277,0.03045465
1761619891086,0.01379281,-0.16712347,-0.20527361,-0.04719926,0.01977203,0.02697002,0.99634928,0.07742531,0.01889151,0.03060298
1761619891097,0.00165876,-0.08175855,-0.19372892,-0.02786566,0.01953669,-0.00056212,0.99635941,0.07726926,0.01900092,0.03059983
1761619891108,0.20041679,0.04160160,-0.01537681,-0.00948957,0.00693781,0.00503156,0.99636190,0.07721660,0.01903942,0.03062776
1761619891119,-0.07698522,0.16950533,-0.07219077,0.00558913,-0.00598178,-0.01495709,0.99636269,0.07724790,0.01900592,0.03054400
1761619891130,0.05948261,0.04179870,-0.04414517,0.01349653,-0.00885076,-0.02652594,0.99636231,0.07732415,0.01895592,0.03039413
1761619891141,0.01827417,0.00356808,-0.03881517,-0.00250328,-0.02105158,0.00008891,0.99636556,0.07731038,0.01884013,0.03039462
1761619891153,-0.10934841,0.06080262,-0.11466102,-0.01527408,-0.01095967,0.00665294,0.99637215,0.07722561,0.01877931,0.03043154
1761619891164,-0.24328426,0.12190540,-0.09640276,-0.02672954,-0.00090453,0.00452287,0.99638306,0.07707593,0.01877424,0.03045687
1761619891175,0.01520527,0.00593956,-0.00000000,-0.04534397,0.01171824,0.01595813,0.99639870,0.07682200,0.01883986,0.03054623
1761619891186,0.05883056,-0.32575838,-0.00288523,-0.02221759,-0.00840391,0.01140639,0.99640706,0.07669980,0.01879364,0.03060897
1761619891197,0.18731368,-0.10755848,0.14270178,-0.01752729,0.00888692,0.00927115,0.99641203,0.07660253,0.01884297,0.03066042
1761619891208,-0.10313166,0.00321047,0.03897187,-0.01976046,0.00055959,0.01625067,0.99641777,0.07648989,0.01884616,0.03075305
1761619891219,-0.00422468,-0.01481277,-0.04911187,-0.01525314,0.02042947,0.01337319,0.99641978,0.07640676,0.01895750,0.03082594
1761619891231,-0.08401919,0.10703736,0.04695784,-0.01971146,0.02164587,0.00871485,0.99642450,0.07629441,0.01908088,0.03087561
1761619891242,0.05641571,-0.05384900,-0.04645999,-0.00266172,0.00971018,0.00169135,0.99642431,0.07627977,0.01913428,0.03088491
1761619891253,-0.26797460,0.03374313,0.00000000,-0.00814210,0.02188592,0.00435685,0.99642467,0.07623499,0.01925466,0.03090888
1761619891264,-0.16034645,-0.00669982,-0.04139979,-0.00861685,0.01449152,-0.00506584,0.99642767,0.07618673,0.01933581,0.03088051
1761619891275,0.00000000,0.01710592,-0.00760263,0.00213371,0.01478931,-0.00336421,0.99642573,0.07619868,0.01941863,0.03086167
1761619891286,0.27367258,0.10690983,0.08642110,-0.00004815,0.02299850,0.00555289,0.99642230,0.07619841,0.01954627,0.03089249
1761619891297,0.10836329,0.05732611,0.16254493,-0.01073918,0.03254102,-0.00477425,0.99642412,0.07613881,0.01972687,0.03086599
1761619891309,-0.14641282,-0.05256454,-0.07774817,-0.00276336,0.02276035,0.00485413,0.99642191,0.07612320,0.01985547,0.03089341
1761619891320,0.08579093,0.09663468,0.07951355,-0.02200509,0.03133069,0.01035410,0.99642593,0.07600217,0.02002779,0.03095036
1761619891331,0.00414689,-0.00745144,-0.09814308,-0.00767733,0.00723223,0.00192162,0.99642806,0.07595918,0.02006829,0.03096112
1761619891342,0.09123160,0.10548654,-0.01520527,-0.00364910,0.01914809,0.00624999,0.99642636,0.07593874,0.02017552,0.03099612
1761619891353,-0.12508772,0.12030407,0.13020180,0.00671722,0.00061742,0.00920097,0.99642186,0.07597602,0.02017894,0.03104719
1761619891364,-0.00000000,0.04426447,0.11997364,0.01280266,0.00221801,0.00249169,0.99641576,0.07604708,0.02019125,0.03106102
1761619891375,-0.01287653,-0.06592802,0.04095833,0.01270537,0.00203777,0.00430959,0.99640934,0.07611823,0.02020267,0.03108515
1761619891386,0.09039488,-0.12867708,-0.14195038,0.00251560,0.00588024,-0.00396442,0.99640830,0.07613219,0.02023530,0.03106315
1761619891398,0.03205435,-0.06182490,-0.06838945,-0.00092316,0.00211282,0.00300924,0.99640793,0.07612702,0.02024713,0.03108000
1761619891409,0.04561580,-0.08576721,-0.04941712,-0.00594726,-0.00185203,0.00446598,0.99640990,0.07609371,0.02023676,0.03110501
1761619891420,0.01451294,0.06764931,0.00276437,0.00476793,0.00613755,-0.00278073,0.99640767,0.07612018,0.02027082,0.03108958
1761619891431,0.04642686,-0.07874694,-0.01658583,-0.00083626,-0.00332842,0.00108156,0.99640823,0.07611545,0.02025202,0.03109569
1761619891442,-0.01701869,-0.07225532,0.05928642,-0.01351932,-0.00776483,-0.00454685,0.99641555,0.07604110,0.02020931,0.03107068
1761619891453,0.04672164,0.15464447,-0.00241902,-0.01239013,-0.01171858,0.00124882,0.99642195,0.07597171,0.02014369,0.03107767
1761619891464,-0.01604470,0.18366957,0.15615432,-0.02884175,-0.01195341,0.00837518,0.99643392,0.07581308,0.02007794,0.03112374
1761619891476,-0.01519901,0.05729313,-0.05098000,-0.01564390,0.00126180,0.00582204,0.99643938,0.07572626,0.02008495,0.03115605
1761619891487,-0.10602591,-0.24073507,-0.03821864,-0.00268306,0.00956348,0.01245298,0.99643725,0.07571123,0.02013850,0.03122579
1761619891498,0.01520527,-0.00522681,-0.05321843,-0.01623426,0.00816371,0.01164786,0.99644119,0.07562032,0.02018422,0.03129101
1761619891509,0.03107500,-0.09709895,-0.00313417,-0.00868057,0.00606042,0.00353763,0.99644358,0.07557128,0.02021846,0.03131100
1761619891520,0.04418339,0.02618283,-0.03480685,-0.01299968,-0.00196316,0.00994340,0.99644747,0.07550043,0.02020776,0.03136519
1761619891531,0.00167397,0.15207446,0.04463931,-0.00877374,-0.00663120,0.01053696,0.99645008,0.07545129,0.02017063,0.03142420
1761619891543,0.10643687,-0.17937463,-0.03421185,0.01454321,-0.00777487,0.00333068,0.99644420,0.07553274,0.02012709,0.03144285
1761619891554,-0.28767786,-0.48015067,-0.17927906,0.01051912,-0.00753512,0.00622602,0.99643961,0.07559007,0.02008602,0.03147678
1761619891565,-0.05152696,-0.10943056,-0.06523094,-0.00338391,-0.00266379,-0.00360272,0.99644201,0.07557095,0.02007097,0.03145643
1761619891576,-0.03616676,0.08469093,-0.07575840,-0.00795643,-0.00960684,0.00061170,0.99644632,0.07552679,0.02001765,0.03145982
1761619891587,0.32218727,0.38875098,0.06448540,0.00543222,-0.01380488,-0.02458162,0.99644990,0.07555721,0.01994035,0.03132217
1761619891598,0.06192188,0.17254201,0.05877741,-0.02026004,-0.02407271,-0.03260293,0.99646676,0.07544477,0.01980674,0.03114122
1761619891609,0.04785768,0.00191049,0.06827175,-0.03767236,-0.02554317,0.00212057,0.99648484,0.07523757,0.01966626,0.03115288
1761619891620,-0.01714048,-0.05503702,0.01534350,-0.02149673,-0.01515141,0.02405121,0.99649138,0.07511719,0.01958141,0.03128757
1761619891632,-0.04561223,0.15456435,0.15117386,-0.01710942,0.00857688,0.01606315,0.99649485,0.07502052,0.01962987,0.03137833
1761619891643,-0.06109991,0.00803991,-0.04353026,-0.00571737,0.00266881,0.01373328,0.99649455,0.07498879,0.01964468,0.03145455
1761619891654,0.09288282,-0.10957270,0.73145218,-0.00759564,0.01538979,0.02505338,0.99649163,0.07494663,0.01973009,0.03159359
1761619891665,0.07534141,-0.04914101,0.12362841,-0.01169989,0.00977095,0.01430719,0.99649293,0.07488111,0.01978481,0.03167371
1761619891676,0.03234312,-0.03942898,-0.16344335,-0.01219975,-0.00116012,0.00482368,0.99649729,0.07481340,0.01977837,0.03170048
1761619891687,-0.24768751,0.12698823,-0.62695901,0.00484577,-0.00321090,-0.00028154,0.99649567,0.07484030,0.01976055,0.03169892
1761619891698,0.13932422,0.07740235,0.05031153,0.01338831,0.00350614,-0.00227800,0.99649011,0.07491460,0.01978001,0.03168628
1761619891710,-0.07603239,0.07532380,-0.02647677,0.03879358,0.00139828,-0.00305728,0.99647400,0.07513378,0.01978791,0.03166900
1761619891721,0.03152642,0.02684018,0.03919878,0.06062597,0.01745294,0.00149763,0.99644663,0.07546723,0.01988390,0.03167724
1761619891732,-0.07657925,-0.06485133,-0.04616872,0.04279125,0.01133578,0.00433971,0.99642641,0.07570686,0.01994738,0.03170154
1761619891743,0.03027478,-0.06174363,0.09349173,-0.00569885,0.01335017,-0.00443640,0.99642814,0.07567466,0.02002281,0.03167648
1761619891754,-0.09689091,-0.15029989,0.15148083,-0.00234820,0.01105158,0.00773990,0.99642656,0.07566186,0.02008304,0.03171866
1761619891765,0.01746879,-0.07605091,-0.01185889,-0.01646320,0.00234138,-0.00889414,0.99643480,0.07557049,0.02009604,0.03166930
1761619891776,0.04642686,-0.03728447,-0.04111132,-0.01862716,-0.00301207,0.00187883,0.99644278,0.07546525,0.02007902,0.03167991
1761619891788,0.12302178,0.09745932,-0.13617333,-0.00936503,-0.00245903,0.00343718,0.99644638,0.07541327,0.02006537,0.03169899
1761619891799,-0.04615772,0.10872044,-0.10523422,0.00397100,0.00141867,0.00850384,0.99644299,0.07543571,0.02007338,0.03174704
1761619891810,0.06109019,0.06253460,-0.02341342,0.01454203,0.00919617,0.01108278,0.99643381,0.07551714,0.02012488,0.03180910
1761619891821,-0.14017999,-0.00957492,-0.03321534,0.01292610,-0.00054222,-0.00954612,0.99643015,0.07558824,0.02012190,0.03175660
1761619891832,0.00042219,-0.13284398,-0.04531556,-0.01398611,0.00538613,-0.01124129,0.99643742,0.07551061,0.02015179,0.03169421
1761619891843,0.04561944,-0.13572497,-0.05678880,-0.04195482,-0.00483716,0.00965772,0.99645417,0.07527357,0.02012446,0.03174877
1761619891854,-0.08026886,-0.21284789,0.16004048,-0.04349450,0.00030089,0.01063061,0.99647017,0.07503652,0.02012610,0.03180671
1761619891866,-0.18434541,0.01314375,0.15608290,-0.01252669,-0.00336121,0.00484600,0.99647492,0.07496700,0.02010745,0.03183361
1761619891877,0.01951274,0.03159255,-0.05749529,0.00012089,0.00185660,0.00694204,0.99647340,0.07496768,0.02011794,0.03187283
1761619891888,0.01109662,0.20730172,-0.15432521,-0.00028990,0.00425289,0.00809028,0.99647161,0.07496608,0.02014154,0.03191773
1761619891899,0.18702838,0.05264389,-0.11545488,-0.00701178,0.01342727,0.01062787,0.99647114,0.07492751,0.02021539,0.03197618
1761619891910,-0.12525287,-0.08728318,-0.02345270,-0.02340717,0.00674677,0.00942199,0.99647879,0.07479175,0.02025452,0.03203083
1761619891921,0.10110606,-0.24323934,-0.00660636,-0.04185595,0.00534760,0.01395470,0.99649259,0.07456782,0.02028313,0.03210549
1761619891936,0.05902546,0.12871141,0.07102600,-0.02287615,-0.00125931,-0.00732395,0.99650747,0.07439511,0.02027363,0.03205019
1761619891943,0.19222460,-0.60865323,-0.36201240,-0.03310830,-0.03019005,0.00199775,0.99651698,0.07429081,0.02017853,0.03205649
1761619891954,-0.17961153,0.71879555,0.28741339,0.00052952,-0.01090134,-0.00472060,0.99651887,0.07429383,0.02011639,0.03202958
1761619891965,-0.16039759,0.29280339,0.09928058,0.01150456,-0.01329739,-0.00002731,0.99651563,0.07435711,0.02004325,0.03202943
1761619891976,-0.01105838,-0.01544717,-0.03441919,0.01452895,-0.00318770,0.00116695,0.99650971,0.07443847,0.02002540,0.03203596
1761619891987,0.13684740,-0.19648055,-0.16725793,-0.00252793,-0.00229373,0.00330950,0.99651043,0.07442431,0.02001256,0.03205450
1761619891999,-0.01520527,-0.24946140,0.00380132,-0.01279331,0.00358703,0.00776075,0.99651397,0.07435267,0.02003265,0.03209796
1761619892010,-0.01520527,0.00380132,-0.02280790,-0.01335471,0.01234112,0.00729587,0.99651684,0.07427788,0.02010176,0.03213881
1761619892021,-0.10643687,0.05464393,0.04941712,-0.01744626,0.00798279,-0.00262563,0.99652369,0.07418019,0.02014646,0.03212411
1761619892033,0.10775220,-0.06241262,-0.00462998,-0.01024607,0.00714773,0.00360036,0.99652667,0.07411922,0.02018899,0.03214553
1761619892043,-0.03764005,0.14689251,0.00970639,0.00179938,0.00331792,0.00584798,0.99652465,0.07412858,0.02020624,0.03217594
1761619892054,-0.24311723,0.26526530,0.22538362,0.01073910,0.00812308,0.00629126,0.99651823,0.07418764,0.02025092,0.03221054
1761619892065,-0.00801732,0.05379295,-0.00117495,0.00978447,0.00051592,0.00926619,0.99651241,0.07424244,0.02025381,0.03226243
1761619892077,0.01520527,-0.09788390,0.02660922,0.01730746,0.00183590,0.01136790,0.99650291,0.07433936,0.02026409,0.03232609
1761619892088,0.31501905,-0.19773457,-0.19236604,0.00384753,0.00015704,0.00197862,0.99650089,0.07436129,0.02026498,0.03233737
1761619892099,-0.01751737,-0.10867519,0.04745986,-0.00750014,-0.01368219,-0.00062889,0.99650565,0.07431966,0.02018905,0.03233388
1761619892110,0.04643757,-0.02499392,-0.01235495,-0.00370925,-0.01477659,-0.00641166,0.99650996,0.07429926,0.02010778,0.03229862
1761619892121,0.06234407,-0.05601995,0.01224364,-0.00312357,-0.01252226,-0.00014418,0.99651268,0.07428193,0.02003828,0.03229782
1761619892133,-0.04137782,0.07447779,0.04068010,0.00735445,-0.00505880,-0.00315103,0.99651063,0.07432569,0.02000818,0.03227907
1761619892148,0.01319018,0.03304803,0.00165914,0.00275866,-0.00137239,-0.00528970,0.99651058,0.07434486,0.01999864,0.03224231
1761619892154,-0.02403368,0.01913662,-0.06917803,0.00420478,-0.00059595,0.00669651,0.99650889,0.07435852,0.01999670,0.03226407
1761619892167,-0.04183571,0.19239981,0.59615880,-0.00341927,-0.00503520,-0.00347722,0.99651203,0.07433561,0.01996297,0.03224077
1761619892176,0.02127704,-0.08631176,0.07299206,0.00201754,0.00182313,-0.00588870,0.99651205,0.07434419,0.01997072,0.03221574
1761619892187,0.00133409,-0.09428265,-0.08913390,-0.00803868,-0.00369953,-0.00353828,0.99651662,0.07429756,0.01994926,0.03219522
1761619892228,0.01841186,-0.03682557,-0.16698096,-0.00603871,-0.00257413,-0.00079878,0.99652737,0.07417437,0.01989675,0.03217893
1761619892232,2.24160213,0.60170743,2.72778904,-0.06099742,-0.12400733,0.00000394,0.99654136,0.07405238,0.01964873,0.03217894
1761619892244,-0.62664639,0.02883213,-0.87102501,0.01694428,-0.01924391,0.00878459,0.99653443,0.07415320,0.01953423,0.03223120
1761619892255,-0.00740591,0.05996117,0.13035651,0.01131646,-0.01527545,0.00310586,0.99653079,0.07421714,0.01944792,0.03224875
1761619892267,-0.29311897,0.14787211,0.57772197,0.01375690,-0.02538253,0.00223447,0.99652723,0.07429830,0.01929817,0.03226194
1761619892279,0.05647182,-0.03125973,-0.06266200,0.01400412,-0.00511996,0.00337810,0.99652079,0.07438373,0.01926693,0.03228254
1761619892291,-0.01281476,-0.17580247,-0.29153575,0.03087873,-0.00697170,-0.00057941,0.99650765,0.07457209,0.01922441,0.03227901
1761619892303,0.21148493,-0.35351245,-0.37106101,0.01975790,0.01397525,-0.00249609,0.99649813,0.07468471,0.01930407,0.03226478
1761619892314,0.02451271,-0.01222632,0.04662222,-0.00550007,0.01039565,-0.00442520,0.99650022,0.07465226,0.01936540,0.03223867
1761619892327,0.06059860,0.21460987,-0.04756665,-0.00965014,0.00121169,-0.00700652,0.99650587,0.07459339,0.01937279,0.03219593
1761619892338,0.15927534,0.06825817,-0.22483807,0.01549994,-0.02164098,-0.02545536,0.99650632,0.07468174,0.01924944,0.03205084
1761619892349,0.26462499,-0.13936911,0.15625412,-0.00179369,-0.03384132,-0.05915847,0.99652131,0.07467170,0.01905993,0.03171955
1761619892365,0.01105790,-0.11740270,0.11874515,-0.05248981,-0.02758169,0.01325387,0.99655210,0.07427015,0.01884893,0.03182094
1761619892374,0.47316868,-0.24709089,0.07314636,-0.08853207,-0.01750280,0.02399529,0.99658158,0.07384520,0.01876491,0.03193612
1761619892383,-0.29136899,0.15029866,-0.13840027,-0.06771847,-0.02356107,0.02107384,0.99660235,0.07355062,0.01866242,0.03202779
1761619892397,-0.34922850,0.26920263,-0.08689940,-0.01515762,-0.01923310,0.01778677,0.99660877,0.07344300,0.01852587,0.03215407
1761619892406,0.64036435,0.21850209,-0.04867205,-0.00011500,-0.05522412,0.00785218,0.99661210,0.07344251,0.01828840,0.03218784
1761619892418,-0.24028075,-0.02994778,-0.03890592,0.01179876,-0.05569732,-0.00482766,0.99661398,0.07351684,0.01793751,0.03215742
1761619892430,0.17438129,0.06373506,0.09235468,0.00074520,-0.05802357,-0.02506293,0.99662452,0.07352124,0.01759517,0.03200955
1761619892442,-0.06169075,-0.04013475,0.00696508,-0.01079544,-0.05605449,-0.00880277,0.99663625,0.07345970,0.01727566,0.03195938
1761619892555,-0.06147621,-0.02225249,0.00055622,-0.00138510,-0.00514202,-0.00020217,0.99664739,0.07338137,0.01698488,0.03194795
1761619892575,2.25648419,-0.24303128,0.95499913,-0.02704143,-0.26079578,0.04180153,0.99669459,0.07311231,0.01438996,0.03236387
1761619892627,-0.77260352,0.07041684,-0.34870179,0.00345354,-0.03119766,-0.00760648,0.99670595,0.07320349,0.01356634,0.03216306
1761619892632,10.45513510,-1.04918398,5.89275797,-0.14212758,-0.39787796,0.01549571,0.99674451,0.07284106,0.01255176,0.03220257
1761619892693,-0.92212873,0.08533314,-0.47315435,-0.01445459,-0.03099544,0.01077960,0.99677715,0.07240381,0.01161414,0.03252866
1761619892729,0.05888798,-0.02700862,0.08222960,-0.00899436,-0.06842773,0.00637372,0.99679903,0.07223966,0.01036534,0.03264498
1761619892765,-0.02670704,-0.01127528,-0.01764810,-0.02522121,-0.05772084,0.02047851,0.99682902,0.07179955,0.00935811,0.03300233
1761619892784,0.03556467,0.07415441,-0.21895570,-0.00212525,-0.07352238,0.01062437,0.99683366,0.07177830,0.00862288,0.03310857
1761619892823,-0.14388934,0.04728726,-0.00738591,0.00603413,-0.01849763,0.01118864,0.99682116,0.07189415,0.00826773,0.03332339
1761619892829,-1.53781015,-0.12500884,0.64311745,-0.04716879,-0.04587805,0.04202564,0.99682921,0.07173378,0.00811175,0.03346628
1761619892854,0.29191266,0.02764066,-0.12070372,0.01609084,-0.01460802,0.01361870,0.99681091,0.07193009,0.00793353,0.03363243
1761619892869,-0.29359430,0.21027537,0.28741746,0.00152026,-0.00477246,0.01863139,0.99680575,0.07194126,0.00789845,0.03376937
1761619892888,0.14714714,-0.10253975,-0.10817598,-0.00868749,-0.00056591,0.02013140,0.99680522,0.07185526,0.00789285,0.03396867
1761619892902,0.11109430,-0.28935658,-0.29478110,-0.00895428,-0.00515828,0.02631505,0.99680381,0.07179571,0.00785854,0.03414366
1761619892906,-1.89505638,-1.31770085,-0.38697848,-0.07690780,0.00245514,0.01261451,0.99681448,0.07163420,0.00786370,0.03417015
1761619892919,0.55157908,0.31017964,0.00140781,-0.01009388,0.00765945,0.02051676,0.99681422,0.07157011,0.00791234,0.03430044
1761619892933,0.11668013,0.13366656,0.04836323,-0.01478648,0.00951189,0.00593192,0.99681984,0.07146365,0.00798082,0.03434315
1761619892947,-0.02128290,-0.07387723,-0.05498083,-0.00237543,0.00329555,0.01773298,0.99681661,0.07144725,0.00800356,0.03446550
1761619892952,-1.11480984,-1.14213797,-1.05935374,-0.02847432,0.02759482,0.01070296,0.99682052,0.07137037,0.00807807,0.03449440
1761619892963,0.58382266,0.31114099,0.01328197,-0.02054323,0.00276334,0.00495603,0.99682754,0.07125739,0.00809327,0.03452166
1761619892978,0.07908914,0.14449096,0.10213145,-0.01327811,0.00503687,-0.00154751,0.99683479,0.07115714,0.00813130,0.03450998
1761619892991,-0.01511568,-0.01701027,-0.01842223,-0.00921530,0.00515765,0.00252509,0.99683807,0.07110000,0.00816327,0.03452563
1761619892996,-0.59447687,0.17372630,-0.31587715,-0.03364524,-0.00826990,0.02042361,0.99684299,0.07100579,0.00814012,0.03458282
1761619893031,0.13930623,0.06638992,0.20067005,-0.00290873,0.00111932,0.00521174,0.99684328,0.07095576,0.00815937,0.03467246
1761619893032,-19.49279808,-34.64899006,-39.70466383,-0.39659080,0.11373245,0.28050689,0.99685723,0.07063849,0.00825036,0.03489687
1761619893076,0.72155176,1.26445758,1.46073812,-0.00675082,0.00156173,0.00713093,0.99686193,0.07049099,0.00828448,0.03505268
1761619893118,-0.05288763,-0.07175584,0.02014616,0.00947145,0.01460099,0.01462220,0.99683473,0.07068752,0.00858745,0.03535609
1761619893128,0.75601980,-0.33428373,-2.38148004,-0.04405813,0.01304285,-0.06728769,0.99686217,0.07046282,0.00865397,0.03501292
1761619893161,-0.15460233,0.12843873,0.67479164,-0.05153277,0.00518718,0.00077200,0.99692125,0.06960480,0.00874034,0.03502577
1761619893182,-0.19902625,-0.09421088,0.10944380,-0.02644218,0.03069923,0.00596068,0.99693578,0.06932187,0.00906882,0.03508955
1761619893206,0.29515185,0.24263630,-0.08667933,-0.00266579,0.00228917,-0.00993896,0.99694174,0.06929095,0.00909537,0.03497426
1761619893216,0.16803138,0.04918419,0.09214798,0.00241013,0.01989229,-0.02899555,0.99694530,0.06930384,0.00920180,0.03481913
1761619893228,-0.09546537,-0.08637404,0.09971742,-0.01581869,0.01618215,-0.00424484,0.99695155,0.06921368,0.00929403,0.03479494
1761619893240,0.01762775,-0.06956228,-0.03628923,0.01409749,0.01306980,-0.00032793,0.99694479,0.06930108,0.00937507,0.03479291
1761619893250,0.06830461,0.11477891,0.03422623,0.01210163,0.00562732,-0.00137859,0.99694048,0.06936280,0.00940377,0.03478587
1761619893261,-0.09357803,0.13302193,-0.10284064,0.01003525,-0.00167736,-0.00806375,0.99693821,0.06941950,0.00939429,0.03474031
1761619893283,-0.08378817,-0.04780070,0.01538468,-0.00289816,-0.00239799,-0.00260082,0.99694161,0.06938820,0.00936839,0.03471223
1761619893285,28.11573170,11.16538489,-2.78155009,-0.07409657,-0.04096800,-0.07981461,0.99694785,0.06933262,0.00933766,0.03465236
1761619893305,-1.99034839,-0.89218223,0.23145295,-0.00438486,-0.00521261,-0.00586542,0.99695364,0.06928702,0.00928345,0.03459136
1761619893316,0.24846318,-0.19588864,-0.07465581,-0.00020279,-0.00301553,-0.00763164,0.99695519,0.06928600,0.00926822,0.03455282
1761619893327,-0.13521966,0.16100142,0.11823244,-0.02677316,0.00062143,0.00168380,0.99696578,0.06912804,0.00927189,0.03456276
1761619893329,16.52683612,-8.11883917,-0.24740773,-0.02358350,0.05547385,-0.01279228,0.99696687,0.06911153,0.00931072,0.03455380
1761619893351,-1.06757701,0.53877132,-0.03020810,0.00922231,0.00141464,0.00155311,0.99695892,0.06921528,0.00932664,0.03457128
1761619893383,-0.00410689,-0.01399365,-0.01420543,0.01260542,-0.00361556,-0.01207313,0.99695214,0.06941634,0.00926897,0.03437871
1761619893394,0.92475666,-1.37297316,-0.49946202,-0.08418573,-0.06263803,-0.02560180,0.99699298,0.06894490,0.00891820,0.03423534
1761619893440,-0.22581072,0.30521950,0.14080087,-0.01606768,0.00415539,0.00353408,0.99701472,0.06857695,0.00901335,0.03431627
1761619893472,0.14981468,0.04512338,-0.03233966,0.00523534,-0.03256818,0.00163640,0.99701265,0.06865993,0.00849715,0.03434221
1761619893482,0.54128292,-0.11133119,-0.38873249,-0.09276824,-0.05826636,0.00531307,0.99704800,0.06816825,0.00818834,0.03437037
1761619893532,-0.20772204,0.01740487,0.09130210,-0.00183733,-0.00692966,-0.00469772,0.99705645,0.06812306,0.00801787,0.03425480
1761619893561,0.10005092,0.01553425,-0.02370203,-0.01759106,-0.00449776,-0.01123515,0.99708020,0.06786535,0.00795198,0.03409021
1761619893583,-0.16713752,-0.03681891,-0.07189948,-0.06238583,-0.01786553,-0.02114986,0.99713741,0.06716351,0.00775099,0.03385227
1761619893606,0.04392939,0.11407528,0.01714826,0.02291251,-0.00752477,0.00103522,0.99712058,0.06741669,0.00766784,0.03386371
1761619893640,-0.02735170,-0.02206246,0.03277322,0.00741578,-0.00665929,0.00300672,0.99711095,0.06754572,0.00755197,0.03391603
1761619893662,0.04777644,-0.09282118,-0.03528779,-0.01486280,-0.01819612,0.00214747,0.99712238,0.06738669,0.00735727,0.03393901
1761619893673,-0.74633701,1.82333305,0.95505416,0.02891662,-0.01857851,0.00391242,0.99711144,0.06754862,0.00725323,0.03396092
1761619893706,0.12840807,-0.43350189,-0.20372434,0.01239019,-0.00155736,-0.00110125,0.99709846,0.06775182,0.00722769,0.03394286
1761619893717,0.38421112,-0.60023137,-0.16364205,-0.03030847,-0.00685445,0.02401786,0.99710567,0.06758210,0.00718930,0.03407736
1761619893739,-0.05314543,0.02655903,-0.02547769,-0.02900750,-0.00568175,0.00275642,0.99712627,0.06726882,0.00712794,0.03410712
1761619893751,-0.11414627,0.26524065,0.13772899,-0.01036762,0.00823713,0.00970697,0.99712815,0.06720557,0.00717819,0.03416634
1761619893797,0.00335494,-0.00918288,-0.00012959,0.00891697,0.00039011,-0.00043140,0.99711440,0.06741334,0.00718728,0.03415629
1761619893830,0.12942115,0.14875533,0.07169562,0.02771345,-0.02706923,0.01277707,0.99707947,0.06786784,0.00674334,0.03436583
1761619893875,-0.01271674,-0.06834827,-0.03717088,0.00225894,-0.02224349,0.00247208,0.99707737,0.06791821,0.00624731,0.03442096
1761619893907,0.00922305,0.22399211,0.15067336,0.05778461,-0.03624185,-0.00468399,0.99701893,0.06886010,0.00565657,0.03434461
1761619893918,1.87669257,0.01121799,-0.60383739,-0.00576592,-0.10298050,-0.00123232,0.99702440,0.06882839,0.00509018,0.03433783
1761619893954,-0.53448362,-0.18223885,-0.04381424,0.00680945,-0.02758297,-0.03361634,0.99703892,0.06895028,0.00459644,0.03373610
1761619893989,-0.03956776,-0.14365103,-0.07639252,-0.02979491,-0.01755767,0.01820496,0.99706523,0.06843185,0.00429094,0.03405286
1761619894022,0.03764437,-0.02708253,-0.03506252,-0.02148153,-0.01548294,0.01470654,0.99708245,0.06807311,0.00403237,0.03429846
1761619894058,0.07818866,0.10218828,0.11456930,0.03208369,-0.02806131,-0.01939998,0.99705715,0.06864099,0.00353569,0.03395508
1761619894091,-0.00971778,-0.04201088,-0.04351737,0.03570617,-0.01289041,0.00321404,0.99701509,0.06923371,0.00332171,0.03400844
1761619894121,-0.03617994,-0.15913306,0.00072111,0.00455755,-0.02825535,-0.00881034,0.99701617,0.06930298,0.00289223,0.03387452
1761619894141,0.34825028,0.22946082,0.11302714,-0.01009374,-0.00417540,-0.00185080,0.99702370,0.06920508,0.00285172,0.03385657
1761619894183,-0.21499568,-0.03844456,-0.00057682,-0.00262246,-0.00334156,-0.00056066,0.99702811,0.06915014,0.00278172,0.03384482
1761619894222,0.06979050,-0.01623636,0.02485789,-0.00304456,-0.01736360,-0.03393287,0.99705577,0.06908985,0.00243792,0.03317295
1761619894254,-0.01088178,0.03865931,-0.02927854,-0.01553326,-0.01676476,-0.00053791,0.99707364,0.06884443,0.00217304,0.03316445
1761619894275,-0.06509927,-0.35788105,0.12106498,0.00791999,-0.06115272,0.01263130,0.99706440,0.06892996,0.00151259,0.03330087
1761619894297,0.10605895,0.11384196,-0.01698281,0.01586677,-0.06657401,-0.01964197,0.99706040,0.06910291,0.00078693,0.03308677
1761619894330,-0.08690218,0.14072865,-0.06421676,-0.02538355,-0.01711868,-0.01067513,0.99709524,0.06868535,0.00050533,0.03291117
1761619894353,0.01569054,0.08512397,-0.02952086,0.00861488,-0.02218942,-0.02031873,0.99709617,0.06878184,0.00025681,0.03268360
1761619894363,-0.09904277,0.52845342,-0.63270190,0.07171495,0.00089696,-0.00558005,0.99707157,0.06915117,0.00026143,0.03265486
1761619894375,-0.05749235,-0.13819301,0.10757833,0.04009822,0.00410100,-0.01133439,0.99705743,0.06938575,0.00028542,0.03258855
1761619894397,-0.08026439,-0.13818651,0.22739612,-0.00066962,-0.00689246,-0.00537412,0.99705989,0.06937838,0.00020960,0.03252944
1761619894407,0.34561110,-0.00863168,0.07028212,-0.03992393,-0.02711160,-0.01622602,0.99707725,0.06916878,0.00006726,0.03244425
1761619894418,0.15205267,-0.26511016,-0.04308159,-0.03282101,-0.03879092,-0.00142154,0.99709024,0.06898498,-0.00014997,0.03243629
1761619894431,-0.16039240,-0.05128092,0.01651098,-0.04636483,-0.02783940,-0.00722807,0.99711304,0.06867665,-0.00033510,0.03238822
1761619894468,-0.08740751,0.03036422,0.00139131,-0.02104034,-0.01023731,0.00496253,0.99713638,0.06829267,-0.00052193,0.03247879
1761619894500,0.22943994,-0.24898492,-0.12437540,-0.14521293,-0.05549211,0.01315814,0.99728460,0.06597652,-0.00140703,0.03268866
1761619894533,-0.01944157,-0.24542179,-0.15027343,-0.20778860,-0.05103199,0.01798845,0.99749542,0.06252723,-0.00225416,0.03298727
1761619894567,0.07015296,-0.03273450,-0.12886080,-0.15653725,-0.05960641,0.01472313,0.99764625,0.05988958,-0.00325853,0.03323536
1761619894587,0.22376003,-0.46120934,-0.73182796,-0.18682376,-0.11479911,0.02955369,0.99774375,0.05799332,-0.00442374,0.03353533
1761619894618,-0.18858938,0.46559472,0.64874114,-0.17455022,-0.03823270,0.02328346,0.99788363,0.05526161,-0.00502208,0.03389971
1761619894630,1.07104801,-1.86313579,-1.87755071,-0.35517476,-0.16756484,0.00578753,0.99799085,0.05316608,-0.00601071,0.03393386
1761619894664,-0.43581300,0.86305848,0.58235573,-0.05407389,-0.04814435,-0.00013929,0.99803409,0.05224952,-0.00682676,0.03393150
1761619894676,0.01096248,-1.48503770,-0.78289101,-0.07100807,-0.09800579,-0.03316369,0.99805926,0.05181637,-0.00742459,0.03372920
1761619894720,-0.02579971,0.37019562,0.37863613,-0.07394592,-0.02376752,-0.00470971,0.99814057,0.05021545,-0.00793916,0.03362723
1761619894742,0.98705444,-0.31220286,-1.01140738,-0.11868341,-0.12259827,-0.04993127,0.99821400,0.04887432,-0.00932452,0.03306301
1761619894765,-0.67924259,0.23415552,0.72609693,-0.02526655,-0.05061933,-0.04256933,0.99823835,0.04858755,-0.00989905,0.03257985
1761619894810,-0.13313642,0.09049123,0.15721836,-0.05783123,-0.02621684,-0.00621539,0.99829964,0.04728056,-0.01049155,0.03243938
1761619894860,0.11422218,0.08815458,-0.03809581,-0.02805373,-0.03778263,-0.00943232,0.99832981,0.04658062,-0.01143423,0.03220404
1761619894899,0.19945437,0.01842034,0.07963931,-0.05353632,-0.05293918,-0.02859008,0.99838398,0.04552596,-0.01247713,0.03164082
1761619894909,3.93769319,-1.04539073,-1.07680434,-0.05705341,-0.17365679,-0.06988198,0.99839611,0.04525495,-0.01330200,0.03130888
1761619894943,-1.20267331,0.10701875,0.20287565,-0.10033898,-0.06347091,-0.01796221,0.99846554,0.04357427,-0.01436514,0.03100801
1761619894976,-0.07045557,-0.15925303,0.08572381,-0.08436451,-0.02857347,-0.01807608,0.99852948,0.04214008,-0.01485089,0.03070072
1761619894998,0.02323606,0.14011198,-0.16675291,-0.05443802,-0.05144061,-0.05184239,0.99856352,0.04153854,-0.01541930,0.03012786
1761619895010,0.07874199,-0.10598763,-0.37454250,-0.11079201,-0.02563501,-0.02039205,0.99859201,0.04087932,-0.01557183,0.03000653
1761619895055,-0.29460862,0.14340434,0.17141327,-0.03777483,-0.00098131,-0.00574051,0.99862947,0.04004072,-0.01559362,0.02987909
1761619895066,2.00030576,-1.03729735,-1.91546039,0.04690242,0.12506949,-0.02681863,0.99863388,0.04029165,-0.01492450,0.02973561
1761619895088,-0.41187786,0.73055679,0.91257246,-0.00771698,0.02363458,-0.01362202,0.99864614,0.04020291,-0.01465270,0.02957896
1761619895111,-0.29042004,-0.30526231,-0.08335655,-0.08835997,0.01779192,-0.01683987,0.99869311,0.03923095,-0.01445699,0.02939372
1761619895143,-0.13032371,0.00422774,0.02841463,-0.05537336,-0.00087404,-0.01807602,0.99873685,0.03832282,-0.01447132,0.02909727
1761619895177,0.00782723,0.10094911,-0.00577484,-0.00438423,-0.00151825,-0.01568298,0.99874706,0.03824829,-0.01449713,0.02883066
1761619895210,0.20641454,-0.03285623,-0.09057934,-0.05925634,-0.03967935,-0.02103348,0.99878438,0.03726760,-0.01515383,0.02848256
1761619895222,0.56242597,-0.45212305,-0.21888339,-0.07158409,-0.09669447,-0.03271872,0.99879641,0.03685599,-0.01570982,0.02829442
1761619895268,-0.32397725,0.16759597,0.13954754,0.01235387,-0.01523731,-0.00393768,0.99878284,0.03714075,-0.01606104,0.02820366
1761619895290,0.19002623,-0.19602671,-0.15809932,-0.04087794,-0.06045113,-0.01214781,0.99879177,0.03671766,-0.01668671,0.02807793
1761619895321,-0.16678846,0.07888471,0.10613346,0.02346172,-0.02021746,-0.00555575,0.99877483,0.03709539,-0.01701221,0.02798848
1761619895334,-0.22328497,0.29715272,0.01647101,0.05338715,-0.00563551,0.01987074,0.99875736,0.03744775,-0.01704940,0.02811963
1761619895367,-0.12487200,-0.16974424,0.12996442,-0.01787108,0.02198046,0.02001048,0.99876503,0.03715734,-0.01669222,0.02844480
1761619895389,-0.22344779,-0.09296287,0.05868765,0.00154784,0.02719027,0.00477077,0.99876792,0.03717476,-0.01638633,0.02849847
1761619895411,0.32104408,0.30490731,-0.06975221,0.01756906,0.01565153,-0.00524705,0.99876517,0.03736802,-0.01621416,0.02844075
1761619895446,0.03386628,-0.00548884,-0.02039673,0.00901014,-0.00541175,-0.00527842,0.99876031,0.03752660,-0.01630941,0.02834785
1761619895490,-0.03257133,-0.03135564,0.02757509,-0.02545996,-0.01686834,0.00568936,0.99877133,0.03697539,-0.01667461,0.02847103
1761619895500,-1.09621775,1.29078653,0.35098266,0.12303460,-0.02091650,0.01745624,0.99874193,0.03763977,-0.01678756,0.02856529
1761619895553,0.25435815,-0.25662802,-0.09089921,-0.00523778,-0.00095274,0.00710403,0.99874133,0.03750150,-0.01681271,0.02875284
1761619895591,-0.00994662,0.00191205,0.00810789,0.06869726,0.01661394,-0.00665335,0.99870036,0.03880674,-0.01649705,0.02862642
1761619895601,0.42764764,1.14982065,0.34758919,0.00168643,-0.05539671,-0.08975540,0.99870818,0.03881518,-0.01677403,0.02817765
1761619895656,-0.06368338,-0.20606459,-0.05706283,-0.01934593,0.00396860,0.00688378,0.99872519,0.03828316,-0.01666489,0.02836695
1761619895668,-0.28295617,1.65426603,0.25286276,0.18262060,-0.00154680,0.00027777,0.99868202,0.03938802,-0.01667425,0.02836863
1761619895700,0.10852401,-0.53487209,-0.06371999,-0.00117647,0.00394957,0.00184628,0.99868298,0.03936914,-0.01661086,0.02839826
1761619895722,-0.03731272,-0.28986779,-0.00337228,-0.02484765,-0.00215629,0.00330931,0.99869216,0.03909954,-0.01663426,0.02843417
1761619895767,0.01912473,0.07323396,-0.06209863,0.01330246,0.00184341,0.00218770,0.99867960,0.03940084,-0.01659250,0.02848372
1761619895789,-0.12350445,-0.31245043,-0.30542736,0.00246821,0.02897625,0.01793792,0.99867816,0.03942737,-0.01628101,0.02867655
1761619895811,0.10084907,0.30893791,0.21219048,0.04200628,0.01887736,-0.00906768,0.99866575,0.03989994,-0.01606864,0.02857454
1761619895834,0.07535204,0.07806001,0.02637322,0.00564449,-0.01315008,-0.02326159,0.99866828,0.03996344,-0.01621658,0.02831285
1761619895845,0.03942360,-0.25125769,-0.05206598,-0.05526232,-0.03542966,-0.00414079,0.99867794,0.03965674,-0.01641321,0.02828987
1761619895879,-0.07224142,0.00995613,0.04512645,-0.02072108,-0.00596219,0.00543676,0.99868752,0.03930655,-0.01651397,0.02838175
1761619895890,-0.47372040,0.50578779,-0.20549132,0.03947916,-0.01953110,0.03193685,0.99867132,0.03953553,-0.01662725,0.02856698
1761619895922,0.21767257,-0.12101473,0.08060757,0.02078320,-0.00330994,0.00294929,0.99865587,0.03986806,-0.01668021,0.02861417
1761619895935,0.17548004,0.03198386,0.12577196,-0.02253864,0.00221391,0.02427674,0.99865736,0.03972607,-0.01666626,0.02876712
1761619895957,0.01687716,-0.15585003,-0.10081290,-0.02650282,-0.00560872,-0.01292875,0.99867177,0.03943851,-0.01672712,0.02862684
1761619895968,1.29500904,0.08157788,-0.78187071,0.04385775,0.01580837,-0.03291631,0.99866882,0.03968192,-0.01663938,0.02844415
1761619895990,-0.45984362,0.11174847,0.27328699,0.02635057,0.00119762,-0.00900147,0.99866018,0.03997573,-0.01662603,0.02834379
1761619896002,-0.41659996,0.24692227,0.28372234,0.03446121,0.00609600,-0.01447240,0.99865521,0.04017216,-0.01659128,0.02826129
1761619896025,-0.03681481,-0.13618257,0.01091161,-0.00953800,-0.00206545,-0.00816451,0.99866187,0.04006247,-0.01661503,0.02816740
1761619896057,0.01524565,-0.04292371,-0.00274231,-0.01402233,-0.00810659,-0.00456240,0.99867082,0.03983601,-0.01674596,0.02809372
1761619896079,0.18094895,0.07902363,0.01560029,0.02376351,-0.02382837,0.00251648,0.99865501,0.04009979,-0.01701045,0.02812165
1761619896091,0.15031365,0.57856361,-0.16529307,0.12093499,-0.05812424,0.00336151,0.99861843,0.04083749,-0.01736501,0.02814216
1761619896125,-0.12731206,-0.24620604,0.02185665,-0.01009442,-0.01268348,0.00226288,0.99862053,0.04066942,-0.01757619,0.02817983
1761619896159,-0.03534112,-0.07327499,0.03028466,-0.00292063,-0.00653405,-0.00711725,0.99862405,0.04061904,-0.01768890,0.02805706
1761619896192,0.20598786,0.22737196,0.06657482,0.07444892,-0.00391404,-0.02671371,0.99858447,0.04184745,-0.01775348,0.02761629
1761619896239,-0.08096232,0.01632057,-0.01120976,0.06736251,-0.02178671,-0.00166088,0.99851331,0.04333616,-0.01823497,0.02757958
1761619896271,0.10059352,0.35311898,0.15459646,0.17133782,-0.05511450,-0.00935125,0.99836728,0.04629174,-0.01918569,0.02741827
1761619896291,-0.13243552,0.51139160,0.17924569,0.25468822,-0.07254550,-0.01590947,0.99823541,0.04885135,-0.01991478,0.02725838
1761619896325,-0.13052975,-0.64376703,-0.11758286,0.05541502,-0.01748110,-0.00628801,0.99818565,0.04979618,-0.02021283,0.02715117
1761619896347,0.00749923,0.03400206,0.10298308,0.05366059,-0.00668201,-0.00661200,0.99815731,0.05037035,-0.02028433,0.02708042
1761619896369,0.06764387,-0.17501177,-0.05712762,0.05073383,-0.00869067,-0.00137987,0.99812623,0.05095125,-0.02038383,0.02706462
1761619896390,-0.01028038,-0.18364870,-0.09126244,0.02021233,-0.00212934,-0.00684156,0.99811695,0.05116146,-0.02040598,0.02699347
1761619896402,0.06060138,0.08824122,0.26677781,-0.01272407,-0.01540348,-0.01867140,0.99812178,0.05108829,-0.02049455,0.02688611
1761619896425,-0.12660884,-0.02465188,-0.31535087,0.01135629,-0.01996760,-0.02113267,0.99811669,0.05122343,-0.02073216,0.02663463
1761619896436,-0.10690923,0.14684560,0.20756606,-0.01825663,-0.05042694,-0.07476516,0.99812675,0.05112485,-0.02100447,0.02623090
1761619896472,0.00830175,-0.07455491,-0.06638708,-0.02286607,-0.00198079,0.00245726,0.99814593,0.05071097,-0.02104032,0.02627538
1761619896506,-0.14703016,-0.03214469,-0.01534408,-0.00570991,0.01164234,0.02181738,0.99814519,0.05061447,-0.02084357,0.02664409
1761619896538,-0.02690831,-0.01011172,-0.02254449,-0.02174706,0.01818693,0.00667282,0.99816582,0.05026870,-0.02055439,0.02675019
1761619896559,-0.19696335,0.08987905,-0.03146092,0.05187356,0.05238421,0.00236117,0.99814867,0.05081596,-0.02000174,0.02677510
1761619896580,0.27486442,0.12518042,-0.05824986,-0.00520776,0.03618780,0.01012520,0.99815610,0.05076154,-0.01962358,0.02688091
1761619896602,-0.04929241,-0.18777162,0.04132323,-0.03559170,0.01641666,-0.00547165,0.99818142,0.05036469,-0.01944053,0.02681990
1761619896636,0.06366894,0.01658155,0.00622722,-0.01008751,0.00201266,0.00678347,0.99818748,0.05019724,-0.01940712,0.02693250
1761619896647,-0.35260695,0.25263297,-0.35801200,0.03682816,0.03182755,0.02012648,0.99817695,0.05041453,-0.01921934,0.02705125
1761619896670,0.08180167,-0.18487542,0.15924505,-0.01228208,-0.01153938,-0.00782587,0.99818379,0.05027635,-0.01934916,0.02696321
1761619896692,0.04964175,-0.08851539,0.07966580,-0.04785912,-0.01333719,-0.00757768,0.99821026,0.04973555,-0.01949987,0.02687758
1761619896729,0.06532298,0.06682441,-0.02752481,-0.01211391,0.00335134,0.00754076,0.99821868,0.04951568,-0.01943904,0.02701444
1761619896784,-0.01170993,0.01780400,-0.02756853,0.00095688,0.00075886,0.00862849,0.99821135,0.04954194,-0.01941821,0.02725130
1761619896814,0.15083009,-0.22015661,-0.16450992,-0.03312970,0.02971191,0.00058193,0.99824455,0.04904003,-0.01896808,0.02726011
1761619896866,-0.03900599,0.14961641,0.11994904,0.00041720,0.00268220,-0.00412880,0.99824829,0.04905096,-0.01889780,0.02715194
1761619896900,-0.03550589,-0.07820608,0.11157688,0.00098911,-0.01190332,-0.00138477,0.99824429,0.04906763,-0.01909837,0.02712860
1761619896928,0.08095810,0.06830034,-0.07784868,0.00200593,-0.01652073,-0.00215077,0.99823922,0.04909601,-0.01933214,0.02709817
1761619896949,0.15586352,-0.03357332,-0.02623348,-0.00083067,-0.01310432,-0.00269637,0.99823779,0.04908758,-0.01946515,0.02707080
1761619896970,-0.29981322,-0.14209642,0.15402551,0.00385936,-0.00162757,-0.00615403,0.99823719,0.04912984,-0.01948297,0.02700342
1761619897003,0.08003969,0.11189376,-0.09285779,0.01167126,-0.00212230,-0.00757316,0.99823038,0.04932242,-0.01951799,0.02687846
1761619897026,0.09837439,0.09096493,0.04358797,0.02549899,-0.01052569,-0.01236431,0.99821769,0.04960673,-0.01963535,0.02674060
1761619897037,0.11311900,0.16372509,0.16103605,0.03394611,-0.02522556,-0.01212047,0.99820726,0.04979683,-0.01977661,0.02667272
1761619897048,-0.16756124,0.12985459,0.01988804,-0.00022418,-0.01567740,-0.00232234,0.99820596,0.04979561,-0.01986206,0.02666007
1761619897060,0.02316062,0.03757355,0.35860749,0.01377765,-0.00589238,0.01287039,0.99819895,0.04987965,-0.01989800,0.02673858
1761619897070,0.03639928,0.19198500,0.11991867,0.02883704,-0.00436316,-0.00250046,0.99819141,0.05002816,-0.01992047,0.02672570
1761619897082,-0.03963192,-0.09058695,-0.24693479,0.04859566,-0.02146255,-0.01935091,0.99817752,0.05031487,-0.02004710,0.02661153
1761619897104,-0.04895524,-0.15880785,-0.19855721,0.01354172,-0.00505961,-0.00318155,0.99816999,0.05046045,-0.02010149,0.02657733
1761619897115,0.08580285,0.33976689,0.25198941,0.04590532,-0.03266619,-0.01139355,0.99815482,0.05071981,-0.02028605,0.02651295
1761619897127,-0.03329229,-0.19389677,-0.05175718,-0.00029912,-0.00936361,0.00312138,0.99815331,0.05071806,-0.02034083,0.02653121
1761619897128,1.87141742,16.18451167,24.15168145,0.16485050,-0.05934963,0.07855896,0.99814513,0.05083346,-0.02038238,0.02658620
1761619897161,-0.12855759,-0.78840066,-1.12003726,0.00855439,-0.00283072,-0.00138901,0.99813765,0.05097332,-0.02042866,0.02656349
1761619897182,-0.06492951,0.13593205,0.19560757,0.03851715,-0.00348450,-0.00187564,0.99811689,0.05137390,-0.02046490,0.02654399
1761619897193,-0.44985781,0.43377962,0.34637384,0.06831478,-0.00768916,-0.00671750,0.99809759,0.05174963,-0.02050719,0.02650704
1761619897204,0.36403101,-0.62222113,-0.42124376,0.05185032,0.01443037,0.01025077,0.99808169,0.05205814,-0.02042133,0.02656803
1761619897215,-0.08175282,-0.05463679,0.01800990,-0.00709270,0.03117445,-0.01489514,0.99808932,0.05201949,-0.02025143,0.02648685
1761619897226,-0.03851559,0.03994130,-0.15085273,0.04024234,0.01221665,-0.01033396,0.99808087,0.05223478,-0.02018607,0.02643157
1761619897237,0.17968338,0.21657376,-0.05452225,0.04213189,0.00298515,-0.01743624,0.99807124,0.05247493,-0.02016905,0.02633218
1761619897249,-0.08066139,-0.04382526,-0.05703331,0.03846423,-0.01286055,-0.03568672,0.99806376,0.05268841,-0.02024043,0.02613412
1761619897260,0.26027033,0.20638624,0.13575152,-0.01700420,-0.01065956,-0.00875888,0.99806885,0.05259319,-0.02030012,0.02608507
1761619897271,-0.09232994,-0.13302017,-0.04409169,-0.00970050,-0.00142837,0.00775902,0.99807040,0.05253935,-0.02030805,0.02612813
1761619897283,0.06928661,-0.10414605,-0.01022311,-0.02661404,-0.00320069,0.01318042,0.99807628,0.05238100,-0.02032709,0.02620656
1761619897304,-0.07419868,-0.06729881,-0.02577693,-0.01840271,0.00206503,0.00615284,0.99808519,0.05218685,-0.02030531,0.02627147
1761619897316,-0.43942339,0.20609546,0.10334297,0.01586910,0.02455712,0.04934084,0.99807535,0.05228206,-0.02015796,0.02656751
1761619897327,0.27876925,0.06111366,-0.04429596,0.03982273,-0.00555454,0.00488817,0.99806182,0.05251303,-0.02019018,0.02659586
1761619897349,0.07099820,-0.07880157,-0.07480361,0.04391095,-0.00892940,-0.00649508,0.99803702,0.05298069,-0.02028528,0.02652669
1761619897359,0.06718407,0.33887411,0.35899247,0.00791328,0.00337377,-0.00378142,0.99803569,0.05302263,-0.02026740,0.02650665
1761619897371,0.30014750,-0.57430778,-0.32032811,0.00215683,0.00596051,0.01471701,0.99803338,0.05303557,-0.02023163,0.02659495
1761619897393,-0.07177374,-0.02430119,-0.03827821,0.00888325,0.00701300,-0.00171980,0.99803027,0.05313239,-0.02015519,0.02657621
1761619897404,-0.56688343,0.32551038,0.20124610,0.10483678,0.04986370,-0.00795816,0.99800585,0.05371424,-0.01987845,0.02653204
1761619897415,0.24818264,0.12266311,-0.07650852,0.04072769,-0.00067248,-0.01096926,0.99799539,0.05393620,-0.01988211,0.02647226
1761619897426,-0.02455162,-0.21405510,0.04606917,-0.00571686,0.00175591,-0.02384878,0.99800085,0.05390419,-0.01987228,0.02633870
1761619897438,0.00189221,-0.19962825,-0.00402095,-0.01558034,0.01150887,0.00962991,0.99800574,0.05381071,-0.01980323,0.02639648
1761619897475,0.04948275,0.01621305,-0.03490552,-0.01643523,0.00356657,-0.00018394,0.99802339,0.05350830,-0.01973760,0.02639310
1761619897508,0.14529578,0.11055085,0.02470147,0.01654191,0.00997098,0.00036299,0.99801202,0.05377628,-0.01957607,0.02639898
1761619897539,-0.16568693,-0.08567928,-0.00210913,-0.01522974,-0.00709208,-0.00179431,0.99802346,0.05353641,-0.01968777,0.02637072
1761619897562,-0.00186124,-0.10469566,-0.06574207,-0.00591236,-0.00664617,0.01771753,0.99802025,0.05346960,-0.01976287,0.02657093
1761619897578,0.58336097,0.00009182,-0.09553270,0.05269413,0.01388467,0.01133780,0.99799692,0.05389906,-0.01964971,0.02666333
1761619897620,-0.20452276,0.05728518,0.06263178,0.01045993,0.00664705,0.00165306,0.99798696,0.05411610,-0.01951179,0.02669763
1761619897652,-0.04634782,-0.01657066,0.03017894,-0.01810373,0.01028310,-0.00781765,0.99800924,0.05382554,-0.01934674,0.02657216
1761619897672,0.58150125,0.14306255,-0.04224599,0.01682203,-0.00143969,-0.00995251,0.99800228,0.05399964,-0.01936165,0.02646915
1761619897695,-0.16685289,0.00604795,-0.01270157,0.01295093,0.00646298,-0.00747750,0.99799806,0.05414405,-0.01928958,0.02638577
1761619897717,-0.23090543,-0.12550548,-0.00373128,-0.01616078,-0.01427019,-0.00463869,0.99800606,0.05396466,-0.01944798,0.02633429
1761619897727,0.08212392,-0.17111778,0.01965163,-0.02194081,-0.01551424,0.00306269,0.99801031,0.05384838,-0.01953021,0.02635052
1761619897761,-0.04736903,0.04119338,-0.01818575,0.00098453,-0.00339356,0.00137015,0.99800769,0.05386492,-0.01958722,0.02637354
1761619897773,0.33378061,0.41846763,-0.23683574,0.05321786,-0.00527198,0.00190704,0.99799009,0.05417358,-0.01961780,0.02638460
1761619897784,-0.15226910,-0.27645066,0.00126780,-0.01025604,-0.00607308,-0.01018401,0.99799401,0.05411666,-0.01965150,0.02632808
1761619897805,-0.06185624,-0.22210418,0.05908683,-0.02555431,-0.00540316,-0.00497137,0.99800913,0.05384195,-0.01970959,0.02627463
1761619897817,-0.03645215,-0.06020429,-0.06522478,-0.03195406,-0.00280809,-0.00269115,0.99801903,0.05365981,-0.01972559,0.02625929
1761619897829,-0.11817121,0.12037468,-0.07377540,0.00144088,0.01161372,-0.00274467,0.99802041,0.05366875,-0.01965359,0.02624228
1761619897861,0.00510725,0.06347452,0.06758097,0.00507968,0.00437518,-0.00083004,0.99801776,0.05375002,-0.01958358,0.02622900
1761619897871,0.13218445,-0.29058109,0.82926145,0.01158380,0.04231391,0.00968076,0.99801748,0.05381084,-0.01936144,0.02627982
1761619897884,0.07928133,0.02794892,-0.17152806,-0.03936227,0.00095557,0.00866955,0.99802903,0.05357269,-0.01935566,0.02633227
1761619897907,-0.05654090,0.06519263,-0.27563687,-0.01882405,-0.01552822,-0.00289260,0.99803806,0.05335528,-0.01953501,0.02629886
1761619897929,0.00886645,0.04191171,0.00399737,-0.00676989,-0.00812552,-0.00035660,0.99804042,0.05327979,-0.01962561,0.02629489
1761619897940,0.05456345,0.05833052,-0.08337239,0.01236532,-0.01734930,0.00665856,0.99803388,0.05334842,-0.01972189,0.02633184
1761619897973,-0.04025977,0.00544982,0.03232504,0.01244412,0.00037280,0.00392723,0.99802145,0.05355126,-0.01971582,0.02639585
1761619897983,0.21136129,0.18276607,-0.17394125,0.03038380,0.02437687,0.00901976,0.99801400,0.05371381,-0.01958540,0.02644411
1761619898016,-0.09313881,-0.11386511,0.05387401,0.00792606,0.00640126,0.00194551,0.99800817,0.05384459,-0.01947978,0.02647621
1761619898029,0.03473986,-0.32126908,0.09173494,-0.02904207,0.02420601,0.00168028,0.99802021,0.05366889,-0.01933333,0.02648638
1761619898051,0.06093718,0.32189898,-0.12990496,0.01633071,0.00234790,-0.01055585,0.99801383,0.05385669,-0.01930633,0.02636498
1761619898063,0.23347708,0.53579580,0.19814703,0.01183714,-0.01969038,-0.02525221,0.99801182,0.05392357,-0.01941758,0.02622231
1761619898086,-0.03776846,-0.13760008,0.18507526,-0.04505001,-0.01125927,0.00413872,0.99803559,0.05341225,-0.01954538,0.02626928
1761619898096,-0.03073508,-0.04032811,0.02804295,-0.04327594,0.02575371,0.01755806,0.99804805,0.05318289,-0.01940888,0.02636234
1761619898130,-0.08680919,-0.10486935,-0.12970678,0.00385760,0.00297489,-0.00003986,0.99804557,0.05324789,-0.01935876,0.02636167
1761619898154,0.05208514,0.13065607,0.03001838,0.04370783,0.00646012,-0.00603614,0.99802076,0.05377457,-0.01928091,0.02628893
1761619898186,-0.03412701,-0.12150482,-0.00511555,0.01286538,0.00250753,-0.00671630,0.99801327,0.05397977,-0.01924092,0.02618181
1761619898202,-0.07357199,-0.28022335,0.00069739,0.03347653,-0.00860304,0.01001494,0.99799565,0.05424256,-0.01930845,0.02626043
1761619898246,0.02806800,0.09657436,-0.00205047,-0.00198367,-0.00211007,-0.00057873,0.99799749,0.05419813,-0.01935571,0.02624746
1761619898277,0.00261742,-0.01972832,-0.02912269,-0.01906216,0.00809582,0.01317221,0.99801049,0.05390362,-0.01923063,0.02645097
1761619898306,-0.00199085,0.05976397,-0.08391253,0.03188135,0.00204125,-0.02746674,0.99799636,0.05436909,-0.01920083,0.02604996
1761619898319,0.04360251,-0.18895032,-0.02161313,-0.01655284,-0.00654675,-0.02270759,0.99800489,0.05426563,-0.01924175,0.02590804
1761619898351,-0.00252808,-0.02058582,0.08189184,-0.02520495,-0.00430988,0.02044578,0.99801705,0.05385605,-0.01931179,0.02624028
1761619898374,-0.10926088,0.02759817,0.07346298,0.01128529,-0.00997465,-0.00245789,0.99800870,0.05398357,-0.01942450,0.02621251
1761619898385,-0.18509761,0.09826400,-0.07227726,0.02708328,-0.00149850,-0.00941207,0.99800202,0.05412847,-0.01943252,0.02616215
1761619898408,0.16062522,-0.02214538,-0.01588673,-0.00516811,0.00512758,-0.00485616,0.99800795,0.05406800,-0.01937252,0.02610534
1761619898419,0.01468660,-0.08024912,0.00853410,-0.03269727,-0.00230390,0.00194824,0.99801723,0.05388653,-0.01938531,0.02611615
1761619898430,-0.11237640,0.00236603,-0.08786186,-0.01205989,-0.00332466,0.00219612,0.99802011,0.05382081,-0.01940343,0.02612812
1761619898452,0.02807998,0.06205613,0.04001749,0.00402415,0.01077154,-0.00858630,0.99802252,0.05386568,-0.01928333,0.02603238
1761619898476,0.06785600,-0.00480128,0.11295023,0.00957675,0.00679185,-0.00793837,0.99802043,0.05397725,-0.01920420,0.02593990
1761619898498,0.04737778,0.03760555,0.06113512,0.01768415,0.00928674,-0.00794983,0.99801400,0.05417531,-0.01910019,0.02585086
1761619898531,-0.08341225,0.01953663,-0.13667075,0.00299013,-0.00376004,0.00255343,0.99800898,0.05422524,-0.01916298,0.02589350
1761619898564,-0.04385581,-0.08683956,-0.00190447,-0.00591337,-0.00376070,0.00945621,0.99800902,0.05413063,-0.01922315,0.02604480
1761619898586,0.07276182,-0.07470817,0.29518281,0.02145686,-0.00448498,0.00003618,0.99799492,0.05437202,-0.01927361,0.02604521
1761619898608,-0.03777414,0.00955596,-0.08818053,0.00283293,0.00226829,-0.01040581,0.99799665,0.05440261,-0.01924911,0.02593283
1761619898630,0.01709302,0.05449071,-0.18326618,-0.00889181,0.00338557,0.00580368,0.99800107,0.05430392,-0.01921153,0.02599725
1761619898664,-0.00365583,0.03950243,0.01045726,0.00446492,-0.00210281,-0.00520108,0.99799856,0.05437960,-0.01924717,0.02590909
1761619898675,-0.92540328,-0.09705903,-0.14610549,0.00245603,0.00331315,-0.00061114,0.99799826,0.05439323,-0.01922879,0.02590570
1761619898698,0.38000050,0.03775090,0.03237739,-0.00183020,-0.00233728,0.00501823,0.99799740,0.05437236,-0.01925543,0.02596290
1761619898737,0.05990379,0.00776877,0.01482619,-0.00091636,-0.00688805,-0.00236022,0.99799695,0.05435408,-0.01939285,0.02591582
1761619898766,0.00537189,0.01372853,0.05136270,0.02188701,0.00226415,0.00735051,0.99797795,0.05466378,-0.01936081,0.02601983
1761619898798,0.03361944,-0.06679624,-0.20020692,0.00600721,0.00669164,0.00099901,0.99797432,0.05476050,-0.01925308,0.02603591
1761619898819,0.07440073,0.18547522,0.13107565,0.00952492,-0.02099109,-0.04623928,0.99797706,0.05485908,-0.01947033,0.02555733
1761619898841,-0.03912933,-0.02951556,0.12033306,-0.03883319,-0.00613986,-0.00352626,0.99800075,0.05442027,-0.01953971,0.02551749
1761619898909,-0.02597251,-0.00445087,-0.00395920,-0.00254538,0.00102864,0.00350551,0.99800310,0.05433347,-0.01950464,0.02563703
1761619898920,0.20255906,0.58255796,1.15256799,0.11318648,-0.04998926,-0.00573228,0.99796583,0.05493336,-0.01976958,0.02560664
1761619898964,-0.03414743,-0.20630429,-0.23338569,0.01896914,0.00536178,0.00272021,0.99794356,0.05535068,-0.01965162,0.02566649
1761619898986,-0.02921939,-0.20743279,0.14172985,-0.00133447,0.01701676,-0.00485350,0.99794947,0.05533587,-0.01946273,0.02561262
1761619899019,-0.00370261,0.21295158,-0.12712547,0.00547898,0.00698250,0.00615464,0.99794414,0.05542517,-0.01934892,0.02571294
1761619899041,0.02053690,0.03118222,-0.05834872,0.01467183,-0.00529801,-0.01242052,0.99793740,0.05559023,-0.01940852,0.02557321
1761619899053,-0.07243197,-0.19118055,-0.09935359,-0.03086716,-0.02396635,-0.03290099,0.99794941,0.05541274,-0.01954633,0.02538402
1761619899065,-0.15361060,0.14292668,-0.23350284,-0.05266364,-0.01061093,0.00598981,0.99796487,0.05509413,-0.01961053,0.02542026
1761619899087,0.00733034,-0.00861356,0.06578232,-0.00519108,0.00153670,0.00320823,0.99796743,0.05503755,-0.01959378,0.02545523
1761619899095,-0.24115274,-0.17496902,0.46740431,0.01668101,0.02166626,0.02671084,0.99796271,0.05510427,-0.01950711,0.02556208
1761619899133,0.09729880,0.03179494,-0.03360311,0.00820810,0.00555004,0.00470492,0.99795387,0.05525981,-0.01940194,0.02565123
1761619899144,-0.41015481,-0.44694228,0.12898083,-0.00388230,0.00275049,0.03893314,0.99794986,0.05523866,-0.01938695,0.02586342
1761619899177,0.08682967,0.08039993,-0.05986008,-0.01384991,-0.00034067,-0.00030858,0.99796273,0.05500598,-0.01939267,0.02585824
1761619899188,-0.57736348,-0.30857944,-0.31566039,-0.03776155,0.01571667,-0.01387411,0.99797726,0.05480584,-0.01930937,0.02578470
1761619899210,0.27132389,0.23187572,0.12133092,0.00918011,0.01192634,-0.00140339,0.99797466,0.05490590,-0.01917937,0.02576941
1761619899231,0.03972913,0.00706563,0.02909180,0.00962576,-0.00111735,-0.01129251,0.99797186,0.05500938,-0.01919139,0.02564801
1761619899242,-0.00219239,-0.09436327,0.00420797,0.00080926,-0.01247937,-0.01223339,0.99797202,0.05501391,-0.01926127,0.02557950
1761619899254,-0.05634700,0.16457747,0.00825549,-0.01585470,-0.01372476,0.00454322,0.99797483,0.05492354,-0.01933950,0.02560540
1761619899275,0.01893440,-0.01625831,0.00177510,0.00021668,-0.00247239,0.00412890,0.99797303,0.05492588,-0.01936620,0.02564999
1761619899286,-0.07310222,0.12291654,-0.04724768,0.00742713,0.00083183,0.00868259,0.99796961,0.05496710,-0.01936159,0.02569818
1761619899299,0.05971548,-0.14571800,0.01190460,0.02056812,0.00208387,0.00955003,0.99796124,0.05509565,-0.01934856,0.02575787
1761619899332,0.03430478,-0.00631802,0.02384442,0.00439563,0.00090477,-0.00014968,0.99795754,0.05516906,-0.01933345,0.02575537
1761619899355,-0.15266048,-0.05316290,0.01776604,0.00104754,0.00750854,0.00063882,0.99795834,0.05518090,-0.01924861,0.02576259
1761619899391,0.09868336,0.05503788,-0.03240714,0.00916988,0.01143586,-0.00280231,0.99795445,0.05534595,-0.01904276,0.02571215
1761619899424,0.01595218,-0.01780755,0.03028541,0.00245368,0.00899332,-0.01209622,0.99796013,0.05538632,-0.01889482,0.02551316
1761619899461,0.01927691,0.06164084,0.07200552,0.01580112,-0.02625789,-0.01118766,0.99793960,0.05568180,-0.01938584,0.02530395
1761619899504,-0.01027227,0.06831575,0.07481688,-0.00648949,-0.00642325,-0.01120386,0.99795073,0.05554260,-0.01952362,0.02506363
1761619899549,-0.03417517,-0.03088204,-0.07189245,0.05757267,0.02365488,-0.01116483,0.99789523,0.05681783,-0.01899967,0.02481633
1761619899591,0.07001312,-0.07548420,-0.06974020,0.00098542,0.00543763,-0.01741463,0.99790551,0.05683907,-0.01888249,0.02444105
1761619899625,0.06298958,0.04333657,-0.04784909,-0.02493386,-0.02271511,-0.00639060,0.99792467,0.05641893,-0.01926523,0.02433336
1761619899672,-0.06443957,-0.01925310,0.04676535,0.00175254,-0.01086786,0.01335302,0.99790990,0.05645951,-0.01951683,0.02464249
1761619899702,0.00207141,0.05837396,-0.00465959,0.04316087,-0.00710998,0.00036176,0.99786979,0.05712418,-0.01962632,0.02464806
1761619899734,-0.06112279,-0.07209227,0.01309865,0.00685057,0.02060170,0.00092693,0.99786957,0.05723105,-0.01930493,0.02466252
1761619899784,-0.00714033,-0.01771588,-0.00654612,-0.00521725,0.00785124,-0.00831910,0.99788594,0.05710062,-0.01910865,0.02445454
1761619899824,-0.00191869,0.03063975,0.02057936,0.01478653,0.01091275,0.01056242,0.99786771,0.05740005,-0.01888767,0.02466843
1761619899844,0.06925739,-0.09864670,0.00414186,-0.02885436,-0.03412665,-0.03731015,0.99788728,0.05710573,-0.01923576,0.02428787
1761619899891,-0.00893606,0.04366802,-0.00956684,0.00672862,-0.00410138,0.01568825,0.99786765,0.05726116,-0.01933050,0.02465026
1761619899901,-0.49277301,-0.21972698,0.10880557,-0.00968214,0.03323584,0.04950017,0.99786749,0.05721275,-0.01916432,0.02489776
1761619899933,0.07056525,0.00996504,-0.02455781,0.00660388,0.00734396,-0.00592949,0.99786601,0.05732073,-0.01904425,0.02480082
1761619899966,0.02560189,-0.01636789,-0.03296812,0.01257142,0.01586513,-0.00535170,0.99786119,0.05752941,-0.01878089,0.02471198
1761619899978,-0.06155974,-0.57158217,-0.12130405,-0.01508389,0.01491155,0.00822493,0.99786677,0.05744042,-0.01869291,0.02476051
1761619900002,0.05176389,0.28990607,0.06029380,-0.00589342,0.00249055,-0.00422706,0.99787268,0.05736940,-0.01866290,0.02470957
1761619900005,-7.91430967,0.53342897,1.04774668,0.01693848,0.06293534,0.07961516,0.99787073,0.05738803,-0.01859367,0.02479715
1761619900035,0.60611301,0.02563000,-0.06834666,0.01354788,-0.00040539,0.00267474,0.99785791,0.05759125,-0.01859975,0.02483727
1761619900068,-0.01991148,0.01339569,0.00162660,0.00646412,-0.00240920,-0.00294404,0.99785218,0.05769856,-0.01863974,0.02478840
1761619900090,0.02736827,0.03565081,-0.17176795,-0.00734434,-0.00992431,0.01513804,0.99785063,0.05761667,-0.01875040,0.02495719
1761619900113,-0.09005076,-0.18104976,0.03526847,0.00229110,-0.00354978,0.00767789,0.99784623,0.05764244,-0.01879033,0.02504356
1761619900158,0.03202863,0.02892201,0.04584449,-0.00003252,0.00569878,-0.00133787,0.99784944,0.05764171,-0.01866183,0.02501339
1761619900192,-0.05159091,0.01190014,-0.11264315,-0.01580218,0.02125262,0.00594460,0.99786942,0.05736833,-0.01829416,0.02511624
1761619900224,0.01441377,-0.04387275,0.06090908,-0.01554764,0.00409454,-0.00845765,0.99788793,0.05712423,-0.01822987,0.02498345
1761619900235,-0.50839307,0.05633905,0.01035024,-0.01523607,0.01612910,0.02287079,0.99789139,0.05703510,-0.01813552,0.02511724
1761619900293,0.14282826,0.02532709,0.02963286,-0.00062230,0.00451422,0.00642116,0.99789009,0.05701715,-0.01800528,0.02530249
1761619900312,-0.13320541,-0.02593626,-0.20027801,0.01084902,0.02334106,0.01307096,0.99788491,0.05712238,-0.01777887,0.02542928
1761619900357,0.02938765,-0.00253785,0.07997234,0.00371711,0.01053631,0.00257954,0.99788284,0.05720583,-0.01754233,0.02548719
1761619900393,0.14612362,0.00859261,-0.01207418,-0.00489523,0.00177810,-0.01981835,0.99789733,0.05711870,-0.01751068,0.02513443
1761619900426,-0.02240949,0.00270138,0.07448777,-0.02725283,0.00240388,0.01228466,0.99791880,0.05666358,-0.01747054,0.02533958
1761619900459,-0.14923083,0.10508502,-0.03399813,0.02576355,0.00785212,0.01363841,0.99789126,0.05708610,-0.01734176,0.02556325
1761619900494,0.05268442,-0.08075678,0.09557715,0.01050656,-0.00484737,-0.00551528,0.99788179,0.05726839,-0.01742587,0.02546756
1761619900527,-0.01108758,0.04379172,0.00602166,0.04242886,0.00899654,0.00800676,0.99784045,0.05797058,-0.01727697,0.02560007
1761619900570,-0.03027377,-0.05477812,-0.07689566,-0.02110885,0.01371046,-0.00097834,0.99787209,0.05751991,-0.01698425,0.02557919
1761619900591,0.16693075,-0.17849709,0.00482276,-0.04186672,0.04686277,0.02097634,0.99790017,0.05707612,-0.01648751,0.02580153
1761619900623,-0.13049249,0.07916111,-0.09952725,-0.02150825,0.01082666,-0.01229406,0.99792797,0.05672877,-0.01631266,0.02560299
1761619900635,-0.88805573,-1.40912980,-0.50536266,-0.19708019,0.09398331,0.09680496,0.99798748,0.05556599,-0.01575816,0.02617413
1761619900668,0.17270490,0.38576998,0.21228432,-0.01186035,0.04420584,0.03221333,0.99799560,0.05536852,-0.01502213,0.02671049
1761619900691,-0.10018976,0.04941570,0.01743652,0.00686896,0.06035762,0.00680179,0.99799929,0.05544682,-0.01433405,0.02678803
1761619900713,0.17649996,0.09430114,-0.09819216,-0.01613683,0.03527842,0.01999731,0.99800867,0.05527012,-0.01394775,0.02700700
1761619900715,-22.36761821,-10.72516463,-11.90505252,-0.31837417,0.31324684,0.04082373,0.99803361,0.05488808,-0.01357186,0.02705599
1761619900747,1.80655761,0.82499505,0.96793868,-0.01497239,0.01812206,0.00797710,0.99804685,0.05465451,-0.01328915,0.02718043
1761619900758,-0.41033376,-0.08580908,-0.34531083,0.01894736,0.03293926,-0.00132776,0.99804350,0.05476630,-0.01309481,0.02717259
1761619900780,0.28552609,0.06999709,0.22209831,0.00699299,0.01029329,0.00165835,0.99804027,0.05484287,-0.01298210,0.02719075
1761619900811,0.00525402,0.00369637,-0.00669066,-0.00503067,-0.00152002,0.00391049,0.99804259,0.05476515,-0.01300559,0.02725117
1761619900847,-0.03349240,0.02376023,-0.02970038,-0.01696429,0.00724553,0.01462576,0.99805373,0.05446064,-0.01287553,0.02751370
1761619900859,0.21897751,0.29465451,0.09957831,-0.02119417,-0.04367570,0.03016433,0.99805230,0.05433771,-0.01312885,0.02768866
1761619900891,0.08367073,-0.00777741,0.08521790,0.00495560,-0.00288151,-0.00012705,0.99804733,0.05441849,-0.01317582,0.02768659
1761619900937,-0.02600452,-0.09294725,-0.02794880,-0.01434855,-0.01179157,-0.00627595,0.99806549,0.05409134,-0.01344466,0.02754349
1761619900947,1.26352740,-0.87758441,0.20106139,-0.04834269,-0.11186174,0.01904238,0.99806826,0.05384721,-0.01400957,0.02763966
1761619900980,-0.38173359,0.20727126,-0.00426986,-0.01345766,-0.00018353,0.00215008,0.99807913,0.05362650,-0.01401258,0.02767492
1761619901043,-0.00961389,0.04185309,-0.02533732,-0.00548878,-0.00553973,-0.00292994,0.99808848,0.05345388,-0.01418680,0.02758277
1761619901073,-0.12222298,-0.07184254,-0.04220668,-0.03194426,0.03801863,0.00921627,0.99811833,0.05297152,-0.01361272,0.02772194
1761619901104,-0.04706186,0.10987099,-0.04005585,0.01394369,0.01602143,0.01690781,0.99810303,0.05318556,-0.01336679,0.02798147
1761619901137,0.04827223,-0.08288952,-0.01104096,-0.02034197,0.01745163,0.02531710,0.99811308,0.05284280,-0.01307273,0.02840807
1761619901182,0.08073868,0.03169855,-0.01710106,-0.00250713,-0.02057964,-0.01340135,0.99811839,0.05278689,-0.01353166,0.02810922
1761619901193,-0.03838818,-0.05450862,-0.33040771,-0.13124097,-0.05557610,0.01041503,0.99815107,0.05205194,-0.01384288,0.02816754
1761619901215,-0.01537488,0.03731815,0.24737400,-0.01532881,0.02946484,0.02013732,0.99815799,0.05188409,-0.01352024,0.02838804
1761619901259,0.00478463,0.02941397,0.01204773,0.00843887,-0.01104693,-0.00565453,0.99814844,0.05207143,-0.01376548,0.02826251
1761619901271,-0.11054640,0.23355837,0.55571140,0.05271099,-0.00862710,-0.03077942,0.99813720,0.05236661,-0.01381380,0.02809015
1761619901306,-0.00790913,-0.06734648,-0.10162956,0.00678276,0.01014463,-0.00031182,0.99813351,0.05248667,-0.01363424,0.02808463
1761619901326,0.11294496,-0.08558016,-0.05627243,0.00486194,0.01868201,-0.00440280,0.99813473,0.05253553,-0.01344648,0.02804038
1761619901339,0.16550719,0.13333601,0.05358969,-0.00111768,-0.02102416,-0.01810778,0.99813659,0.05252815,-0.01358524,0.02792087
1761619901370,-0.09897403,-0.06607404,0.02671178,-0.00017020,-0.01051990,0.00003061,0.99813448,0.05252551,-0.01374882,0.02792135
1761619901406,-0.02204506,0.00366665,-0.03316978,0.00473718,-0.00175117,0.00691722,0.99812618,0.05260959,-0.01377991,0.02804413
1761619901428,0.13986274,0.03896462,0.03101962,-0.01478906,-0.03102712,-0.02963519,0.99813902,0.05244765,-0.01411965,0.02771962
1761619901452,-0.07430497,0.05799612,-0.01752924,0.00791715,-0.00801759,0.00108193,0.99813213,0.05254503,-0.01421827,0.02773293
1761619901485,-0.05850545,-0.00563263,0.02097923,0.01701972,0.01163208,0.01412368,0.99811363,0.05282416,-0.01402751,0.02796456
1761619901515,-0.05576373,-0.04329842,0.01113872,-0.00306585,0.01673272,0.00844703,0.99811602,0.05277786,-0.01377484,0.02809211
1761619901526,0.67134562,-0.10309200,0.10430129,-0.00990874,-0.00837283,-0.02629781,0.99812215,0.05272485,-0.01381964,0.02795141
1761619901560,-0.09184739,0.08369558,-0.10031844,0.01751354,-0.01054790,-0.00683368,0.99810730,0.05301908,-0.01399684,0.02783661
1761619901571,0.66402530,-0.93359205,0.27843649,0.03041085,-0.00471950,-0.02223680,0.99810144,0.05318634,-0.01402280,0.02771431
1761619901616,-0.15422303,0.12681769,-0.05433629,-0.00337312,-0.00749507,-0.00237935,0.99810458,0.05311061,-0.01419106,0.02766089
1761619901651,-0.03526773,0.09774199,-0.05561177,0.00967555,-0.00315532,-0.01686415,0.99810288,0.05328187,-0.01424691,0.02736239
1761619901673,-0.24577722,0.09094572,-0.05414994,-0.01335390,0.02684128,0.04924121,0.99809993,0.05313698,-0.01395568,0.02789666
1761619901703,0.13769275,-0.06260725,0.07191632,-0.02366936,-0.02788257,0.00496974,0.99811071,0.05278312,-0.01437253,0.02797096
1761619901716,0.11027907,-0.44515753,-0.02124080,-0.01330631,-0.00680747,0.00301719,0.99811417,0.05269463,-0.01441780,0.02799102
1761619901740,-0.04944742,0.17503168,0.00784456,0.01085632,0.01966701,-0.00500985,0.99811233,0.05282654,-0.01417884,0.02793015
1761619901774,-0.03446475,-0.01662120,0.01989208,-0.00825508,0.01967130,-0.00570804,0.99812685,0.05268909,-0.01385132,0.02783511
1761619901795,-0.32102098,-0.23275725,0.21999761,-0.06519793,0.07195175,0.00470494,0.99817241,0.05199147,-0.01308143,0.02788546
1761619901817,0.23279700,0.26499815,-0.22052063,0.00029909,0.01995843,-0.00140951,0.99817563,0.05199487,-0.01285490,0.02786946
1761619901851,0.06604610,0.02140959,0.00623319,-0.01125453,0.00565362,0.00462522,0.99818455,0.05180467,-0.01275936,0.02794763
1761619901871,-0.04229102,0.04408930,-0.05210314,-0.00581328,0.00547359,0.01932339,0.99818282,0.05174595,-0.01270407,0.02814279
1761619901883,0.05652605,0.60163593,-0.35906391,0.02034884,-0.01394948,0.02229140,0.99817220,0.05186194,-0.01278359,0.02826985
1761619901896,0.05761408,-0.29772975,0.38615836,0.01294458,-0.02064496,0.00374127,0.99816530,0.05194737,-0.01291984,0.02829454
1761619901918,0.03100922,-0.14858863,0.02410873,0.01068523,-0.00339609,-0.00217952,0.99815951,0.05206224,-0.01295635,0.02827112
1761619901940,-0.02205963,-0.05130233,-0.01602876,0.00632178,0.00611407,0.00133500,0.99815620,0.05213463,-0.01288635,0.02828640
1761619901962,0.03134288,-0.05426385,-0.00357295,-0.01193988,0.00694931,-0.00418352,0.99816522,0.05200508,-0.01281095,0.02824101
1761619901972,-0.53397276,0.36296672,-1.24282253,-0.01159785,-0.00747835,-0.02957931,0.99817173,0.05194883,-0.01284722,0.02809755
1761619902007,0.11348535,-0.01417005,0.25392565,0.00523482,-0.00765207,-0.01220914,0.99817121,0.05204096,-0.01298189,0.02788267
1761619902039,0.05448501,-0.02258124,0.07884773,-0.04411679,-0.01743914,-0.00215585,0.99820443,0.05134833,-0.01325569,0.02784882
1761619902051,0.31077416,0.20330413,-0.42675147,-0.04724425,-0.04017051,0.07625761,0.99820288,0.05106722,-0.01349470,0.02830256
1761619902084,-0.03029243,-0.05338555,0.07823046,0.00564844,-0.00814538,0.00083603,0.99819579,0.05116184,-0.01363114,0.02831656
1761619902118,-0.09347665,-0.02639653,0.06713323,0.01804925,0.00308345,0.00597522,0.99817811,0.05146416,-0.01357949,0.02841664
1761619902119,0.34855422,-7.19144443,-5.15812933,-0.00959742,0.12821425,-0.08220467,0.99818245,0.05145504,-0.01345768,0.02833855
1761619902141,0.03020644,0.57171429,0.42933278,-0.01323324,-0.00323736,-0.01059377,0.99819267,0.05131080,-0.01349297,0.02822308
1761619902163,-0.01955226,-0.10759156,0.09619977,0.00097588,-0.01901527,-0.00700579,0.99819147,0.05132129,-0.01369739,0.02814776
1761619902173,0.00931496,-0.55036573,0.30229258,-0.00365415,-0.01487742,-0.00161434,0.99819161,0.05130302,-0.01377177,0.02813969
1761619902197,-0.01934576,0.27687703,-0.13714646,-0.00510907,-0.00104927,0.00590388,0.99819260,0.05124120,-0.01378447,0.02821113
1761619902199,12.46947899,-1.01872493,-7.24548247,0.03085125,-0.02562934,0.13329989,0.99818745,0.05126897,-0.01380754,0.02833110
1761619902241,-0.53146566,0.08552673,0.27887058,-0.00192635,-0.00627667,-0.00425778,0.99819027,0.05122794,-0.01394123,0.02824041
1761619902262,0.22140081,-0.12010972,0.01082713,-0.05136023,-0.05160020,-0.02375568,0.99821648,0.05070149,-0.01447013,0.02799691
1761619902284,-0.29824453,0.10950392,0.00504821,0.00774638,-0.00006207,0.01636000,0.99820703,0.05078709,-0.01447082,0.02817769
1761619902307,0.07642902,-0.01353004,-0.00814492,-0.00846999,0.00698969,0.01157390,0.99820942,0.05068799,-0.01438904,0.02831311
1761619902340,0.01580647,-0.00455759,0.01432861,-0.01133979,-0.00333178,0.00010625,0.99821804,0.05050145,-0.01444384,0.02831485
1761619902364,0.06400303,0.02792018,-0.01009011,0.00478726,-0.00814835,-0.01124049,0.99821753,0.05055890,-0.01454163,0.02817997
1761619902397,0.10926927,-0.03209120,-0.00280708,0.00903548,0.01093591,-0.00669877,0.99821570,0.05070708,-0.01436228,0.02807011
1761619902418,-0.11881789,0.05463741,0.00626348,-0.00397909,-0.00674845,-0.02033482,0.99822271,0.05066570,-0.01443246,0.02785863
1761619902441,-0.12414067,0.07987028,-0.00090554,0.01387229,-0.01776774,-0.01176213,0.99821520,0.05082939,-0.01464212,0.02771983
1761619902475,-0.03833676,-0.02192178,0.01492109,0.00693617,-0.00091650,0.00701842,0.99820584,0.05094488,-0.01465738,0.02783669
1761619902497,-0.25940783,-0.01087261,0.09710229,-0.01668648,0.00424187,0.00324691,0.99821500,0.05075882,-0.01461008,0.02787289
1761619902531,0.14517013,-0.02315038,-0.05825782,-0.00172083,0.00449469,0.00263363,0.99821636,0.05072940,-0.01453322,0.02791793
1761619902565,-0.01642777,0.06359871,0.03198066,0.01654391,0.01674652,0.00194697,0.99820540,0.05100568,-0.01425356,0.02795044
1761619902575,-0.02977765,-1.69553575,0.02532596,-0.04327497,0.03536160,0.01260213,0.99821800,0.05077416,-0.01406437,0.02801786
1761619902607,0.04633983,0.44980568,-0.03334918,0.00220283,0.00586547,0.00107592,0.99821704,0.05080941,-0.01397052,0.02803508
1761619902640,0.02021295,0.09273563,0.01392865,0.00980694,-0.00673205,-0.00186399,0.99820820,0.05096926,-0.01408026,0.02800470
1761619902642,-0.78142839,4.71976863,9.26138584,0.04016133,-0.20245787,-0.04634823,0.99820439,0.05101143,-0.01429284,0.02795603
1761619902665,0.09434847,-0.40293020,-0.87875115,0.00369996,-0.00134376,0.00777974,0.99819953,0.05105361,-0.01430816,0.02804472
1761619902686,-0.02381630,-0.07884793,-0.01474040,0.01607544,0.00115342,0.00723095,0.99818867,0.05122642,-0.01429576,0.02812245
1761619902698,-0.09454999,0.04663787,0.09697109,0.00736923,0.00485421,0.00559778,0.99818591,0.05126990,-0.01426712,0.02815548
1761619902731,0.02683632,-0.01662239,-0.02521588,0.00302318,-0.00375404,-0.00060711,0.99818273,0.05132008,-0.01432943,0.02814540
1761619902742,-0.17898950,0.18344918,0.03807353,0.03225141,0.01956365,0.00643195,0.99817437,0.05149263,-0.01422477,0.02817981
1761619902787,0.02510988,-0.10521359,-0.04695333,-0.00108781,0.00591110,0.00370625,0.99817515,0.05146837,-0.01409295,0.02826246
1761619902809,-0.08145203,-0.20242306,-0.29251728,-0.01738300,-0.00613460,-0.03790139,0.99819631,0.05127194,-0.01416227,0.02783417
1761619902831,0.12233926,0.27137703,0.27618751,-0.03776721,-0.00584129,-0.00006377,0.99821667,0.05085650,-0.01422653,0.02783347
1761619902854,-0.06615599,0.03034288,0.03919389,-0.02070715,0.00959717,0.01763057,0.99822456,0.05062148,-0.01411760,0.02803358
1761619902876,0.06755186,0.20105622,-0.00632771,0.01111932,0.00489125,0.01390065,0.99821467,0.05074546,-0.01406306,0.02818857
1761619902908,0.01614375,-0.07134670,0.02242347,0.01664781,-0.00415009,-0.00110398,0.99820057,0.05101349,-0.01412988,0.02817080
1761619902920,-0.10889212,0.15245723,0.21712320,0.04959480,0.01779026,0.01356411,0.99818573,0.05128874,-0.01403114,0.02824608
1761619902955,0.01542599,-0.10116558,-0.05137884,0.00341410,0.00346344,0.00045750,0.99818325,0.05134917,-0.01396984,0.02825418
1761619902985,0.02410043,0.06864412,0.01010122,-0.01113640,0.00286294,-0.00854379,0.99819627,0.05117934,-0.01392618,0.02812388
1761619902996,0.30255435,0.02057665,0.15932195,-0.00502105,0.00127272,0.01601322,0.99819528,0.05115147,-0.01391912,0.02821276
1761619903018,-0.07732494,-0.03860644,-0.08959114,0.00583708,-0.00645904,0.00018013,0.99819094,0.05121568,-0.01399016,0.02821474
1761619903032,0.22500958,-0.00874484,-0.06790722,0.03467951,-0.02780213,-0.03022947,0.99818200,0.05144976,-0.01417783,0.02801069
1761619903053,-0.14439189,-0.11111928,0.05422629,-0.01516932,-0.02252553,-0.01053540,0.99818995,0.05128973,-0.01441547,0.02789954
1761619903064,0.00082178,-0.38263492,0.34976027,-0.03166430,-0.01052312,0.00118095,0.99819786,0.05111557,-0.01447335,0.02790604
1761619903097,-0.05146455,0.11827434,-0.11427676,-0.00424028,-0.00413005,0.00184241,0.99819958,0.05104667,-0.01454046,0.02793598
1761619903108,0.13365599,0.03496279,0.12958344,0.02854620,-0.00719544,0.02778717,0.99818655,0.05120510,-0.01458040,0.02809020
1761619903175,-0.02166265,0.01222983,-0.03411651,0.00017384,0.00028035,0.00230187,0.99818420,0.05121098,-0.01457092,0.02816800
1761619903199,0.12260774,-0.05413048,-0.25977291,-0.02172359,0.00980787,-0.01023472,0.99820217,0.05095790,-0.01445666,0.02804876
1761619903253,-0.02946784,0.05096522,0.10265267,0.01212227,-0.00732560,-0.00425656,0.99818562,0.05128762,-0.01465592,0.02793299
1761619903266,0.56289314,-0.03997028,0.10369219,-0.01040875,-0.07401016,0.02385095,0.99817750,0.05121945,-0.01514068,0.02808921
1761619903310,-0.17195427,-0.02363985,-0.01986729,-0.00163642,-0.00503776,0.00428152,0.99817502,0.05118361,-0.01525101,0.02818297
1761619903332,0.01272367,-0.10281573,-0.05858191,-0.02364344,-0.00177742,-0.00296962,0.99818907,0.05092117,-0.01527074,0.02815001
1761619903355,-0.14039004,0.06237139,-0.07019911,-0.00652703,0.00209521,-0.01094834,0.99819677,0.05084643,-0.01524675,0.02802465
1761619903377,0.01362830,0.02878325,0.04564485,-0.01141875,-0.00538569,-0.00732323,0.99820465,0.05071854,-0.01530707,0.02794263
1761619903412,0.06763303,-0.00416928,0.03651697,-0.00501231,-0.01080037,-0.00379319,0.99820805,0.05063083,-0.01549608,0.02787625
1761619903445,0.04477820,0.05090623,-0.01748579,0.00076089,-0.01546622,-0.00440918,0.99820546,0.05064330,-0.01574972,0.02780394
1761619903476,-0.02910411,-0.02051386,0.01238956,0.00217648,-0.00658144,-0.00187801,0.99820293,0.05067726,-0.01585239,0.02777464
1761619903478,7.57924054,3.34681562,-2.64961516,0.22962476,0.03120796,0.02505406,0.99819461,0.05083799,-0.01583055,0.02779218
1761619903522,-0.28196569,-0.09646138,0.10867428,0.00536413,0.00312789,-0.00039062,0.99818988,0.05095708,-0.01576111,0.02778351
1761619903534,-0.21221322,0.16606118,0.08989312,0.05450409,0.03730002,0.00552183,0.99817643,0.05126775,-0.01554850,0.02781498
1761619903566,0.03365873,-0.20174133,0.04162474,0.00153051,0.00951306,-0.00075116,0.99817789,0.05129270,-0.01539343,0.02780274
1761619903599,-0.00030097,0.02472652,0.01551921,0.00234829,0.00629147,-0.00651258,0.99818044,0.05133074,-0.01529151,0.02769724
1761619903601,-0.97313706,8.29444161,-11.29419666,0.09103714,-0.04949968,-0.20449816,0.99818066,0.05142633,-0.01534349,0.02748251
1761619903633,0.11466706,-0.47048180,0.63741397,-0.01992994,-0.01164886,0.00409685,0.99819242,0.05110546,-0.01553103,0.02754847
1761619903667,-0.00988557,0.04250777,0.02186271,-0.00417809,-0.00880479,0.01226716,0.99818791,0.05103401,-0.01568160,0.02775824
1761619903678,-0.77710583,1.00879194,0.73396718,0.04210631,-0.02003032,0.01692182,0.99817186,0.05126349,-0.01579076,0.02785047
1761619903690,0.21276194,-0.84401029,-0.59534973,0.02287298,0.02297659,0.00840471,0.99816583,0.05139501,-0.01565865,0.02789879
1761619903721,0.16801481,-0.08341004,-0.05079889,0.00479527,0.01451311,0.00326536,0.99816404,0.05147126,-0.01542789,0.02795071
1761619903725,-2.66643783,-0.85852940,0.76945965,0.04693951,0.07590767,-0.04106843,0.99816384,0.05155809,-0.01528746,0.02787474
1761619903776,0.19795762,0.06399045,-0.05924900,0.00286911,0.00544167,-0.00267328,0.99816408,0.05163111,-0.01514897,0.02780670
1761619903814,-0.05458566,-0.00906690,0.05033208,-0.01841555,0.01007304,0.00044446,0.99818471,0.05128214,-0.01495808,0.02781512
1761619903844,0.10795850,0.05002944,-0.11338401,0.01974091,-0.00734790,0.00148657,0.99816706,0.05158023,-0.01506904,0.02783757
1761619903855,0.21901626,-0.37018939,0.74802862,0.00925238,-0.08832142,-0.05974981,0.99816606,0.05163204,-0.01556364,0.02750297
1761619903890,-0.10994830,0.06666515,-0.06844426,0.00527501,0.00333889,0.01258403,0.99815627,0.05172277,-0.01550621,0.02771942
1761619903922,-0.01123549,0.00174705,-0.14358075,-0.01697958,0.00088212,0.01105891,0.99816563,0.05145025,-0.01549205,0.02789691
1761619903934,-0.16873083,-0.31512311,0.03440595,-0.02365021,0.03822776,0.01099159,0.99817500,0.05130243,-0.01525313,0.02796561
1761619903957,0.11827050,0.17626892,-0.01889989,0.00389159,0.01225968,-0.00750742,0.99817723,0.05134660,-0.01511398,0.02788040
1761619903990,0.08773354,0.01900483,-0.02738957,0.00513781,-0.00178463,-0.00640219,0.99817535,0.05143189,-0.01514360,0.02777412
1761619904023,-0.01710319,-0.03609254,0.02875151,-0.01200133,-0.00521450,-0.00523461,0.99818662,0.05123387,-0.01522964,0.02768775
1761619904045,-0.08283487,0.17067493,0.01940988,0.01730111,-0.01911083,-0.00373279,0.99817458,0.05142678,-0.01544273,0.02764613
1761619904078,0.01436440,0.00686100,-0.04053075,0.01352260,-0.00670178,0.00104354,0.99816112,0.05164584,-0.01555130,0.02766304
1761619904090,-0.07751057,0.03177228,-0.23670157,0.00766271,-0.01180681,0.00405427,0.99815696,0.05169182,-0.01562214,0.02768736
1761619904123,-0.01530846,-0.10795679,0.12244621,-0.00528733,0.00174157,0.00240864,0.99816085,0.05160379,-0.01559314,0.02772747
1761619904158,-0.01398044,0.00614757,0.01331766,0.00687538,0.01522814,0.00069705,0.99815842,0.05172410,-0.01532665,0.02773967
1761619904178,-0.12166803,-0.05487412,-0.19093584,-0.00687782,0.01690290,-0.00094780,0.99816485,0.05165498,-0.01515678,0.02773014
1761619904211,0.10694528,0.03341749,0.07440511,-0.00313494,-0.00067260,0.00008704,0.99816730,0.05160373,-0.01516777,0.02773156
1761619904223,-0.02059017,0.14440483,0.30348829,0.00919795,-0.01439276,-0.00806216,0.99816456,0.05165707,-0.01525125,0.02768480
1761619904258,0.00045665,-0.01869003,-0.06489975,0.00534781,-0.00471289,0.00212843,0.99815732,0.05175200,-0.01533490,0.02772258
1761619904269,0.63581981,1.15938687,-0.42465618,0.02508130,0.00777042,0.03577143,0.99814544,0.05188869,-0.01529256,0.02791754
1761619904324,-0.11217059,-0.22239875,0.07306643,-0.00054660,-0.00035371,-0.00179637,0.99814743,0.05187377,-0.01530221,0.02786850
1761619904356,-0.06421509,-0.01946431,-0.00650286,0.02187807,0.01193368,0.00130306,0.99813116,0.05223147,-0.01510710,0.02788980
1761619904368,0.79825680,-1.09384950,-0.58357254,-0.08782070,0.01126689,-0.00851449,0.99815930,0.05173529,-0.01504344,0.02784169
1761619904403,-0.14553526,0.31153388,0.11042813,-0.02227195,-0.01901608,-0.01756025,0.99818308,0.05134219,-0.01537907,0.02753176
1761619904424,-0.10647241,-0.02628928,0.06685363,-0.04532671,0.00295278,0.01933440,0.99820294,0.05085039,-0.01534703,0.02774153
1761619904456,-0.02470330,0.05453999,-0.00084216,-0.00231001,0.00481885,0.01669485,0.99819856,0.05081355,-0.01527017,0.02800782
1761619904480,0.17095754,0.04487935,-0.33629189,0.00068219,-0.00343805,-0.00684461,0.99819980,0.05082163,-0.01531091,0.02792671
1761619904491,-0.12260476,-0.09408095,0.11615276,0.03241861,-0.00037175,-0.00557512,0.99819161,0.05099831,-0.01531294,0.02789632
1761619904525,-0.06164794,-0.00291401,0.19974215,0.01039127,0.00810911,0.00226726,0.99818350,0.05117704,-0.01517346,0.02793532
1761619904558,-0.00078473,-0.03204816,0.01472374,-0.00827273,0.00636252,0.00367251,0.99819042,0.05103972,-0.01506785,0.02799628
1761619904590,-0.08109992,-0.15537725,-0.06558656,-0.04199492,0.01643745,-0.00653829,0.99823014,0.05038880,-0.01481307,0.02789494
1761619904592,-1.40863086,0.24202930,-8.21441100,0.01800405,0.08748601,0.05563721,0.99822856,0.05041310,-0.01469496,0.02797005
1761619904622,0.24183297,0.18290164,0.75640502,0.01095344,-0.00771478,-0.01037005,0.99822288,0.05057740,-0.01481068,0.02781450
1761619904645,0.03136849,-0.16100578,0.05369301,-0.03100497,-0.02054281,-0.00800818,0.99823991,0.05022085,-0.01504692,0.02772241
1761619904656,-0.06763524,0.15226654,0.74759973,-0.05959714,0.00948733,0.01280580,0.99825504,0.04989604,-0.01499522,0.02779220
1761619904669,0.14454474,0.18347980,0.33125700,-0.00858009,0.00255838,0.01715560,0.99825496,0.04984027,-0.01497859,0.02790371
1761619904690,-0.08552737,0.00179100,-0.42962076,0.00808269,0.00445881,0.00737746,0.99824931,0.04992433,-0.01493222,0.02798043
1761619904701,-0.21141144,-0.04692230,-0.39434232,0.01059813,0.00210445,0.01068548,0.99824472,0.04998527,-0.01492012,0.02804188
1761619904723,0.07600244,-0.02472181,0.06716473,0.00399796,0.00379180,0.00392248,0.99824201,0.05002785,-0.01487973,0.02808365
1761619904725,-2.64494963,-5.47515974,-1.01362098,-0.07284973,0.10493717,-0.05241254,0.99824803,0.04996228,-0.01478529,0.02803648
1761619904745,0.25636614,0.45150943,0.09777655,-0.00693591,-0.00396389,-0.00325801,0.99825188,0.04989188,-0.01482552,0.02800341
1761619904756,0.05312689,-0.01121910,0.09135322,-0.00876489,-0.00574393,-0.00839592,0.99825520,0.04984236,-0.01485798,0.02795597
1761619904806,-0.00401122,0.00866501,-0.00076705,-0.00218260,-0.00072560,-0.00147537,0.99825866,0.04978812,-0.01487601,0.02791931
1761619904825,0.08457626,-0.16414563,0.01840139,-0.01518575,-0.02053153,-0.00141558,0.99826342,0.04964006,-0.01507619,0.02790551
1761619904874,-0.05168721,0.10556369,-0.02635299,0.00557783,-0.00427557,0.00016547,0.99825500,0.04977533,-0.01517987,0.02790952
1761619904917,-0.01382793,-0.00782872,-0.09418142,0.00257111,0.00096450,0.00288992,0.99825080,0.04983086,-0.01515904,0.02797194
1761619904960,0.02854597,0.01054453,0.08212795,0.01920920,-0.00620283,-0.01055316,0.99823428,0.05024674,-0.01529333,0.02774347
1761619904993,-0.04995950,0.04468885,-0.00460214,-0.01104370,-0.01288857,0.00125553,0.99823948,0.05006783,-0.01550213,0.02776381
1761619905014,0.26532671,0.05755428,0.09600011,0.01322305,-0.05504538,-0.00731169,0.99822543,0.05020734,-0.01608285,0.02768667
1761619905037,-0.11533024,-0.17414096,-0.01193875,-0.02084188,-0.01894181,0.00968110,0.99823085,0.04996661,-0.01630163,0.02779849
1761619905070,-0.01081834,-0.03302078,0.11399220,0.01642344,0.00172076,0.00594703,0.99821512,0.05023514,-0.01627350,0.02789572
1761619905092,0.03999189,0.01258712,0.12251620,0.01874501,0.01362949,0.00390264,0.99820575,0.05044602,-0.01612017,0.02793962
1761619905106,-0.16398725,0.18476137,-0.26223981,0.02809402,0.01046154,0.00394626,0.99819647,0.05063706,-0.01604903,0.02796646
1761619905138,-0.00968484,-0.05564767,-0.07983906,0.01280286,0.00772272,-0.00860432,0.99819186,0.05084318,-0.01592469,0.02782793
1761619905169,0.01308407,-0.02959484,-0.00725398,0.00776875,0.01159144,-0.00313987,0.99818990,0.05096476,-0.01574329,0.02777879
1761619905182,1.91012508,1.23985594,0.00539064,0.05805075,0.00548826,-0.01959913,0.99817466,0.05134209,-0.01570761,0.02765140
1761619905226,-0.54382385,-0.30573242,0.00493396,-0.01792980,-0.01580967,-0.00199224,0.99819030,0.05095391,-0.01604989,0.02760826
1761619905238,0.49921327,1.12526267,0.39768664,0.04772005,-0.03756079,0.01845928,0.99816857,0.05124500,-0.01627901,0.02772087
1761619905295,-0.07304018,-0.23925113,-0.11184394,0.00904191,-0.00379078,-0.00137661,0.99815443,0.05150632,-0.01638857,0.02768108
1761619905338,0.06271206,0.03478207,0.03725847,0.03508163,-0.00342094,-0.01762322,0.99812473,0.05225355,-0.01646143,0.02730571
1761619905360,-0.11443315,-0.00594825,0.06220167,0.00528267,-0.00209576,-0.02687317,0.99812933,0.05231140,-0.01648438,0.02701145
1761619905405,-0.05697310,-0.11959612,-0.02857671,-0.00028680,0.00151763,0.00413080,0.99812773,0.05230502,-0.01645061,0.02710336
1761619905449,0.00196550,0.07802584,-0.05073278,0.01773951,-0.00058667,-0.00203695,0.99810803,0.05269884,-0.01646364,0.02705814
1761619905483,-0.01526581,-0.05387672,0.01928293,-0.03551230,-0.00658281,0.00950520,0.99813348,0.05209513,-0.01657555,0.02721972
1761619905515,0.04624687,0.07563677,-0.00994937,0.02515386,-0.00833142,0.00818946,0.99810692,0.05249256,-0.01670718,0.02734912
1761619905537,0.08367042,-0.28496356,0.04194356,-0.02788459,-0.01515847,-0.01352020,0.99812481,0.05217607,-0.01687923,0.02719566
1761619905570,-0.09072177,0.14793279,0.00605079,0.00103708,-0.01330334,-0.01029266,0.99812480,0.05219328,-0.01710007,0.02702481
1761619905583,-0.10885203,0.31816316,0.13518470,0.00955240,-0.01986843,-0.01289177,0.99812162,0.05225490,-0.01722822,0.02694165
1761619905615,0.04566341,-0.12991625,-0.09094442,-0.00862159,-0.00537192,0.00405782,0.99812551,0.05211954,-0.01731256,0.02700536
1761619905626,-0.07730832,-0.04385839,-0.06880160,-0.01628424,-0.00034525,0.01104313,0.99812862,0.05202672,-0.01731452,0.02706831
1761619905639,-0.02042374,0.11770776,-0.07224898,-0.00080807,0.00416772,0.00033520,0.99812929,0.05202155,-0.01728785,0.02707045
1761619905673,-0.00430205,-0.01514079,0.13209220,0.00649669,0.00342504,0.00346052,0.99812303,0.05213036,-0.01723048,0.02712842
1761619905695,-0.06341216,0.01463587,0.33306981,0.01196987,0.00263659,-0.00006346,0.99811661,0.05226323,-0.01720122,0.02712771
1761619905728,0.03862324,-0.06018170,-0.27765667,-0.01033548,0.00474875,-0.00490997,0.99812926,0.05209011,-0.01712167,0.02704547
1761619905759,-0.03794731,-0.03073268,-0.05810590,-0.00755954,0.01560875,-0.00580345,0.99814192,0.05197294,-0.01687974,0.02695552
1761619905771,0.43410981,-0.17578964,-0.07605467,-0.02129975,0.01574549,-0.00196001,0.99815047,0.05184514,-0.01678526,0.02694376
1761619905817,-0.08417276,0.09211830,0.05039711,-0.00151162,0.00075521,0.00374755,0.99815024,0.05181060,-0.01676801,0.02702939
1761619905830,-0.26339385,0.15528392,0.10759543,0.03354772,0.02675085,0.02781759,0.99813823,0.05200685,-0.01661152,0.02719212
1761619905862,0.08890499,-0.04714196,-0.03165241,0.00351294,-0.00024502,-0.00251477,0.99813627,0.05206499,-0.01661557,0.02715050
1761619905873,-0.16060599,0.05435730,-0.60323104,0.03773172,0.02714882,-0.00534336,0.99812835,0.05228195,-0.01645947,0.02711978
1761619905917,0.04560339,-0.03527978,0.14432754,0.00411274,0.00649813,0.00157403,0.99812502,0.05237222,-0.01631683,0.02715433
1761619905962,0.00405021,0.00509780,-0.01208974,-0.00027250,0.00577560,-0.00503237,0.99813047,0.05236616,-0.01618832,0.02704236
1761619905971,0.30323810,0.96442686,0.33956968,-0.17321022,-0.06200116,-0.04625121,0.99817440,0.05154341,-0.01648283,0.02682266
1761619906007,-0.04218430,-0.15601746,-0.03454210,0.02305398,-0.00566928,0.00351920,0.99814991,0.05195147,-0.01658318,0.02688495
1761619906039,0.00575940,-0.06516006,-0.00463005,0.03208915,-0.00499541,-0.01052050,0.99812565,0.05247773,-0.01666510,0.02671242
1761619906062,-0.01901323,-0.12222687,0.03511754,0.00448800,-0.00903581,-0.00564009,0.99812297,0.05252844,-0.01676721,0.02664868
1761619906072,-0.64981957,-0.24264925,0.18763815,0.00248421,0.01061115,0.00578850,0.99812246,0.05254037,-0.01671627,0.02667647
1761619906106,0.12678488,0.07725646,-0.07097197,0.00170465,0.00567785,0.00147899,0.99812186,0.05257003,-0.01661748,0.02670220
1761619906118,0.16603261,0.09055922,-0.02056710,0.02238929,-0.00327835,-0.01199529,0.99811646,0.05270213,-0.01663682,0.02663143
1761619906140,-0.08462653,-0.03156170,0.01791279,-0.00729670,0.00878825,0.00874207,0.99811972,0.05262223,-0.01654059,0.02672716
1761619906150,0.06664642,-0.02804981,-0.05298391,-0.02094126,0.03774378,0.01987129,0.99812562,0.05251857,-0.01635376,0.02682552
1761619906162,0.19522113,0.27208229,-0.12034179,0.02591919,0.00852387,0.00611627,0.99811706,0.05267797,-0.01630133,0.02686313
1761619906195,-0.03473666,-0.06806464,0.03014287,0.00502114,-0.00801349,-0.01659570,0.99811786,0.05276157,-0.01643476,0.02658682
1761619906229,0.01174391,-0.01579580,0.01572873,-0.01416178,-0.01743840,-0.01583454,0.99813255,0.05252436,-0.01672685,0.02632159
1761619906251,-0.03707226,0.08096054,0.01883650,0.00358683,0.00458844,0.00968751,0.99812846,0.05256418,-0.01667592,0.02642912
1761619906263,0.21811171,-0.58621514,0.15965701,0.00787465,0.00617129,0.00145326,0.99812643,0.05260985,-0.01664013,0.02643755
1761619906295,-0.05682630,0.10822919,-0.05956737,0.00312204,-0.00177524,0.00330363,0.99812186,0.05266043,-0.01666889,0.02649107
1761619906329,-0.02151986,0.07319647,-0.00415832,0.00145079,0.00260021,0.00243880,0.99812023,0.05268466,-0.01662546,0.02653179
1761619906350,0.04139997,0.02865541,0.03830420,-0.00253226,-0.00613484,-0.00865122,0.99812308,0.05265693,-0.01669264,0.02643706
1761619906373,0.11641995,0.00246609,-0.02827680,0.01020962,-0.00652764,-0.01041537,0.99811884,0.05277281,-0.01676673,0.02631885
1761619906396,-0.03155571,-0.02565944,-0.05963935,0.00815756,-0.01067206,-0.00403574,0.99811301,0.05286703,-0.01688999,0.02627224
1761619906407,-0.27462755,-0.11917888,0.05624235,-0.00687630,0.00513339,0.01168552,0.99811380,0.05282886,-0.01686150,0.02633709
1761619906429,-0.04205601,-0.00173720,-0.00183517,-0.00656694,0.00748721,0.00413302,0.99811766,0.05275925,-0.01678214,0.02638090
1761619906453,0.01675869,0.02637249,-0.00209484,0.00296010,0.00689824,0.00303937,0.99811621,0.05279463,-0.01669970,0.02641722
1761619906486,-0.00254215,-0.00135416,-0.03645877,0.00737613,0.00701748,0.00208360,0.99811077,0.05291670,-0.01658356,0.02645170
1761619906520,0.02599705,-0.09408302,-0.07501287,-0.01379828,0.00627573,0.00734999,0.99812182,0.05267799,-0.01647499,0.02657886
1761619906552,-0.02481732,0.05761263,0.13154258,-0.01040906,0.00024390,-0.00573829,0.99813310,0.05251145,-0.01647109,0.02648705
1761619906598,-0.01187630,0.03871832,0.00468574,-0.00022749,-0.00095104,0.00475853,0.99813014,0.05250627,-0.01649273,0.02659530
1761619906619,-0.05178189,0.03893773,0.20242320,0.01539433,-0.00787604,0.01724084,0.99811506,0.05267176,-0.01657739,0.02678064
1761619906664,0.03873733,0.00555704,-0.06763961,-0.00178433,0.00050573,0.00145651,0.99811648,0.05263170,-0.01656604,0.02681334
1761619906674,-0.15916458,-0.46286799,-0.26818731,0.09290503,0.03319924,0.00559440,0.99809319,0.05311016,-0.01639506,0.02684215
1761619906697,0.08940649,0.02101186,0.07590125,0.00217830,0.01182614,-0.00394411,0.99809526,0.05313478,-0.01626143,0.02679758
1761619906743,0.01189213,0.08893640,-0.02219323,0.00743302,-0.00312535,-0.01031525,0.99809135,0.05330425,-0.01633269,0.02656240
1761619906764,-0.02497555,0.00165475,-0.03496024,-0.05825493,-0.02204259,0.00094403,0.99812015,0.05268384,-0.01656744,0.02657245
1761619906786,-0.27310255,0.00684658,-0.22990151,-0.01188520,0.00290372,0.01593716,0.99812287,0.05255429,-0.01653579,0.02674617
1761619906797,0.43457482,0.33165117,0.65930831,0.03164751,-0.00608177,0.01550837,0.99810997,0.05274101,-0.01657167,0.02683766
1761619906829,0.03937685,-0.12878757,-0.00851717,0.01332075,-0.00042117,-0.00302667,0.99809997,0.05295214,-0.01657835,0.02678969
1761619906842,-0.03536529,0.02046047,0.06164136,0.01527492,0.00455862,0.00255099,0.99809482,0.05304990,-0.01654917,0.02680602
1761619906874,-0.03675042,0.00004283,-0.05845586,0.01452567,0.00025309,0.00124895,0.99808205,0.05328086,-0.01654515,0.02682588
1761619906884,-0.60733697,0.64447585,-0.00036045,0.02018923,0.02808882,0.00070366,0.99807875,0.05338584,-0.01639909,0.02682954
1761619906897,0.52291424,-0.69668612,-0.00684167,-0.03349510,0.00936505,0.00123911,0.99809135,0.05316478,-0.01633728,0.02683771
1761619906931,0.01478731,0.02547713,-0.01480042,-0.00498565,0.00073610,-0.00146691,0.99809661,0.05308201,-0.01632506,0.02681336
1761619906954,0.02153766,-0.00131774,0.01993884,-0.01961814,0.00540737,0.00494608,0.99810836,0.05285052,-0.01626125,0.02687173
1761619906963,0.24325779,-0.50342789,-0.45418764,0.01564631,-0.00945704,0.01263001,0.99810241,0.05292093,-0.01630381,0.02692856
1761619906999,-0.06505128,0.07013858,0.07198799,-0.00303410,-0.01612656,-0.01355723,0.99810705,0.05286662,-0.01659247,0.02668589
1761619907032,0.04582948,0.00202525,0.03270171,-0.02164716,-0.01112076,-0.00274334,0.99812389,0.05251269,-0.01677430,0.02664103
1761619907065,-0.04715028,0.07330394,0.01136908,-0.00172475,0.00466542,0.00936743,0.99812251,0.05248371,-0.01669592,0.02679841
1761619907096,-0.06344775,-0.06886209,-0.05205323,0.00508179,0.00490741,0.00635985,0.99811693,0.05256324,-0.01661912,0.02689794
1761619907142,0.03946698,0.04681742,0.04862726,-0.00038949,0.00251017,-0.00237725,0.99811983,0.05255430,-0.01656151,0.02684338
1761619907154,0.18282759,0.56214247,0.38333669,0.04162402,-0.00730685,-0.03614269,0.99811227,0.05278740,-0.01660243,0.02664098
1761619907186,-0.12175201,-0.19120398,-0.25836649,-0.00112905,-0.00927352,0.00081612,0.99811036,0.05276899,-0.01675358,0.02665428
1761619907210,0.01021852,-0.01106699,0.17970272,-0.00541870,0.00404327,0.01062595,0.99811120,0.05270397,-0.01670507,0.02678180
1761619907242,0.02098585,0.00252931,-0.03920752,0.00671940,0.00848555,0.00485529,0.99810581,0.05280913,-0.01657227,0.02685778
1761619907254,-0.13034402,-0.20135291,-0.02229059,-0.01984535,0.01692988,0.00806734,0.99811243,0.05269105,-0.01647153,0.02690578
1761619907288,0.03602068,0.03016637,-0.03785433,-0.00478004,0.00301970,0.00071926,0.99811733,0.05260811,-0.01641914,0.02691826
1761619907321,-0.00228089,-0.02790395,0.02960370,-0.01133005,0.00498043,-0.00056595,0.99812863,0.05242343,-0.01633796,0.02690904
1761619907354,0.00562693,0.01984822,0.01823617,-0.02142153,0.00581368,0.00313588,0.99814724,0.05207105,-0.01624233,0.02696062
1761619907375,0.25078801,0.31240225,0.09279961,0.00288529,-0.01138360,-0.00406991,0.99814483,0.05210178,-0.01636356,0.02691728
1761619907444,-0.05495592,-0.05972711,-0.01815737,-0.00153097,-0.00262917,0.00036323,0.99814575,0.05204927,-0.01645374,0.02692973
1761619907455,-0.34172121,-0.05876894,0.31215374,-0.01438545,-0.01174379,0.01078264,0.99814722,0.05196943,-0.01651892,0.02698958
1761619907514,-0.01180333,0.04507493,-0.07407676,0.02570409,0.01945249,-0.00304257,0.99811891,0.05273541,-0.01593924,0.02689891
1761619907545,0.11985669,-0.16280995,0.09168401,-0.00799175,0.01267334,0.00996956,0.99812430,0.05261353,-0.01574597,0.02705095
1761619907578,0.12291324,0.11459134,-0.11436796,0.00953986,-0.03306894,-0.02342258,0.99811757,0.05277237,-0.01629657,0.02666096
1761619907620,-0.00134427,-0.07896039,0.03946368,-0.05375435,-0.01909471,0.00827848,0.99816533,0.05164353,-0.01669755,0.02683481
1761619907655,0.01465631,0.13510160,0.05032685,0.04083817,-0.03470824,-0.00115764,0.99811871,0.05235207,-0.01729974,0.02681472
1761619907677,-0.08623763,-0.24773821,0.27495292,0.03683053,-0.02209379,-0.02423447,0.99810000,0.05276273,-0.01754609,0.02654451
1761619907698,-0.04509305,0.10900214,-0.21672785,0.05062435,0.00274756,-0.00492565,0.99807364,0.05329429,-0.01751724,0.02649279
1761619907743,-0.02728648,0.02093789,-0.06640373,0.00038502,0.00738671,-0.00413450,0.99807858,0.05330301,-0.01734993,0.02639914
1761619907755,-0.98613693,0.03578086,-0.31546324,-0.08307448,0.03932416,0.00345026,0.99810786,0.05281702,-0.01711988,0.02641933
1761619907800,0.16332772,0.02199849,0.00287267,0.00355609,0.00390681,-0.00023768,0.99810527,0.05289686,-0.01703218,0.02641399
1761619907833,0.10482967,-0.06907432,0.06239575,0.02117887,-0.00705985,-0.00543828,0.99808717,0.05324419,-0.01714796,0.02632480
1761619907866,-0.01418314,-0.07011236,0.03767396,-0.02780691,-0.00773047,0.00636917,0.99810645,0.05278816,-0.01727474,0.02642926
1761619907878,0.08910214,0.26723788,-1.48962447,0.01310429,-0.01731448,0.03951556,0.99809377,0.05286941,-0.01738209,0.02667425
1761619907901,-0.10082703,-0.04230489,0.77374505,-0.01339295,0.01753591,0.01411867,0.99810093,0.05271807,-0.01718393,0.02683379
1761619907922,0.01485351,-0.04248097,-0.00456110,-0.01224135,0.01297391,-0.00679559,0.99811217,0.05258708,-0.01704511,0.02676108
1761619907943,0.05422083,0.01648572,0.01982695,-0.00528499,0.00690338,-0.00877488,0.99811889,0.05253080,-0.01697159,0.02666763
1761619907956,0.09893518,-0.00489350,0.01762734,0.00645015,0.01590558,-0.00379989,0.99811909,0.05257176,-0.01687059,0.02664350
1761619907978,-0.00450658,0.05312028,0.00715419,-0.00017192,-0.00151226,-0.00067735,0.99811911,0.05256990,-0.01688692,0.02663619
1761619907988,0.30618474,0.10837003,0.01937232,0.01844254,-0.00341329,-0.01399783,0.99811562,0.05266765,-0.01690501,0.02656200
1761619908043,-0.06410604,-0.02967562,-0.00644271,-0.00131720,-0.00367028,0.00072994,0.99811529,0.05263175,-0.01700503,0.02658189
1761619908055,-0.34554845,0.31766974,-0.06134585,0.04145931,-0.00204347,0.02329509,0.99809834,0.05287843,-0.01701719,0.02672049
1761619908088,0.15305541,-0.22021720,-0.00693868,-0.00245296,0.00259165,-0.00242165,0.99810239,0.05283686,-0.01697326,0.02667945
1761619908112,-0.16079932,0.22840014,0.13136326,0.02771710,0.01999663,-0.00235946,0.99808981,0.05316253,-0.01673830,0.02665172
1761619908156,0.03249124,-0.02291444,-0.01395086,0.00004677,0.00821447,0.00084064,0.99809224,0.05316355,-0.01655963,0.02667001
1761619908177,-0.18853126,0.02455891,0.05171993,0.02158187,0.00513035,0.00549949,0.99807895,0.05339987,-0.01650345,0.02673023
1761619908189,0.13665833,0.31083216,0.10676816,0.02804142,-0.01046828,-0.00745293,0.99807016,0.05356672,-0.01656574,0.02668588
1761619908212,0.16461845,-0.16557024,-0.07054967,0.00554845,-0.00593700,0.00532516,0.99806399,0.05363025,-0.01663372,0.02674685
1761619908245,-0.00947993,-0.03100683,-0.03936223,-0.00400056,-0.00230683,0.00178117,0.99806611,0.05356404,-0.01667190,0.02677633
1761619908257,-0.13147273,0.12252714,0.43454447,0.00314243,0.00034617,-0.00464270,0.99806590,0.05358164,-0.01666996,0.02675033
1761619908289,0.03414130,0.02258247,-0.11162001,0.01027210,0.00242215,0.00338460,0.99805598,0.05375061,-0.01663011,0.02680601
1761619908311,-0.04214263,-0.06637706,-0.01443536,0.01334917,0.00619396,0.00397813,0.99804813,0.05389545,-0.01656291,0.02684917
1761619908346,0.03033808,-0.03181099,-0.01729198,-0.01094442,0.00761336,0.00163592,0.99805982,0.05370502,-0.01643044,0.02687764
1761619908355,0.60446760,-0.76608864,-0.33595410,0.06072528,0.05903322,-0.00562211,0.99804944,0.05399650,-0.01614708,0.02685065
1761619908390,-0.05547976,0.12908969,-0.02387279,-0.01507075,-0.00866365,-0.00800213,0.99806453,0.05374030,-0.01629436,0.02671462
1761619908402,0.20759621,0.15797217,-0.04314384,-0.02969639,-0.07475211,-0.06695177,0.99807746,0.05356063,-0.01674661,0.02630956
1761619908423,-0.14248701,0.00412373,0.15776588,-0.03857462,-0.01992983,0.01857913,0.99809060,0.05314981,-0.01695886,0.02650742
1761619908467,-0.06171747,0.03293049,0.00016012,-0.00320224,0.00231169,0.00545268,0.99809203,0.05307872,-0.01690754,0.02662847
1761619908491,0.22768936,-0.02075600,-0.30457041,-0.00425802,-0.00887456,0.00968971,0.99808989,0.05302890,-0.01701138,0.02674184
1761619908502,-0.41800321,0.08109698,0.74369737,0.04907662,0.00234356,-0.02152443,0.99807819,0.05331600,-0.01699767,0.02661593
1761619908536,-0.02646234,0.01384104,-0.02953859,0.03328888,0.01765407,-0.00161977,0.99805411,0.05387026,-0.01670373,0.02658896
1761619908570,0.00664090,-0.03549384,-0.00269606,-0.00040192,0.00794557,0.00213528,0.99805579,0.05386333,-0.01656666,0.02662579
