UnixTime(ms),Ax,Ay,Az,Gx,Gy,Gz,QuatW,QuatX,QuatY,QuatZ
1755645743424,0.00000000,0.00000000,0.00000000,0.00000000,0.00000000,0.00000000,0.87246669,0.06700899,-0.47439727,0.09622319
1755645743444,0.52497825,-0.05119025,0.35165475,0.00655012,-0.03842966,0.00493703,0.87223945,0.06707678,-0.47479502,0.09627429
1755645743501,-0.11935662,-0.00684559,-0.11032683,-0.02230065,-0.01398764,-0.01387155,0.87211586,0.06644790,-0.47518947,0.09588311
1755645743519,0.42277247,-0.09025998,0.18430682,-0.04996397,-0.02641642,-0.02088763,0.87203983,0.06599073,-0.47543118,0.09569199
1755645743542,-0.32149811,0.08197165,0.13522125,0.00462723,-0.02372892,-0.02996448,0.87192622,0.06604325,-0.47570050,0.09535189
1755645743576,0.04821760,0.08177158,-0.09122709,0.01749622,-0.01504839,0.00077187,0.87176355,0.06633894,-0.47595482,0.09536494
1755645743587,0.98672535,0.41729712,0.50005809,0.07554227,-0.00903520,-0.01009971,0.87171029,0.06675820,-0.47600497,0.09530888
1755645743609,-0.40531503,-0.22804859,-0.18248109,0.02405935,-0.00988691,-0.02298123,0.87165795,0.06702405,-0.47611422,0.09505494
1755645743621,0.12235672,-0.36111396,0.39782349,0.01279743,-0.03186391,-0.02868319,0.87156787,0.06709956,-0.47630221,0.09488571
1755645743643,-0.22568707,0.13527291,-0.26538344,0.01549519,-0.01302774,-0.00746461,0.87148384,0.06727310,-0.47644812,0.09480211
1755645743653,0.80218059,0.24360153,0.37349012,0.03301902,-0.02929748,0.03140420,0.87137497,0.06743655,-0.47659315,0.09495756
1755645743665,-0.25759357,-0.00948365,-0.30062633,0.01051228,-0.02288863,0.00380278,0.87128973,0.06750172,-0.47673506,0.09498113
1755645743708,-0.16021756,-0.04636346,-0.07976867,-0.00319087,-0.00338715,0.00152881,0.87125214,0.06743408,-0.47680686,0.09501354
1755645743744,0.24591081,0.01012935,0.14240970,0.00099106,-0.01449962,0.00105749,0.87110580,0.06745192,-0.47706786,0.09503258
1755645743754,0.85759038,0.80826466,1.19159778,0.01340516,0.02917970,0.04187442,0.87116073,0.06752296,-0.47691320,0.09525451
1755645743775,-0.44862485,-0.34482867,-0.65850981,0.03211104,0.01873020,-0.00868979,0.87125214,0.06786013,-0.47671654,0.09516327
1755645743799,-0.11350309,0.06746915,-0.07426928,0.02113971,0.03110165,-0.01822058,0.87146031,0.06811381,-0.47634332,0.09494462
1755645743820,-0.12735208,-0.05508040,-0.01736868,0.02063282,0.02524575,-0.00540535,0.87159501,0.06833148,-0.47607697,0.09488760
1755645743833,0.51397642,-0.22186793,0.34386905,0.02373160,0.00678197,0.01266562,0.87159781,0.06847506,-0.47603594,0.09496422
1755645743843,-0.16722945,-0.20522111,0.12195936,-0.00020827,-0.00238618,-0.01641598,0.87160044,0.06847397,-0.47604847,0.09487804
1755645743865,-0.25669330,0.05429381,-0.24082283,-0.00696245,-0.01434711,-0.01440588,0.87153662,0.06839633,-0.47620844,0.09471742
1755645743876,0.26949534,-0.08178182,0.48634715,-0.01670096,-0.01986956,-0.03999798,0.87150902,0.06830782,-0.47631375,0.09450543
1755645743889,-0.06766328,0.12337503,-0.08650892,-0.00786127,-0.01672406,-0.00158950,0.87145473,0.06825672,-0.47642246,0.09449509
1755645743921,-0.12058794,0.03193635,-0.13784712,0.00453021,-0.00615507,0.00827924,0.87138152,0.06832852,-0.47652001,0.09462632
1755645743932,1.48800518,1.51837248,2.13328926,0.15976581,-0.02751932,0.05260075,0.87119623,0.06921522,-0.47667275,0.09491825
1755645743954,-0.69540988,-0.66169617,-0.91126224,0.00654811,-0.00932217,-0.01147030,0.87114660,0.06928955,-0.47677855,0.09478807
1755645744009,-0.02898692,-0.02960814,-0.05669495,0.00041023,-0.00498584,0.00027137,0.87107039,0.06930074,-0.47691467,0.09479548
1755645744032,0.65043409,0.22417557,0.77093526,0.01694242,-0.04340510,-0.00048869,0.87078827,0.06949135,-0.47740297,0.09478998
1755645744065,-0.21461107,-0.15358586,-0.37134640,0.01657771,-0.02694898,0.01804455,0.87048457,0.06976985,-0.47785572,0.09509313
1755645744088,0.08287723,0.04677186,-0.04521991,0.01302276,-0.02418279,0.00341382,0.87031553,0.06991961,-0.47813382,0.09513238
1755645744110,-0.00848643,-0.12690958,-0.04072466,-0.01088831,-0.00759401,0.00030689,0.87027872,0.06979930,-0.47821773,0.09513578
1755645744122,0.09968759,0.03814404,-0.22460605,-0.04901934,-0.01661843,-0.02189103,0.87026251,0.06951744,-0.47831329,0.09500990
1755645744154,-0.23785646,0.00345092,-0.06144159,-0.01097209,0.00062209,-0.01417732,0.87030755,0.06933859,-0.47830315,0.09477881
1755645744156,83.00067303,-17.49168000,24.47704019,-0.21038798,-0.04045474,-0.36879766,0.87033696,0.06915976,-0.47833754,0.09446533
1755645744177,-6.34513992,1.33071492,-1.86678757,-0.02057470,0.00007227,-0.02219676,0.87038019,0.06894167,-0.47833677,0.09423005
1755645744209,-0.16553712,0.02895655,-0.05544767,-0.00075940,0.00039053,-0.01965239,0.87041881,0.06892944,-0.47833048,0.09391364
1755645744211,143.79338777,-45.01306575,33.69517619,-0.34837394,-0.08445311,-0.49982592,0.87044502,0.06866816,-0.47839382,0.09353878
1755645744233,-9.50037284,2.85359289,-2.21144726,-0.01354163,-0.01519187,-0.02926960,0.87039944,0.06851921,-0.47856093,0.09321681
1755645744244,0.46697366,0.00440401,0.32429862,-0.01619219,-0.05044001,-0.04322619,0.87028147,0.06843177,-0.47883331,0.09298339
1755645744266,-0.41418115,0.16892398,-0.10886801,-0.01648631,-0.02781097,-0.01512248,0.87014199,0.06824630,-0.47914618,0.09281326
1755645744278,0.49126898,-0.08245095,0.28682633,-0.02533274,-0.05369725,-0.02620437,0.87000061,0.06810190,-0.47945226,0.09266390
1755645744312,-0.26548607,0.06308051,-0.14646633,-0.00215439,-0.00756930,-0.00394572,0.86993844,0.06806452,-0.47958358,0.09259544
1755645744322,4.70866439,-0.37455602,1.70321779,-0.01785037,-0.08488952,-0.03945265,0.86973846,0.06797795,-0.47999530,0.09240409
1755645744344,-1.66346472,0.13423360,-0.66138083,0.01230856,-0.02393439,-0.00045679,0.86958376,0.06811273,-0.48025738,0.09239909
1755645744367,-0.24978739,0.07100037,-0.06717959,0.00175832,-0.01558410,-0.00523317,0.86948916,0.06813304,-0.48043738,0.09233865
1755645744377,0.84076351,0.10257159,0.10678262,0.02509643,-0.01854240,0.00382041,0.86942605,0.06825852,-0.48053009,0.09235775
1755645744400,-0.34112147,-0.06693369,-0.08736144,-0.00011885,-0.00192987,-0.00687783,0.86942232,0.06825716,-0.48055209,0.09227934
1755645744411,0.54269630,-0.25719742,-0.00826953,-0.03109872,-0.00072604,-0.03644924,0.86945537,0.06808301,-0.48055615,0.09207523
1755645744422,0.32943414,-0.61127636,0.17031232,-0.00830687,0.00046977,-0.02565959,0.86947585,0.06803608,-0.48055350,0.09193025
1755645744455,-0.40669063,0.23317804,-0.08706067,-0.00140032,-0.00102845,-0.00391024,0.86947511,0.06801332,-0.48057021,0.09186671
1755645744483,0.21879083,0.00851376,0.02770276,-0.02248687,-0.00154822,-0.00346387,0.86949301,0.06769513,-0.48059212,0.09181769
1755645744513,-0.13246764,-0.01092494,-0.03456929,-0.01823792,0.00592607,0.00656670,0.86955298,0.06742156,-0.48050323,0.09191619
1755645744523,2.99930573,0.53246816,-0.60558319,0.05612713,0.01425502,0.00281136,0.86956908,0.06770220,-0.48043195,0.09193025
1755645744555,-0.90538542,0.02902459,0.08770313,0.00597066,-0.00727314,0.00204944,0.86949363,0.06779803,-0.48054869,0.09196315
1755645744568,0.69187807,-0.38532647,0.30947303,-0.06419751,-0.01989444,-0.02316083,0.86947032,0.06737753,-0.48067900,0.09181144
1755645744601,-0.30890853,-0.01276452,-0.00946305,-0.02827924,-0.02682876,-0.01407708,0.86928654,0.06691234,-0.48112033,0.09157987
1755645744612,1.27031068,0.01729090,0.39849930,-0.02193568,-0.06557985,-0.02432174,0.86911500,0.06679498,-0.48147118,0.09144975
1755645744623,-0.74795863,0.04862049,-0.22064765,-0.00418041,-0.04680074,0.00315698,0.86896580,0.06677095,-0.48174029,0.09146791
1755645744655,-0.21254654,0.01117334,-0.03379081,-0.01024578,-0.01646117,0.01271994,0.86881087,0.06660701,-0.48200366,0.09167142
1755645744657,33.13013338,-5.21000244,15.88997280,0.08541810,-0.22322735,0.20073851,0.86867440,0.06668389,-0.48220457,0.09185209
1755645744679,-2.76085295,0.47517236,-1.31945725,0.01450435,-0.01650041,0.00035116,0.86856404,0.06683909,-0.48238112,0.09185585
1755645744689,0.15694993,-0.02297179,0.00404211,0.01941273,-0.02137859,0.00520847,0.86849095,0.06694100,-0.48249336,0.09188319
1755645744701,-0.18219662,0.16651082,-0.03928466,-0.01686164,-0.00350150,-0.00169616,0.86848817,0.06684068,-0.48251419,0.09187310
1755645744713,0.03746073,-0.01262721,-0.16499556,0.02606503,-0.00434072,0.00410349,0.86845929,0.06699576,-0.48254002,0.09189751
1755645744723,0.03588509,0.06004803,-0.02401921,0.00677381,-0.00516895,0.01366552,0.86843581,0.06702862,-0.48256509,0.09196379
1755645744734,-0.11783697,0.02979258,-0.06089961,0.00756169,-0.00805186,-0.01400055,0.86841543,0.06707172,-0.48261099,0.09188399
1755645744756,-0.08626268,-0.06543141,0.06794529,-0.00402225,-0.00599222,-0.00316702,0.86838549,0.06702687,-0.48267780,0.09184868
1755645744767,0.64884081,0.23951192,0.33242018,0.00426786,0.00339220,0.01354707,0.86838615,0.06704992,-0.48265948,0.09192183
1755645744790,-0.30816678,-0.08878475,-0.16521174,0.01413958,-0.00184196,0.00790239,0.86835248,0.06721111,-0.48268048,0.09201192
1755645744801,0.87586325,0.53379741,0.14846141,0.07826987,0.01093299,0.03821435,0.86832895,0.06766507,-0.48261707,0.09223356
1755645744837,-0.29236694,-0.19884485,-0.04508361,0.00555965,-0.00030593,0.00202828,0.86831446,0.06776348,-0.48262248,0.09226946
1755645744867,0.19918241,0.07788241,0.03378907,0.01099445,0.00565954,0.00754972,0.86833664,0.06792785,-0.48253787,0.09238233
1755645744878,0.64425367,0.09235816,0.08847524,0.03575132,0.03662203,0.02123528,0.86842452,0.06813342,-0.48232730,0.09250443
1755645744923,-0.27807815,-0.09272090,-0.02611830,-0.00070812,-0.00124508,0.00500058,0.86839839,0.06811759,-0.48235512,0.09261620
1755645744934,2.21694190,1.44075800,0.23429705,-0.00740183,-0.01788669,0.02463292,0.86833247,0.06807688,-0.48245350,0.09275168
1755645744957,-0.85391669,-0.56249003,-0.14242017,0.01503064,0.01495098,0.01343801,0.86839789,0.06824973,-0.48228157,0.09290621
1755645744979,0.01376567,-0.15678057,0.02443838,0.00266254,-0.00273503,-0.00374475,0.86838342,0.06827875,-0.48231138,0.09286540
1755645745011,-0.13750375,-0.00112706,-0.00063288,-0.00648527,-0.01124144,-0.00424041,0.86829838,0.06817434,-0.48249236,0.09279713
1755645745013,45.83103027,-3.86150534,13.87502128,-0.36474750,-0.53867368,0.00500943,0.86798609,0.06775488,-0.48311184,0.09280289
1755645745045,-3.23039371,0.26616060,-0.97823081,-0.01324031,-0.02616465,0.00716510,0.86776149,0.06754701,-0.48352262,0.09291538
1755645745070,-0.03437595,0.05704874,0.00392178,-0.02170279,-0.02544129,-0.00935067,0.86761665,0.06727355,-0.48384318,0.09279756
1755645745090,0.48734431,0.14141587,0.16205159,-0.01828385,-0.08533480,-0.06587334,0.86723248,0.06709437,-0.48467947,0.09215200
1755645745101,0.53548394,0.21221231,0.19926941,-0.03420730,-0.14763571,-0.09296759,0.86681532,0.06689084,-0.48555790,0.09159884
1755645745147,-0.36255822,-0.08236227,-0.17370931,-0.00369074,-0.03311712,-0.00876020,0.86642299,0.06680743,-0.48630634,0.09140086
1755645745157,3.89427844,0.80316901,-0.34348764,-0.09054682,-0.26423554,-0.02994091,0.86568909,0.06632753,-0.48770679,0.09124218
1755645745189,-1.16008857,-0.34424889,0.16182169,-0.06811949,-0.10393980,-0.04580954,0.86491000,0.06523762,-0.48936983,0.09050922
1755645745202,1.55709813,-0.15480661,0.41664863,-0.16225564,-0.37624863,-0.09461897,0.86369380,0.06420729,-0.49175901,0.08990839
1755645745236,-0.62268755,0.01657801,-0.17032699,-0.02804448,-0.09915994,0.00827849,0.86274417,0.06372633,-0.49345960,0.09005037
1755645745246,6.06570443,-1.70449708,-0.11986892,-0.21822836,-0.58233782,0.07824697,0.86114411,0.06265701,-0.49631306,0.09043378
1755645745291,-1.22518633,0.43354193,-0.02726074,-0.00909576,-0.09687762,0.02292567,0.85984753,0.06245281,-0.49848796,0.09094846
1755645745301,7.22856970,-0.68489793,-0.10709149,-0.12408035,-0.73231455,-0.06931660,0.85785781,0.06185102,-0.50203968,0.09061228
1755645745323,-2.65506576,-0.11358050,0.02349226,-0.07807022,-0.22256732,-0.03012222,0.85652304,0.06099615,-0.50447680,0.09028244
1755645745346,-0.27704377,0.20180810,-0.03727493,-0.01683761,-0.12935022,-0.01815491,0.85566995,0.06080000,-0.50598373,0.09007093
1755645745356,2.85358792,0.38667249,-0.49306059,0.03185583,-0.33879543,-0.03440988,0.85466275,0.06096087,-0.50769464,0.08989716
1755645745369,-1.55679335,-0.21818094,0.00706429,0.06323514,-0.16415210,0.00335263,0.85400143,0.06136873,-0.50875342,0.08991879
1755645745380,-0.23571440,-0.03021415,-0.10984423,0.01230081,-0.16747045,-0.01631617,0.85343182,0.06143946,-0.50971638,0.08982497
1755645745391,0.02352923,-0.65740815,0.01861654,-0.00027779,-0.14368955,-0.02649596,0.85299556,0.06143801,-0.51047075,0.08968587
1755645745401,-0.26729079,-0.44486998,-0.20443153,-0.05039346,-0.15976720,-0.06812878,0.85254536,0.06117092,-0.51131752,0.08932478
1755645745413,-0.22463903,-0.01952365,0.22264989,-0.07468982,-0.13550577,-0.05793056,0.85213965,0.06073772,-0.51210345,0.08898879
1755645745425,0.45397697,-0.42578331,-0.54627800,-0.08017691,-0.14631562,-0.08369720,0.85170533,0.06026468,-0.51296671,0.08849497
1755645745436,0.33833296,0.52963724,-0.17239343,-0.08513628,-0.12363779,-0.02811614,0.85134448,0.05979643,-0.51364672,0.08834033
1755645745447,-0.15467652,0.72855595,-0.44531073,-0.03906260,-0.10589128,0.00443418,0.85100536,0.05958158,-0.51422912,0.08836472
1755645745469,-0.60764229,0.02512543,0.45448776,0.01063716,-0.03205443,0.03244866,0.85074567,0.05969912,-0.51458332,0.08872328
1755645745481,1.58711203,-0.45584168,-1.85067804,-0.02692796,-0.05906602,0.06879903,0.85050348,0.05954025,-0.51493181,0.08912919
1755645745491,-0.99498209,-0.65358138,0.26711513,-0.02931386,-0.04249138,-0.02413209,0.85039664,0.05939221,-0.51514639,0.08900733
1755645745502,-0.72803259,0.39000433,0.63976665,-0.06582495,-0.03718945,-0.08089819,0.85034485,0.05903347,-0.51534908,0.08856643
1755645745512,0.09479406,-0.11443536,-0.37564479,-0.10171876,-0.03714876,-0.08543862,0.85031014,0.05849944,-0.51554411,0.08811788
1755645745514,79.96105012,-49.08773634,-129.30612715,-0.59766621,-0.08904520,-0.36214232,0.85032847,0.05805119,-0.51561089,0.08784627
1755645745524,-11.53937652,7.72178447,18.18704892,-0.08035081,0.01003391,-0.06017812,0.85041636,0.05765346,-0.51556122,0.08754839
1755645745534,-0.04042355,0.14441595,0.41236254,-0.05152099,0.04896934,-0.02171063,0.85060041,0.05738555,-0.51530658,0.08743550
1755645745547,-0.35780421,-0.30684048,-0.12132543,-0.04426422,0.06143655,-0.00868762,0.85086736,0.05709783,-0.51490725,0.08737903
1755645745558,-0.25075011,-0.20139495,-1.01641190,-0.05989454,0.12811177,-0.05131879,0.85134865,0.05676542,-0.51419623,0.08709421
1755645745568,-1.11794520,0.10094011,-1.97641511,-0.05109240,0.20007284,-0.12110808,0.85199667,0.05652273,-0.51324588,0.08651894
1755645745579,-0.02221887,0.36496502,0.64483981,-0.02661107,0.22905773,-0.12509765,0.85283353,0.05637637,-0.51198606,0.08583091
1755645745590,-0.26977796,0.39706964,-0.04274720,-0.02092504,0.25100248,-0.08666582,0.85372418,0.05626023,-0.51059300,0.08534991
1755645745601,0.04752211,0.04037593,-0.14704895,-0.01268829,0.24988042,-0.04765009,0.85461398,0.05618727,-0.50915619,0.08507592
1755645745613,0.11718115,-0.44303490,-0.11177279,0.02169700,0.27234972,-0.03411718,0.85555631,0.05631203,-0.50759017,0.08487975
1755645745624,-0.55203705,-0.22441502,-0.97193928,-0.00712333,0.34560562,-0.01710380,0.85667247,0.05627357,-0.50572390,0.08478739
1755645745635,-0.80770500,-0.13277668,0.12686450,-0.06102287,0.40250753,0.05270593,0.85807446,0.05591048,-0.50332898,0.08510099
1755645745659,0.10211708,0.47603827,1.17439387,-0.01278098,0.26056495,-0.00888167,0.85986010,0.05576222,-0.50030643,0.08499796
1755645745669,-4.91582114,0.19213249,-13.06574920,0.08587754,1.20427681,-0.16702741,0.86338949,0.05619161,-0.49428505,0.08416282
1755645745693,1.81999232,0.09645052,5.26502527,0.04527207,0.32724019,-0.04914929,0.86572233,0.05675298,-0.49022727,0.08355337
1755645745726,-0.69664056,0.22291369,-1.59052967,0.06143244,0.73034696,-0.05985307,0.87232310,0.05774512,-0.47843217,0.08258675
1755645745736,-36.10976515,2.61880669,-65.12171150,0.36488534,5.97888689,-0.05230444,0.88766813,0.05953305,-0.44913562,0.08233045
1755645745757,11.14454041,-1.40216653,22.46627291,0.27018239,2.40007946,-0.09278761,0.90026411,0.06246453,-0.42309476,0.08132371
1755645745769,-2.62847608,-0.48887433,-0.93689544,0.21960413,2.80388991,-0.13660699,0.90777390,0.06374922,-0.40669200,0.08052456
1755645745792,3.79556905,0.04212551,5.84542128,0.05062987,1.32091061,-0.06278983,0.91447879,0.06433399,-0.39143548,0.07979933
1755645745801,-22.47445761,0.23444549,-23.38959605,0.05919227,3.94502929,-0.16029738,0.92216005,0.06460924,-0.37309110,0.07905395
1755645745814,6.14231648,0.00460811,7.36721221,0.09291210,2.98470315,-0.10412553,0.92967502,0.06520387,-0.35398900,0.07838755
1755645745826,-3.20803854,0.18697888,-1.17628715,0.08938167,3.46461340,-0.04687599,0.93712784,0.06572676,-0.33372101,0.07811332
1755645745836,-4.16984108,-0.47992281,-3.36708492,0.18164659,4.09963781,-0.00093780,0.94404610,0.06662591,-0.31342780,0.07810868
1755645745846,2.00556871,0.25472556,3.83383552,0.20496225,3.71603103,-0.07247361,0.95037007,0.06772246,-0.29354704,0.07772095
1755645745858,-1.14107945,-0.37528622,0.78282286,0.20932136,3.77827371,-0.10999865,0.95672214,0.06891559,-0.27201088,0.07709396
1755645745880,6.04189860,-0.03313383,5.56155100,0.10123011,1.92955485,-0.05833028,0.96259954,0.07005443,-0.25030338,0.07643774
1755645745891,-49.93156495,-1.73700251,-33.08593189,0.40081073,8.12229495,-0.20853594,0.97296458,0.07223884,-0.20603688,0.07530122
1755645745902,27.37168099,1.42878569,22.70003339,0.18957204,4.65728487,-0.17398080,0.97799117,0.07327201,-0.18065467,0.07435302
1755645745915,5.31617337,-0.32856485,4.11665756,0.16888794,3.90652183,-0.16933717,0.98215663,0.07431912,-0.15643424,0.07330313
1755645745925,-5.75463854,-1.13975171,-1.82758646,0.17130016,4.53827263,-0.19433783,0.98569400,0.07522701,-0.13238139,0.07227314
1755645745935,-0.91467138,-0.28057625,1.63622132,0.15219977,4.59142701,-0.22406461,0.98860558,0.07601084,-0.10873554,0.07111921
1755645745946,1.94645652,-0.03266767,2.57148694,0.12252130,4.17368560,-0.23500548,0.99088288,0.07667858,-0.08598896,0.06983843
1755645745959,4.15160452,0.65167262,3.45348609,0.08626069,3.63598633,-0.22699672,0.99262577,0.07720908,-0.06362764,0.06844240
1755645745969,-6.43215581,-0.60093529,-0.79555262,0.16128325,4.28358484,-0.23175612,0.99381063,0.07803969,-0.04156718,0.06724886
1755645745981,5.98741180,1.16894546,2.92909493,0.11426868,3.47195907,-0.17525128,0.99449828,0.07875387,-0.01986744,0.06615354
1755645745993,-2.88299360,-0.49585878,-0.38917900,0.21479811,3.76714255,-0.18417175,0.99466852,0.07994600,0.00104021,0.06513138
1755645746004,2.43053554,0.56719933,2.40267016,0.15254241,3.55471465,-0.23619627,0.99445791,0.08081549,0.02130208,0.06378506
1755645746014,-2.04693740,0.12009383,0.73613653,0.11389697,3.73980825,-0.27361537,0.99390023,0.08140206,0.04056209,0.06237594
1755645746025,2.21249025,-0.90623331,0.87645627,0.10940127,3.46623758,-0.26859216,0.99305058,0.08196548,0.05841321,0.06099270
1755645746035,2.01188040,0.31850729,1.35220740,0.07398544,3.25581596,-0.30417268,0.99197386,0.08235020,0.07534346,0.05941100
1755645746047,5.20883133,0.59242940,1.23546168,0.06764541,2.47767277,-0.27722605,0.99075396,0.08276960,0.09070503,0.05769220
1755645746049,-658.12054927,0.15991685,-18.41666881,0.59588256,15.53297333,-1.90823685,0.98934855,0.08333569,0.10546135,0.05587937
1755645746081,44.55829549,0.28574963,1.63500997,0.02741949,0.88992394,-0.10227168,0.98779673,0.08377029,0.11956665,0.05425836
1755645746124,-0.69486179,-0.06531210,0.04540324,0.05285614,1.18579676,-0.11528955,0.98440332,0.08490934,0.14512057,0.05177387
1755645746133,-74.76505215,4.29078861,6.90105666,0.40077506,9.19376394,-1.13274893,0.97715951,0.08679298,0.18833126,0.04644995
1755645746158,28.33792525,-1.02493784,-2.27013785,0.10937816,1.52246633,-0.27590876,0.97343080,0.08812740,0.20690535,0.04308387
1755645746181,0.91552996,-0.65929459,-0.05150629,0.04756561,1.35605424,-0.25631010,0.97010739,0.08866727,0.22229656,0.04017475
1755645746193,0.80740817,0.28093233,0.05076857,0.00407284,1.28227059,-0.20727225,0.96827175,0.08869292,0.23037487,0.03886893
1755645746216,2.13081454,-0.12565122,-0.40118236,0.03803534,0.60160890,-0.09361262,0.96663885,0.08912082,0.23714297,0.03781579
1755645746225,-3.50065105,0.51787245,0.38017820,0.03136442,1.29182989,-0.18473604,0.96513300,0.08926980,0.24327916,0.03693830
1755645746247,2.28535012,-0.21349935,-0.29513719,0.01239469,0.45606920,-0.07012511,0.96385957,0.08940738,0.24834153,0.03615991
1755645746249,-268.04958847,-12.64120516,-45.83383320,0.26495891,9.10218706,-1.30084990,0.96185293,0.08963260,0.25607839,0.03505418
1755645746270,22.06844842,0.88713016,3.33597286,0.05341230,0.39175897,-0.07324889,0.96072905,0.09019076,0.26017227,0.03428873
1755645746280,-1.15112377,-0.43699202,-0.72514541,0.12303546,0.67745769,-0.20329629,0.95974496,0.09083054,0.26369505,0.03323159
1755645746292,0.93239190,0.07271819,-0.07200747,0.04048742,0.52207012,-0.17108792,0.95892663,0.09106334,0.26669695,0.03224784
1755645746305,0.63878319,-0.24905478,0.11364235,-0.01115754,0.39843610,-0.14573406,0.95821433,0.09098803,0.26938640,0.03126413
1755645746315,-0.25979744,-0.52017412,-0.97710905,-0.05860883,0.44970069,-0.22327920,0.95765444,0.09070085,0.27158993,0.03017006
1755645746337,0.62667307,0.17552849,0.42790834,-0.01020176,0.14747068,-0.08227281,0.95723743,0.09059016,0.27318999,0.02927740
1755645746348,0.85746953,-1.22854824,-4.48487746,-0.08008444,0.32914645,-0.17178481,0.95678487,0.09014569,0.27501675,0.02832400
1755645746359,0.43813871,0.82591052,1.81888512,0.05013509,0.07121086,-0.06839904,0.95665841,0.09041893,0.27540485,0.02795122
1755645746372,-0.05539952,0.01649269,0.54690390,0.04695662,-0.03199079,-0.05570678,0.95669955,0.09072180,0.27519851,0.02759191
1755645746381,1.41926582,-0.85539630,-2.10873706,0.04861613,-0.11620599,-0.07677343,0.95684359,0.09094786,0.27465815,0.02723492
1755645746392,0.58839012,0.63118091,0.63001653,-0.02527318,-0.18003867,-0.05013850,0.95713998,0.09081265,0.27369494,0.02696668
1755645746405,-0.11119011,0.33685489,0.42868719,-0.03433553,-0.24486784,-0.04204988,0.95763357,0.09058432,0.27206657,0.02668705
1755645746416,1.42723876,-0.04855374,-1.69485581,-0.03798487,-0.41429341,-0.06351850,0.95828910,0.09038110,0.26985010,0.02634722
1755645746426,1.09497645,0.32452241,-1.26405815,-0.06182584,-0.59692398,-0.04825155,0.95916888,0.09006888,0.26683564,0.02610355
1755645746439,-0.40467542,-0.17784142,1.13737939,-0.02567049,-0.55442502,-0.02610391,0.96017662,0.08990330,0.26325959,0.02593518
1755645746450,1.48675508,-0.47268308,-1.41286284,-0.08277823,-0.82140639,0.02576820,0.96145391,0.08944389,0.25870079,0.02607819
1755645746460,1.20926800,0.39223920,0.18122317,-0.17233911,-0.95702043,0.03481420,0.96288378,0.08853049,0.25362858,0.02626271
1755645746472,-0.23165577,0.27447891,0.45152233,-0.16099029,-0.89991407,-0.00582940,0.96434204,0.08758869,0.24836408,0.02622861
1755645746483,1.95387925,-0.13127913,-1.62825312,-0.14770505,-1.19593890,0.00564699,0.96599089,0.08682063,0.24214520,0.02625797
1755645746493,1.71660936,-0.11407324,-0.78032708,-0.11463883,-1.39874028,0.00885866,0.96783712,0.08622451,0.23487175,0.02630404
1755645746504,0.78375752,0.45600116,0.11368091,-0.14912817,-1.52733697,0.03248647,0.96986798,0.08541921,0.22662413,0.02647946
1755645746506,315.82459256,-30.42099652,-211.37131585,-0.76995003,-9.38096835,0.40888209,0.97206838,0.08464926,0.21724316,0.02688835
1755645746539,-21.24222752,1.89337160,14.61906727,-0.05930220,-0.60497908,0.05560562,0.97432415,0.08366188,0.20717026,0.02781418
1755645746549,30.53095638,-3.54419831,-16.05365277,-0.62653242,-4.60720945,0.39045684,0.97927997,0.08043524,0.18344313,0.02982503
1755645746559,-3.45931470,1.98403030,4.84679509,-0.53992794,-3.97107163,0.23761549,0.98297223,0.07773560,0.16358778,0.03101311
1755645746570,-4.63119210,1.35376943,3.57670010,-0.30694584,-3.27797616,0.26967994,0.98586215,0.07606275,0.14572281,0.03248287
1755645746593,-7.03185262,0.08202749,2.98613667,-0.08839478,-1.44819144,0.17967855,0.98812161,0.07507714,0.12957547,0.03448628
1755645746594,1342.57321456,-81.83283532,-359.25667347,-2.12561213,-24.26950751,2.83580634,0.99024173,0.07358922,0.11258682,0.03647135
1755645746606,-144.10458334,8.83820665,40.59822445,-0.36244611,-2.75857115,0.25243164,0.99212823,0.07136017,0.09562160,0.03802380
1755645746616,7.86353717,0.95158176,-0.28227756,-0.53764481,-3.68308388,0.22258443,0.99384558,0.06872571,0.07757449,0.03911446
1755645746626,-2.14188301,1.12305419,0.82733619,-0.45481756,-3.36727273,0.19951317,0.99516524,0.06638340,0.06023304,0.04014196
1755645746636,1.47536530,1.10238991,0.61677546,-0.37124105,-3.55717503,0.19516983,0.99618124,0.06449007,0.04209144,0.04113732
1755645746649,-0.30413503,-0.14053298,1.23052136,-0.22198938,-3.39920090,0.14629667,0.99691449,0.06306934,0.02033656,0.04207362
1755645746661,3.30829920,0.62849047,1.14936944,-0.15030024,-3.73228833,0.16510130,0.99713492,0.06219760,-0.00131071,0.04303121
1755645746671,3.98223250,-0.87024459,1.57823443,-0.13330568,-4.16936199,0.29948624,0.99684017,0.06149774,-0.02319986,0.04460351
1755645746682,1.40772462,-1.45299290,2.78241777,-0.21789086,-4.27339012,0.29569918,0.99604477,0.06033203,-0.04606250,0.04618550
1755645746694,-0.45608373,-0.32848367,1.41270910,-0.34626483,-4.28485030,0.23782733,0.99466871,0.05835832,-0.07048615,0.04754112
1755645746703,6.94974473,-0.08197207,2.96701465,-0.38781528,-5.04221995,0.22061416,0.99261909,0.05641924,-0.09569725,0.04864419
1755645746715,-3.84523197,0.95482359,1.69948729,-0.39377941,-4.72162210,0.25350242,0.98967963,0.05415501,-0.12284657,0.05010183
1755645746727,0.62421499,-0.22219350,2.30396177,-0.38421588,-4.85947398,0.25800150,0.98585161,0.05194577,-0.15078855,0.05158534
1755645746738,-0.88504295,0.25722989,1.81537957,-0.42631428,-4.81669604,0.33871322,0.98110664,0.04943052,-0.17920706,0.05358374
1755645746760,-8.31288200,-0.17192119,-2.55732844,-0.25791163,-2.63168911,0.18093128,0.97545933,0.04661928,-0.20789247,0.05555590
1755645746771,37.42659927,1.92565300,20.86618459,-0.54998130,-7.32882509,0.32821759,0.96630660,0.04367688,-0.24710168,0.05731186
1755645746773,1087.31316380,59.04742010,661.89145898,-1.89288608,-31.01247453,1.34311472,0.95873952,0.04197328,-0.27501291,0.05852066
1755645746783,-213.64959628,-11.98789645,-122.73094250,-0.28856408,-5.09302605,0.27184685,0.95096323,0.04051603,-0.30073269,0.05989349
1755645746792,12.10605899,0.23506869,13.08003174,-0.46396145,-6.85682098,0.44276367,0.93963205,0.03824262,-0.33433111,0.06206303
1755645746806,-11.32653361,-1.00059920,-4.85721318,-0.43781377,-5.18390334,0.36324773,0.92659472,0.03533116,-0.36880407,0.06447863
1755645746837,-7.77158827,0.00390464,-5.71975822,-0.19264308,-2.22178653,0.10738213,0.91207745,0.03233556,-0.40335285,0.06614842
1755645746839,2318.29084384,-22.95147759,3143.99130475,-8.07268107,-77.14314587,3.72667977,0.87387206,0.02426288,-0.48049600,0.06987510
1755645746851,-369.99164940,4.78976509,-490.00530242,-0.71841211,-5.54912203,0.32136590,0.85450524,0.01991649,-0.51406819,0.07181936
1755645746861,-1.15875667,1.85952378,3.98243063,-0.47445669,-5.65883145,0.31514257,0.83637990,0.01749676,-0.54292823,0.07342659
1755645746871,0.17207028,1.05216863,6.69407057,-0.40586988,-6.01750423,0.41378272,0.81612582,0.01548770,-0.57271487,0.07547482
1755645746882,-7.37344075,-0.35956786,-6.76916698,-0.28070839,-4.99984686,0.40996807,0.79631170,0.01397188,-0.59971404,0.07768864
1755645746895,-2.30746890,-0.40320932,2.86845197,-0.27732093,-4.98488511,0.40517992,0.77101598,0.01219702,-0.63161731,0.08028180
1755645746905,-0.75898133,-0.87069347,14.32403922,-0.40737701,-5.73110489,0.32774576,0.74647544,0.01016014,-0.66027283,0.08192052
1755645746917,-6.87407666,-0.97824662,-11.95110771,-0.30520862,-4.28016105,0.10274382,0.72249366,0.00829836,-0.68638182,0.08254726
1755645746927,-2.19921739,1.19177187,15.35820480,-0.47424625,-5.06638296,-0.09024352,0.69788836,0.00595085,-0.71146041,0.08210056
1755645746938,-3.22621529,-0.43321870,-9.03990159,-0.35123696,-4.21372365,-0.04378800,0.67257416,0.00394879,-0.73547864,0.08185096
1755645746960,-1.62416819,-0.11979379,-14.03995643,-0.15635898,-2.08739905,0.00468229,0.64681708,0.00224448,-0.75823129,0.08190200
1755645746971,-3.84214402,2.82314823,40.70246333,-0.25081980,-4.68560931,0.12826693,0.61433723,0.00082735,-0.78470498,0.08262671
1755645746982,-2.01751526,-2.98671351,-18.30384139,-0.12103693,-3.43047716,0.10086911,0.59077054,0.00019796,-0.80254346,0.08315123
1755645746993,-1.74663466,-0.16708953,-5.40104645,-0.11976367,-2.90177720,-0.07795386,0.56830655,-0.00046673,-0.81864832,0.08271859
1755645746995,-296.94592174,42.45272493,1539.18111519,-0.40342969,-15.85638035,-0.94315710,0.54850239,-0.00080965,-0.83212625,0.08191690
1755645747004,47.90105721,-6.71595176,-266.04301578,-0.04043735,-2.79654014,-0.17266478,0.52747932,-0.00100577,-0.84568947,0.08107948
1755645747026,2.18806673,-0.19535033,-13.75768846,0.01479601,-1.28924320,-0.07487974,0.50416259,-0.00084301,-0.85987114,0.08025580
1755645747028,-1252.55834522,277.67636567,3925.58050245,0.80135533,-23.65427539,0.12263054,0.47695891,-0.00032213,-0.87524642,0.08033551
1755645747037,159.58052011,-36.82741499,-510.13670986,-0.01633620,-2.26507035,0.02897989,0.45663788,-0.00039973,-0.88600551,0.08047316
1755645747049,2.79933759,-1.03553364,-9.78130271,-0.05091451,-1.65271289,-0.03467499,0.43656106,-0.00071031,-0.89608705,0.08026165
1755645747071,2.59298833,-0.61000523,-7.77538519,-0.02190434,-0.91046143,-0.03271762,0.41593854,-0.00094578,-0.90587451,0.07990993
1755645747072,-780.48912946,59.66335255,1854.17248520,0.31394674,-11.70997900,-1.29769603,0.39376147,-0.00067892,-0.91582800,0.07880689
1755645747082,129.82259283,-9.11648893,-312.68334401,0.07606719,-1.13618109,-0.12683732,0.38081672,-0.00031000,-0.92133847,0.07819173
1755645747094,-0.12442388,0.34305333,-0.57733754,-0.01848732,-1.11473936,-0.07685849,0.36417163,-0.00042184,-0.92808265,0.07772674
1755645747106,-2.73448891,0.04399694,3.20455072,-0.13562794,-1.15881670,-0.00955605,0.34672158,-0.00120171,-0.93474584,0.07767179
1755645747116,-1.33752823,-0.01026236,0.50005705,-0.21271216,-1.15654787,-0.08769852,0.33081093,-0.00226527,-0.94052858,0.07723330
1755645747126,1.63246652,-0.72779203,-4.70081722,-0.11882725,-0.96287815,-0.15530879,0.31598043,-0.00290099,-0.94567998,0.07640239
1755645747137,0.73288938,-0.87865800,-2.16478362,-0.10011851,-0.84593416,-0.16347562,0.30205040,-0.00344664,-0.95029032,0.07551145
1755645747148,0.67585031,0.07000385,-1.58862991,-0.10082953,-0.76102335,-0.17454342,0.28866997,-0.00400624,-0.95451400,0.07454274
1755645747161,1.44863050,0.38325941,-2.68307560,-0.01916687,-0.64125333,-0.13837165,0.27562980,-0.00412316,-0.95842565,0.07369867
1755645747172,-1.43399743,-0.34625654,1.81115147,0.04607922,-0.65659981,-0.05323030,0.26271420,-0.00386742,-0.96206978,0.07340324
1755645747184,1.01890564,0.94724432,-3.21517807,0.00876324,-0.54168428,-0.05025731,0.25007899,-0.00381265,-0.96545530,0.07308913
1755645747195,-2.43589181,0.41695679,3.37077377,-0.10465610,-0.60592345,-0.07182134,0.23756567,-0.00436209,-0.96863640,0.07271207
1755645747205,0.97371734,-0.47056538,-1.89440696,-0.11931980,-0.54368900,-0.06275191,0.22558620,-0.00499449,-0.97151795,0.07237949
1755645747216,1.49750171,-1.27363912,-2.27854286,-0.07611918,-0.47913232,-0.06844495,0.21425285,-0.00540553,-0.97410527,0.07200988
1755645747227,-0.06481670,0.56136490,-0.66188088,0.02773035,-0.44211005,-0.08219257,0.20346473,-0.00525856,-0.97644845,0.07157426
1755645747239,0.94858172,0.09540336,-2.10804912,0.15901716,-0.36442237,0.02691597,0.19282270,-0.00432036,-0.97859854,0.07173307
1755645747249,-2.20949814,1.62712375,1.85812206,0.29595565,-0.38210095,0.03651582,0.18188798,-0.00270740,-0.98068099,0.07193208
1755645747272,3.81882850,-0.56644063,-5.34145436,0.12200465,-0.17443577,0.04324137,0.17057543,-0.00131045,-0.98267828,0.07242719
1755645747283,-15.48744427,0.65444321,18.11699335,-0.00762318,-0.47677286,0.09559009,0.15492553,-0.00135123,-0.98522902,0.07293860
1755645747295,10.39868749,-1.71505357,-12.19617479,-0.06754868,-0.23288856,-0.00684801,0.14593558,-0.00174977,-0.98660306,0.07289820
1755645747297,-421.45185885,9.45798122,497.56346061,0.07214818,-1.41483235,-0.17509781,0.13713558,-0.00168484,-0.98787641,0.07274061
1755645747307,71.96123278,-0.26517985,-86.13920898,0.10622063,-0.19808543,-0.02202004,0.12949431,-0.00112718,-0.98891636,0.07262500
1755645747317,-7.13370967,1.57186440,4.26889546,0.12134767,-0.25119026,0.06700063,0.11963038,-0.00053864,-0.99013463,0.07294996
1755645747329,2.20648340,0.06224901,-2.77974567,0.06367002,-0.19090188,0.18715416,0.10879543,-0.00015026,-0.99129913,0.07409160
1755645747340,0.21258265,-0.17468108,-0.77448234,0.05006252,-0.16446641,0.26958553,0.09872640,0.00013510,-0.99223659,0.07562823
1755645747350,-0.77501707,-0.05362207,3.46599071,0.07698107,-0.16707823,0.29364475,0.08931436,0.00049691,-0.99302186,0.07700836
1755645747361,3.61642038,-1.29321222,-3.39118672,0.08877767,-0.11841541,0.18452036,0.08077804,0.00098519,-0.99367314,0.07802323
1755645747373,1.35519584,-0.09619151,-1.90468369,0.06725414,-0.08775303,0.16186921,0.07310957,0.00138199,-0.99419089,0.07897825
1755645747384,0.04217126,0.36327943,0.09255603,0.02016835,-0.06976964,0.17258094,0.06618739,0.00149897,-0.99459555,0.07997922
1755645747395,0.35148735,0.89543706,-0.71838120,-0.00478559,-0.05662760,0.26164371,0.05940502,0.00147264,-0.99490700,0.08141826
1755645747406,0.51643433,0.81606065,-0.06771773,0.01997642,-0.03755813,0.33480428,0.05311148,0.00158152,-0.99511169,0.08324295
1755645747418,1.42219024,-1.04672068,-1.17720387,-0.02772120,-0.02122827,0.35144137,0.04714368,0.00141796,-0.99523694,0.08531645
1755645747428,0.01678022,-0.02419544,0.25304697,-0.04849589,-0.02033787,0.30723919,0.04190763,0.00117548,-0.99533863,0.08685265
1755645747462,2.12544258,-0.64306016,-2.26757498,-0.02588582,-0.00399251,0.07208229,0.03753190,0.00073672,-0.99540630,0.08807444
1755645747472,-8.84132393,-0.74746243,15.03444428,-0.26186674,-0.00445076,0.42809297,0.03086521,-0.00066427,-0.99543011,0.09036474
1755645747496,4.30922566,0.23042874,-6.49395165,-0.02950887,0.00039911,0.04672526,0.02936459,-0.00100952,-0.99542544,0.09091142
1755645747506,-4.82573978,-0.74471673,10.32943400,-0.20441797,-0.00668430,0.06145960,0.02714156,-0.00203161,-0.99545887,0.09121872
1755645747529,2.49560929,0.24277907,-4.72510469,-0.07762074,-0.00335026,-0.03175433,0.02687045,-0.00292425,-0.99549739,0.09085355
1755645747539,0.50726144,-2.35189562,8.20698945,-0.28918239,-0.00867587,-0.16934506,0.02789701,-0.00437016,-0.99554077,0.09000682
1755645747572,0.18588016,0.61754923,-2.42951438,-0.07547039,-0.00240495,-0.06427776,0.02963664,-0.00563807,-0.99558118,0.08892696
1755645747607,0.51885573,-0.19640765,0.46850735,-0.12398607,0.00692976,-0.03118471,0.03434462,-0.00775203,-0.99546302,0.08839526
1755645747618,8.49380102,-6.01948944,5.37457155,-0.36295176,0.00775057,-0.63636563,0.04291647,-0.00976641,-0.99542001,0.08486343
1755645747640,-2.91587911,2.85122529,-4.20185869,-0.09969710,0.01567387,-0.18798875,0.05012107,-0.01086806,-0.99524681,0.08278615
1755645747661,-0.22139708,0.39251289,-0.46561855,-0.07156501,0.02492386,-0.08183169,0.05630154,-0.01163381,-0.99498013,0.08191055
1755645747673,5.22700616,-1.76734260,0.26441791,-0.16054370,0.05775472,-0.18601478,0.06316162,-0.01256496,-0.99464515,0.08083167
1755645747685,2.40889363,-0.95690061,-0.86501484,-0.12642961,0.08382594,-0.30179736,0.07281262,-0.01334883,-0.99412543,0.07896052
1755645747695,1.25873794,0.63584645,-1.76076575,0.02234733,0.10763143,-0.35064437,0.08170072,-0.01323486,-0.99357651,0.07717224
1755645747706,-1.84867249,1.65279090,0.31875394,0.03013765,0.10873078,-0.26368182,0.08986805,-0.01307061,-0.99298393,0.07573517
1755645747719,-0.91032242,0.68169381,-0.58245042,-0.05817573,0.12262121,-0.14837777,0.09882943,-0.01344293,-0.99219915,0.07478555
1755645747730,3.50029987,-0.38422996,-1.29149733,-0.18278626,0.19281835,-0.12074337,0.10945738,-0.01446653,-0.99111937,0.07410939
1755645747741,3.65508231,-0.52157690,-1.54606311,-0.11668811,0.26016776,-0.13771978,0.12177137,-0.01509081,-0.98972747,0.07337259
1755645747752,1.55101268,-0.93242833,-1.16107131,0.00820662,0.30718715,-0.19057371,0.13559984,-0.01504486,-0.98800722,0.07230538
1755645747762,4.63876996,-1.39601414,-3.25082392,0.18757667,0.41992434,-0.40058146,0.15085024,-0.01412573,-0.98594959,0.07034253
1755645747773,-2.58823192,0.37115664,0.19719572,0.22619849,0.43120441,-0.44830354,0.16714786,-0.01284771,-0.98351329,0.06780961
1755645747784,0.82821796,2.07112070,-0.92536903,0.15104018,0.51114014,-0.34293925,0.18380918,-0.01200944,-0.98067646,0.06590630
1755645747795,0.89443282,1.80925828,-0.29464456,0.12988246,0.61349039,-0.05986385,0.20097727,-0.01130158,-0.97733294,0.06558004
1755645747806,1.18357407,0.56635033,-1.47038951,0.11747568,0.70026844,0.10692756,0.21872834,-0.01065546,-0.97348146,0.06616814
1755645747828,-5.46992495,-0.58575177,2.32719447,0.01708380,0.40118907,0.03627850,0.23733322,-0.01046839,-0.96908844,0.06656539
1755645747830,1141.57838772,-71.44946770,-767.71951799,0.42432350,7.05245368,-0.80803111,0.26209334,-0.01008650,-0.96274123,0.06583817
1755645747839,-204.55769341,10.04241277,135.15362949,0.03996025,0.94289265,-0.18687641,0.27807351,-0.00989869,-0.95830964,0.06495985
1755645747863,-5.72438731,0.59749990,3.61440713,0.00232289,0.53835522,-0.18078820,0.29929250,-0.00987163,-0.95203780,0.06285366
1755645747865,1227.09739963,-202.53009605,-1033.24571206,-0.37419428,10.34259641,-3.91941469,0.32808132,-0.01020840,-0.94272946,0.05932619
1755645747874,-227.34841852,36.84860610,189.33582548,-0.07216638,1.20835277,-0.36881428,0.34391593,-0.01054037,-0.93717104,0.05762964
1755645747886,-1.70528196,0.36513227,-0.62671227,-0.09560582,1.25060442,-0.34861581,0.36385769,-0.01110922,-0.92972994,0.05555538
1755645747906,-3.32075125,0.54131764,2.86792338,-0.09278446,0.94721055,-0.26194450,0.38844021,-0.01207418,-0.91987895,0.05283116
1755645747917,19.19640433,-3.23907952,-21.62902126,-0.21303813,2.28644910,-0.52003223,0.41728628,-0.01324589,-0.90730348,0.04997098
1755645747919,1289.08526547,-281.49391609,-1554.16081126,-1.68709112,14.09552503,-2.16964365,0.43678163,-0.01434250,-0.89814139,0.04856071
1755645747940,-89.79949433,18.92979243,105.72204063,-0.08128997,0.89912767,-0.16653746,0.45628039,-0.01521637,-0.88847577,0.04677043
1755645747963,1.23155899,-0.61472678,-2.37330618,-0.07040949,1.19797634,-0.25535764,0.48241408,-0.01602608,-0.87469904,0.04383382
1755645747973,33.88755986,-14.94316489,-60.01636936,-0.44619245,4.63981478,-1.34517361,0.52310294,-0.01827935,-0.85126798,0.03704070
1755645747998,-16.31866736,5.68757907,25.63814425,-0.15210543,1.07132437,-0.35911976,0.54409836,-0.02014264,-0.83814425,0.03264148
1755645748008,28.41332450,-14.94943050,-68.78246436,-0.79088975,5.07807035,-1.65785535,0.58195548,-0.02413663,-0.81250000,0.02426931
1755645748019,-12.44473385,4.01318107,20.19981464,-0.48113315,3.82579477,-1.29111997,0.61039493,-0.02678287,-0.79145813,0.01716815
1755645748031,-7.92056348,3.22893090,14.66583973,-0.44367179,2.92455459,-1.02169803,0.63233461,-0.02942271,-0.77405703,0.01108905
1755645748041,-1.63477368,0.95502636,0.84462011,-0.59737359,2.88090247,-0.80033641,0.64981714,-0.03246932,-0.75936442,0.00700733
1755645748052,-3.48481324,2.84893176,8.71248398,-0.57276206,2.32421690,-0.40691957,0.66406442,-0.03556223,-0.74681365,0.00480996
1755645748063,-1.31611593,2.00317393,2.15443401,-0.63073976,2.24743688,-0.29608190,0.67728882,-0.03896823,-0.73467749,0.00321112
1755645748074,-0.52445063,-0.19596372,0.62987167,-0.55125601,2.12566397,-0.08390992,0.68957899,-0.04200014,-0.72298634,0.00274962
1755645748085,-0.69505912,-0.95958552,-3.17234638,-0.53797484,2.28761559,-0.07775556,0.70235234,-0.04495900,-0.71040446,0.00232196
1755645748096,-2.05254020,-0.35054983,3.91540425,-0.45495591,1.97807927,-0.18986481,0.71341105,-0.04755225,-0.69912940,0.00123973
1755645748107,-0.89776095,-0.65299284,1.02695570,-0.51688886,1.89190522,-0.31375832,0.72344645,-0.05044682,-0.68853473,-0.00051731
1755645748120,-0.93204249,2.33546407,4.99633033,-0.44973806,1.57789792,-0.27076932,0.73243241,-0.05323520,-0.67875177,-0.00219608
1755645748130,0.51374456,0.94314328,-2.40781150,-0.36885251,1.75700486,-0.16314537,0.74049509,-0.05511635,-0.66979104,-0.00302813
1755645748141,0.23323841,0.50100041,2.24834127,-0.25375449,1.46165034,-0.07222394,0.74739089,-0.05647393,-0.66197121,-0.00341452
1755645748153,-0.74145880,-0.10721400,1.75851749,-0.29733945,1.29140896,-0.08021953,0.75360556,-0.05813904,-0.65473932,-0.00386375
1755645748163,-0.56141175,-1.34050651,1.01336502,-0.37913417,1.21008646,-0.13286093,0.75947059,-0.06033801,-0.64772082,-0.00463435
1755645748185,-0.58993638,0.72326695,5.33078132,-0.24424982,0.62922382,-0.12863222,0.76491600,-0.06293927,-0.64101959,-0.00600428
1755645748186,41.51990529,-415.14122057,-1235.60074163,-4.77653821,10.54819217,-3.40535132,0.77115194,-0.06652168,-0.63310844,-0.00855829
1755645748195,-6.58176947,69.96215265,203.27795004,-0.28124459,0.88863281,-0.15766131,0.77426498,-0.06777322,-0.62915403,-0.00925989
1755645748207,1.15326371,2.19346072,1.40671533,-0.12281894,0.74653917,-0.00480975,0.77793613,-0.06853469,-0.62452548,-0.00928971
1755645748251,-0.39505084,0.26185472,2.60117990,0.00858799,0.18689098,0.02658019,0.78121998,-0.06834705,-0.62044192,-0.00870893
1755645748277,0.60717290,-0.60893726,-6.12778183,0.06575927,0.82595887,0.08841230,0.78964954,-0.06749875,-0.60978705,-0.00756841
1755645748286,3.71704426,-3.35269675,-14.90855703,-0.18604557,1.21457109,-0.59863068,0.79378331,-0.06834526,-0.60426075,-0.01029218
1755645748307,-1.47938608,3.51132399,12.55344456,0.07825371,0.17183956,0.03067611,0.79522104,-0.06752751,-0.60246503,-0.00997161
1755645748330,-0.11549940,-0.28172374,1.72401210,0.17741989,0.01455783,0.04212394,0.79552436,-0.06548718,-0.60229761,-0.00948719
1755645748341,2.11569114,1.51157319,-1.41469616,0.38979301,-0.06182745,0.00970564,0.79544027,-0.06332383,-0.60264075,-0.00943332
1755645748351,1.91087013,0.57481102,0.65656592,0.40557445,-0.15690922,0.03839372,0.79500212,-0.06127568,-0.60343314,-0.00923943
1755645748364,-1.78175920,-1.60099140,2.23650545,0.17811150,-0.17660108,0.00812666,0.79421256,-0.06010905,-0.60458988,-0.00918621
1755645748374,1.14433666,1.45322458,1.02214260,0.27521432,-0.28445857,-0.05194535,0.79324763,-0.05876050,-0.60598373,-0.00944074
1755645748385,0.43654481,-0.81324602,1.16935392,0.33157229,-0.39310352,-0.01277319,0.79176544,-0.05698658,-0.60808683,-0.00950907
1755645748396,-0.03761001,-0.45303447,0.62143921,0.26686832,-0.44709645,0.07921537,0.78989895,-0.05545209,-0.61065764,-0.00905359
1755645748407,0.31363515,-0.75412602,0.17731868,0.17089269,-0.46797534,0.17881638,0.78796117,-0.05450364,-0.61325490,-0.00806115
1755645748419,-0.38318137,0.20358827,-0.45180121,0.04134144,-0.42458997,0.15650457,0.78604732,-0.05426179,-0.61573875,-0.00714560
1755645748431,0.16076754,-0.65786176,-0.51143867,0.06825132,-0.37075163,0.12086773,0.78431987,-0.05384887,-0.61798180,-0.00641435
1755645748443,0.29722519,-0.87422505,0.12714863,0.04142793,-0.36553493,0.07015023,0.78267877,-0.05361066,-0.62008362,-0.00601099
1755645748452,1.50431308,-0.17976113,0.37660985,-0.02922220,-0.43250001,-0.01948162,0.78100185,-0.05375239,-0.62218125,-0.00610548
1755645748464,-1.18794067,-1.10022061,0.27868385,-0.04388498,-0.34973169,-0.05398288,0.77931894,-0.05401350,-0.62426215,-0.00642667
1755645748475,1.36220870,-0.12363114,0.06141426,-0.04658386,-0.44813534,-0.13562619,0.77744181,-0.05425341,-0.62657005,-0.00712515
1755645748486,-0.57009419,0.58192826,-0.13102586,-0.03313082,-0.43597349,-0.13780699,0.77539373,-0.05444391,-0.62907690,-0.00791754
1755645748497,0.96590043,-0.68833998,0.30280454,-0.05486595,-0.44785168,-0.06156975,0.77340102,-0.05474019,-0.63149530,-0.00825001
1755645748508,-0.10909225,0.01041451,-0.48555228,-0.18094285,-0.41722079,-0.02915319,0.77146648,-0.05572633,-0.63376915,-0.00840890
1755645748519,-0.03988029,-0.81152522,-0.25958684,-0.17180604,-0.36432624,0.00330753,0.76974718,-0.05667126,-0.63577294,-0.00839071
1755645748530,0.39029034,0.47145066,-0.29131429,-0.11542629,-0.35854076,-0.05829812,0.76804815,-0.05731187,-0.63776285,-0.00871426
1755645748541,-0.47046114,0.91963663,0.56116702,0.01391886,-0.36296613,-0.07975271,0.76637155,-0.05723462,-0.63977731,-0.00915689
1755645748552,0.84172090,0.68193643,0.42915699,0.01851340,-0.39387817,-0.02688604,0.76456369,-0.05713280,-0.64194364,-0.00930476
1755645748563,0.22789515,0.45650177,0.61361894,0.02482584,-0.41274767,-0.00606606,0.76267904,-0.05699750,-0.64419311,-0.00933782
1755645748575,-1.00684841,-0.50258385,-0.07986782,0.04871805,-0.37088894,0.01029753,0.76080088,-0.05670276,-0.64643699,-0.00927552
1755645748586,0.85257155,-1.27182033,-0.20366221,0.00892614,-0.43855787,-0.01021272,0.75878522,-0.05665455,-0.64880520,-0.00933067
1755645748597,-0.88816432,-0.63354452,0.07786779,-0.03728422,-0.40236892,-0.11961315,0.75681100,-0.05686521,-0.65107859,-0.01000649
1755645748608,0.17497939,-0.76189510,0.69131255,-0.11136046,-0.42234410,-0.16193128,0.75472887,-0.05748326,-0.65342260,-0.01090521
1755645748619,-0.08504235,-0.20056379,0.32481447,-0.19358289,-0.45079635,-0.21958652,0.75247459,-0.05854797,-0.65590198,-0.01211293
1755645748631,0.02915731,-0.39362760,-0.00072834,-0.13297243,-0.45305513,-0.18846373,0.75007639,-0.05932586,-0.65855235,-0.01321544
1755645748642,-0.18484940,0.12610247,0.54591993,-0.14516447,-0.50251174,-0.22218113,0.74760044,-0.06010974,-0.66126591,-0.01441522
1755645748664,-1.67359058,1.01560375,-0.66400646,-0.02632313,-0.25048594,-0.16199398,0.74500262,-0.06040983,-0.66412145,-0.01626195
1755645748674,8.81429827,-3.13655326,7.93816751,-0.05671911,-0.95374474,-0.65464656,0.74062178,-0.06069342,-0.66889018,-0.01953519
1755645748676,178.20809122,-74.88343953,186.12158747,-0.48049864,-3.71442421,-1.82057432,0.73768172,-0.06110185,-0.67204744,-0.02108267
1755645748686,-35.24500938,14.38630522,-34.93080958,-0.10941491,-0.60550030,-0.18330463,0.73481108,-0.06165439,-0.67510521,-0.02200836
1755645748697,1.32324903,0.16754634,0.86698315,-0.19589526,-0.70077609,-0.19185548,0.73116076,-0.06272202,-0.67892444,-0.02305398
1755645748708,-0.56926453,-0.29673415,-0.47005948,-0.13635635,-0.58234270,-0.16053719,0.72805197,-0.06347880,-0.68215645,-0.02394496
1755645748719,0.60276835,0.31325143,-0.49709209,-0.09584025,-0.58776755,-0.22437134,0.72497853,-0.06399634,-0.68533039,-0.02515656
1755645748731,-0.88178323,0.47626101,0.17433599,-0.08471050,-0.53949270,-0.22100363,0.72186522,-0.06449613,-0.68851340,-0.02646048
1755645748741,1.47262638,0.05113821,2.16538336,-0.15919097,-0.65053942,-0.26003652,0.71849766,-0.06532392,-0.69189620,-0.02781267
1755645748752,-0.10442789,-1.49559434,0.16836594,-0.13788588,-0.68182055,-0.15929484,0.71489971,-0.06605472,-0.69550985,-0.02865694
1755645748763,-0.87925833,0.99982821,-0.35637357,-0.15560448,-0.61301566,-0.21260251,0.71131954,-0.06694944,-0.69903469,-0.02987940
1755645748775,0.19591861,1.20698964,1.07308534,-0.10937456,-0.63885629,-0.19556501,0.70764801,-0.06756741,-0.70264423,-0.03098434
1755645748786,0.46054826,1.18872264,1.32886141,0.01873927,-0.70554274,-0.09375108,0.70358299,-0.06745966,-0.70670110,-0.03152341
1755645748797,0.74878357,-0.22654910,1.41918886,0.08351636,-0.83289705,-0.03487058,0.69894505,-0.06699614,-0.71132368,-0.03171694
1755645748884,-0.96452153,0.01714227,-1.31729679,0.01084699,-0.11520530,-0.00639065,0.69387611,-0.06652755,-0.71630055,-0.03199302
1755645748916,6.92027147,-0.47787263,15.31083310,0.35672120,-3.00887919,-0.24162024,0.64063548,-0.06080218,-0.76459306,-0.03587102
1755645748930,-3.42682140,1.26436146,11.26295337,0.51331972,-3.77447333,0.05917915,0.60711116,-0.05710628,-0.79176927,-0.03544493
1755645748977,-3.00220488,0.82783614,-9.10419803,0.49024581,-1.29711504,0.17338230,0.56697748,-0.04573257,-0.82186234,-0.03142246
1755645749023,-0.80239401,-0.13855930,-1.05294076,0.32841854,-1.01316038,0.37224120,0.53241453,-0.03812968,-0.84531700,-0.02280508
1755645749032,-12.69899197,14.07470685,108.96375335,1.43306101,-5.48690336,1.02000450,0.49120205,-0.03160926,-0.87028241,-0.01816406
1755645749065,2.25214699,-3.87743090,-28.59493635,0.30523942,-1.06794088,0.27159050,0.45895590,-0.02655754,-0.88795683,-0.01366924
1755645749089,-1.86955589,0.74897175,4.26402871,0.50650841,-1.36300956,0.30545541,0.42668995,-0.02055542,-0.90410849,-0.01004959
1755645749098,-17.79920739,3.32757605,53.68759678,0.88628486,-3.28741166,0.49294350,0.39138288,-0.01625694,-0.92005244,-0.00765881
1755645749121,5.83927550,-2.94568840,-22.90201109,0.27997307,-1.26015549,0.19508244,0.35639047,-0.01310724,-0.93422919,-0.00546414
1755645749145,1.97777112,-0.51097136,-6.65212425,0.18105610,-0.63984011,0.04339251,0.33539013,-0.01090741,-0.94200325,-0.00493692
1755645749155,-10.73948511,1.45847319,27.50314374,0.44055265,-1.45303318,-0.09205301,0.31517437,-0.00879276,-0.94897781,-0.00537877
1755645749186,3.65388655,-0.36690308,-9.18914702,0.10932004,-0.48915551,-0.05114166,0.29098333,-0.00707097,-0.95668200,-0.00618425
1755645749210,-1.26197703,0.12193536,5.36726093,0.23968761,-0.74540907,0.06245071,0.26080714,-0.00427860,-0.96536602,-0.00545670
1755645749211,-368.96905589,28.20494587,1709.08770573,2.86783552,-6.69766992,1.00368515,0.23878810,-0.00184094,-0.97105904,-0.00460357
1755645749287,9.26860391,-0.79241328,-41.23598967,0.02880661,-0.09817192,-0.00975414,0.22304801,-0.00074485,-0.97479448,-0.00497472
1755645749299,9.97234830,-7.33910369,83.18811348,0.42524622,-1.10877897,-0.51900509,0.19354019,0.00165779,-0.98105908,-0.00790709
1755645749332,-0.80575066,1.55039931,-25.23603716,0.15723509,-0.10153835,-0.10334043,0.18475021,0.00424431,-0.98272939,-0.00960704
1755645749378,-0.13688630,0.43352686,-1.72553299,0.07881630,-0.03851384,-0.00489079,0.17987385,0.00607284,-0.98362291,-0.00972051
1755645749398,7.92384736,-0.88114607,5.65202215,0.01499327,-0.08037786,-0.23886965,0.17524420,0.00622353,-0.98443071,-0.01212115
1755645749432,-3.69735280,0.77027162,-3.74625783,0.01687700,-0.02933421,0.18481842,0.17256926,0.00651381,-0.98493526,-0.00894227
1755645749442,24.43095279,-7.67917134,9.24931016,0.07143583,-0.10032684,0.50122873,0.16978075,0.00687099,-0.98543689,-0.00643613
1755645749466,-7.51730126,1.56599593,-4.85246776,-0.03102062,-0.03140475,-0.11191694,0.16754603,0.00650029,-0.98581218,-0.00777354
1755645749488,-2.47012317,1.60649656,-1.03984846,0.02741122,-0.01409975,-0.09151228,0.16656884,0.00680182,-0.98596727,-0.00878017
1755645749500,10.19198199,1.01800077,1.75953349,0.07751872,-0.03344082,0.10568345,0.16545859,0.00723980,-0.98615621,-0.00818306
1755645749510,4.39175328,0.66914986,-0.44721336,0.04600558,-0.03737163,0.22848239,0.16437279,0.00747213,-0.98634494,-0.00702923
1755645749521,-2.27059547,-1.59562378,-2.40849779,-0.04971409,-0.01999151,0.11077652,0.16373182,0.00719124,-0.98645789,-0.00640334
1755645749533,-1.92119135,1.01170623,-1.50201821,-0.04503241,-0.00908114,-0.13884125,0.16337124,0.00691429,-0.98651374,-0.00725721
1755645749544,3.40617331,0.12272024,-1.35986447,-0.02475545,0.00416602,-0.13497923,0.16347473,0.00678556,-0.98649208,-0.00795910
1755645749566,-6.17390174,-0.24259381,0.38212608,-0.00810544,0.00455524,-0.01868685,0.16376769,0.00669721,-0.98644243,-0.00816279
1755645749567,1823.13765346,41.86166217,-201.89855341,-0.11933119,0.05721894,0.46896406,0.16408383,0.00659578,-0.98639379,-0.00776417
1755645749600,-95.08060425,-2.11815002,10.34667579,0.03897286,0.00962697,0.08179961,0.16505511,0.00723104,-0.98623687,-0.00643084
1755645749610,67.56133828,-2.74405158,-11.62511439,0.16165527,0.03718920,0.48567519,0.16620145,0.00803932,-0.98605093,-0.00400246
1755645749622,-32.28507711,-0.35376034,3.78434331,0.09024605,0.02220365,0.09160026,0.16698166,0.00858531,-0.98591659,-0.00344828
1755645749634,8.08461106,-1.92502911,-2.12332933,-0.00175881,0.04189022,0.04602224,0.16850180,0.00857449,-0.98565897,-0.00316524
1755645749644,7.67391366,-0.03699698,-3.01774450,-0.27247109,0.05447785,0.14324476,0.17003077,0.00732112,-0.98540837,-0.00250632
1755645749655,-12.47821548,0.89485839,2.87905082,-0.15536690,0.02664358,0.37382798,0.17097019,0.00642776,-0.98525517,-0.00035681
1755645749667,-3.38224865,-0.81614452,1.27343740,0.07467997,0.00732182,0.40762584,0.17119338,0.00687584,-0.98521124,0.00208895
1755645749679,4.06531088,-0.87102517,-1.30344850,0.13475461,-0.00276429,0.27845602,0.17103774,0.00767089,-0.98522755,0.00373184
1755645749688,9.23580429,-3.97174432,-3.85773304,-0.00907251,-0.00711271,0.11386595,0.17082793,0.00762689,-0.98526204,0.00428409
1755645749712,-13.17870317,1.80019485,3.41635751,-0.02802539,0.00465323,-0.02671025,0.17115918,0.00730320,-0.98520830,0.00397559
1755645749722,45.20522142,-10.89010929,-13.55458312,-0.01938196,0.03953271,-0.53134420,0.17238410,0.00720241,-0.98500273,0.00121260
1755645749724,1233.47376094,-313.44693703,-341.09499651,-0.36159090,0.19424902,-1.59163825,0.17334158,0.00689506,-0.98483762,-0.00014030
1755645749734,-230.64913286,59.45623207,64.99307761,-0.12906978,0.01768381,-0.12242043,0.17387123,0.00624326,-0.98474831,-0.00075852
1755645749745,-0.74753137,-0.64140010,0.62837678,-0.10333324,0.00910421,0.03921286,0.17417758,0.00566976,-0.98469779,-0.00054089
1755645749755,16.96665596,-4.81302072,-4.72925327,-0.04855205,-0.00127105,0.06305495,0.17414952,0.00542214,-0.98470427,-0.00021931
1755645749767,-8.01631472,2.06202355,1.60562002,-0.00412317,-0.01459882,-0.06937484,0.17365740,0.00539761,-0.98479113,-0.00063209
1755645749778,0.92551335,-1.01570004,-1.94316198,-0.05170686,-0.01252333,-0.09618918,0.17325466,0.00510030,-0.98486314,-0.00118518
1755645749791,-1.47223653,-0.86540113,0.15016339,-0.03508450,-0.01180664,-0.03239318,0.17285613,0.00488979,-0.98493398,-0.00137954
1755645749801,7.44824207,-0.86598080,-3.43785898,0.12277037,-0.02578277,-0.05712998,0.17205327,0.00554047,-0.98507063,-0.00168232
1755645749812,-2.53052483,3.08640911,0.67892950,0.09834545,-0.03810338,-0.09981155,0.17080192,0.00609121,-0.98528401,-0.00224127
1755645749822,15.49417198,-2.88911202,-5.80151339,-0.01704578,-0.06902965,-0.01887203,0.16896160,0.00601280,-0.98560154,-0.00232808
1755645749833,-12.00012243,3.35106647,3.09640321,-0.09269885,-0.05150733,-0.00721961,0.16722748,0.00547514,-0.98590029,-0.00236995
1755645749844,7.20890158,-0.68568097,-3.50116283,-0.09628385,-0.04691005,-0.02379327,0.16576926,0.00496484,-0.98614891,-0.00249606
1755645749867,-15.26016761,3.10861324,5.59471392,-0.02372616,-0.01388286,0.03419197,0.16480557,0.00468487,-0.98631273,-0.00209259
1755645749878,50.54761088,-6.05728132,-21.24386686,0.06330421,-0.04483635,-0.01070744,0.16331176,0.00503304,-0.98655933,-0.00215148
1755645749889,-21.21108754,10.56314481,8.92408926,0.09423864,-0.04112442,-0.32836305,0.16192774,0.00553722,-0.98677934,-0.00390823
1755645749890,2547.99588076,233.64847447,-1039.69118430,0.87517888,-0.29773036,-2.18514027,0.16048880,0.00619360,-0.98700264,-0.00554708
1755645749901,-372.64864366,-30.04304822,153.78316723,0.10426982,-0.02380247,0.10915821,0.15972990,0.00673059,-0.98712522,-0.00498492
1755645749912,14.91846079,-0.69444218,-5.53028566,0.00480597,-0.00342291,0.55889260,0.15967879,0.00675703,-0.98714405,-0.00191101
1755645749923,2.79664344,2.87226606,-2.53934185,-0.09006613,0.02556521,0.48583491,0.16056735,0.00626617,-0.98700472,0.00073679
1755645749934,-6.51253886,5.70496503,1.46972985,0.06765155,0.06437372,0.31099370,0.16277386,0.00665178,-0.98663779,0.00250946
1755645749946,-2.62901853,1.32114812,1.05819220,0.15706950,0.06398528,0.38069318,0.16495641,0.00757849,-0.98626028,0.00475555
1755645749957,4.59780068,1.35291291,-2.22919547,0.02518041,0.05659297,0.36451905,0.16671524,0.00771572,-0.98595184,0.00674218
1755645749967,2.11585887,2.27892629,-1.74259980,-0.11006267,0.05508529,0.12079029,0.16841552,0.00713789,-0.98566265,0.00737632
1755645749979,-5.42408033,0.63395619,1.91097581,-0.08435531,0.05712696,-0.06948225,0.17034644,0.00665707,-0.98533702,0.00698028
1755645749990,-0.61495396,2.37377628,0.39930150,-0.04174365,0.05850203,-0.09492238,0.17231124,0.00641704,-0.98500064,0.00643447
1755645750000,9.74201844,6.37116574,-4.51743361,0.00440754,0.07669052,0.09093925,0.17444940,0.00643886,-0.98462102,0.00688462
1755645750013,-16.13602594,-3.43577355,7.66632132,0.07774416,0.04506288,0.17310444,0.17605192,0.00695197,-0.98432360,0.00802711
1755645750034,-10.40951458,-3.78218981,4.36165337,0.14362746,0.02088883,0.25693025,0.17703736,0.00841697,-0.98411054,0.01064780
1755645750044,50.14128798,18.36641811,-22.57632247,0.55332338,0.02721153,0.85560804,0.17733994,0.01129425,-0.98396904,0.01509696
1755645750046,2161.69145878,647.23588461,-1030.43694780,2.38473619,0.09508221,5.29968359,0.17722972,0.01308280,-0.98389773,0.01907172
1755645750057,-323.48914416,-102.06302007,152.20694634,0.29483425,0.01717039,0.53282038,0.17728726,0.01470439,-0.98380329,0.02200224
1755645750067,21.75874331,3.65674496,-10.20171426,0.52231945,0.03758412,0.64824044,0.17766185,0.01731599,-0.98361537,0.02524344
1755645750079,-14.02345630,-4.98685103,6.73736960,0.43139059,0.03045588,0.35065133,0.17810031,0.01996904,-0.98342806,0.02739994
1755645750090,4.60590956,-0.79983179,-0.74867683,0.38335163,0.06185641,0.39921612,0.17941894,0.02215415,-0.98307548,0.02967548
1755645750101,4.63290453,-0.37801570,-1.69290790,0.25181994,0.06825826,0.39186712,0.18089655,0.02351397,-0.98270689,0.03179156
1755645750112,-0.85596783,-1.37804397,0.69490107,0.21939941,0.08062031,0.21492852,0.18293921,0.02473164,-0.98225945,0.03298441
1755645750122,8.07831004,-1.10754196,-2.13627130,0.20172238,0.11573042,0.10574036,0.18584430,0.02576043,-0.98166922,0.03352369
1755645750135,-11.75633812,-4.21857824,4.77289893,-0.06985321,0.12221786,0.00204129,0.18995527,0.02531686,-0.98089314,0.03353665
1755645750146,12.31728413,-0.11192889,-4.13086137,-0.33347813,0.18752139,-0.23366903,0.19565101,0.02348273,-0.97986177,0.03225147
1755645750156,11.19902615,-2.41137003,-2.54206117,-0.52695060,0.30529415,-0.38301135,0.20364915,0.02087432,-0.97835056,0.03035556
1755645750167,-9.60294275,-1.62708222,4.41938390,-0.53300018,0.34644738,-0.46284093,0.21355067,0.01783622,-0.97637581,0.02771737
1755645750179,-0.61381734,-0.31569330,-0.50237664,-0.28963967,0.39268378,-0.37237546,0.22400606,0.01617079,-0.97411788,0.02557621
1755645750212,-15.63886696,-0.29015457,6.19563097,-0.07285662,0.13836182,-0.09592640,0.23393027,0.01497230,-0.97184183,0.02399822
1755645750223,124.30428339,5.52590377,-43.63815223,-0.84435260,0.88324809,-0.26619866,0.25448350,0.01011727,-0.96676315,0.02246758
1755645750235,-82.07593388,-6.52969447,29.01405378,-0.29559550,0.43718166,-0.18386881,0.26399605,0.00841760,-0.96424936,0.02141033
1755645750246,-0.82508378,0.81317475,1.25933618,-0.22854012,0.50328868,-0.41696876,0.27420135,0.00714920,-0.96145611,0.01909616
1755645750256,8.55181535,0.83876715,-3.24424680,-0.23354847,0.56653679,-0.09086528,0.28361831,0.00602817,-0.95873673,0.01866000
1755645750269,-13.77872505,0.37991755,5.60429901,-0.14749604,0.43423231,0.12145912,0.29316899,0.00504732,-0.95584909,0.01946771
1755645750292,-10.72335634,-0.59670595,3.43650668,-0.06828184,0.27662634,0.20233449,0.30307245,0.00427232,-0.95270938,0.02176420
1755645750302,136.35106286,-2.06396968,-46.67338821,-0.43812109,1.37506064,0.67677188,0.32366827,0.00208172,-0.94583407,0.02514806
1755645750312,-76.58609178,-3.67621717,24.62918532,-0.11992993,0.90591169,0.08337119,0.33696478,0.00146408,-0.94116863,0.02557742
1755645750323,-11.90690266,-0.24643923,4.82884371,-0.08774442,0.84318460,-0.09574182,0.35025276,0.00095955,-0.93632032,0.02502691
1755645750334,0.25297348,-0.66386836,0.19846561,-0.13711425,0.92461627,-0.04573201,0.36322028,0.00022599,-0.93137362,0.02478224
1755645750347,-9.14630268,0.32881965,3.04497766,-0.18836148,0.87065916,0.08368734,0.37705363,-0.00097011,-0.92584493,0.02531366
1755645750368,-12.45326748,1.05084145,4.16215475,-0.13435092,0.57174112,0.04884682,0.39183316,-0.00242110,-0.91967013,0.02584120
1755645750417,-1.87487756,0.04250291,0.68612033,0.00612413,0.48921552,0.03306830,0.41890608,-0.00227045,-0.90763543,0.02665468
1755645750445,53.15012951,-5.38078648,-15.00338615,0.20109707,2.50478572,-0.25731911,0.48772275,0.00053486,-0.87269367,0.02306508
1755645750496,-23.49660346,1.97909538,7.42808414,-0.16839014,0.98614338,0.02093454,0.52994585,-0.00373383,-0.84769493,0.02359577
1755645750513,84.59461787,-13.04568523,-15.66808416,-0.39030132,3.14925027,-0.37385491,0.57153219,-0.00712945,-0.82029645,0.02034324
1755645750547,-33.14600091,4.89570440,8.20686783,-0.20186956,1.30759445,-0.06039806,0.60181952,-0.01052086,-0.79832887,0.01932855
1755645750581,-8.46066292,1.41368187,1.78977524,-0.09693779,0.90514079,0.05741655,0.62170163,-0.01217365,-0.78289622,0.02030750
1755645750592,132.29463597,-17.58491970,-17.56291211,-0.50372700,2.72794477,-0.19464716,0.63913410,-0.01479303,-0.76871090,0.01929533
1755645750613,-49.69366733,10.39732674,7.76814774,-0.27818902,1.30488843,0.02103703,0.65540811,-0.01775574,-0.75481384,0.01951938
1755645750635,-20.18858293,3.61372366,2.44674511,-0.16426558,0.74888915,0.20765885,0.66482073,-0.01959552,-0.74642628,0.02184516
1755645750646,56.06470095,5.93023656,-8.32180292,-0.18549167,1.60316405,0.58639411,0.67418866,-0.02058790,-0.73784936,0.02498237
1755645750657,-7.26245631,4.45678306,-0.22722839,0.00958165,1.59359852,0.34594889,0.68350268,-0.02053568,-0.72916424,0.02686779
1755645750668,17.21332946,5.59865499,-0.02800419,0.11010708,1.84499819,0.35260072,0.69429931,-0.01991908,-0.71883225,0.02884235
1755645750680,-24.37164198,-2.20075266,3.69737394,0.40484513,1.40036576,0.68673392,0.70263845,-0.01753049,-0.71057010,0.03289408
1755645750691,-2.56763577,0.90132749,-1.58573130,0.42497067,1.41115307,0.73489188,0.71046183,-0.01512941,-0.70259708,0.03704622
1755645750713,-23.68884613,-3.46832261,2.10059023,0.07160800,0.71870146,0.30023340,0.71799817,-0.01434530,-0.69472730,0.04033378
1755645750723,74.23206120,19.83599119,-17.51602371,0.02645044,2.13236174,0.56949266,0.72819957,-0.01421040,-0.68385226,0.04323819
1755645750726,1153.06832125,339.28574892,-255.50891424,0.22390754,6.99503902,1.01807405,0.73528777,-0.01396411,-0.67615771,0.04435807
1755645750749,-146.84155281,-41.21121017,32.25639915,0.02934475,0.65417099,0.12550259,0.74211221,-0.01362371,-0.66856933,0.04581390
1755645750758,88.99389350,24.16344966,-20.39864060,0.45506210,2.36480138,0.94058711,0.75193104,-0.01143941,-0.65721828,0.05032872
1755645750780,-38.69555870,-10.70842106,8.32671369,0.17531479,0.78428712,0.36635798,0.75900463,-0.00954601,-0.64874798,0.05428539
1755645750781,6796.08222879,1709.58115731,-1918.36886936,4.84501514,23.39696310,10.92740159,0.77307659,-0.00591225,-0.63120026,0.06248094
1755645750814,-317.83984912,-80.51991553,89.04685009,0.18572255,0.62058028,0.22870695,0.78088896,-0.00290354,-0.62114686,0.06618599
1755645750824,118.07661492,23.28833887,-35.97990350,1.18788858,3.44654281,1.27146696,0.79448471,0.00339227,-0.60288018,0.07292476
1755645750836,-39.30123713,-9.03689780,6.18952526,0.53933150,2.58854369,1.43805388,0.80510026,0.00660129,-0.58747835,0.08148118
1755645750858,-27.48956028,-5.19943468,8.93500451,0.16039923,1.26793305,0.66777530,0.81435163,0.00837370,-0.57346769,0.08886010
1755645750869,33.74519197,5.28175112,-15.09074630,0.32531062,2.38866502,0.95702978,0.82253839,0.01009785,-0.56080776,0.09393236
1755645750891,-19.38015407,-3.82531282,9.39798784,0.23573037,1.02389215,0.45456304,0.82942672,0.01266731,-0.54964734,0.09888710
1755645750892,5136.63810469,621.46066043,-1986.90067012,6.22665707,19.70456994,12.01566307,0.83838211,0.01764863,-0.53388368,0.10849963
1755645750913,-396.84969071,-49.69217367,153.18924641,0.27047227,0.84943789,0.50017298,0.84314861,0.02043450,-0.52513447,0.11365141
1755645750923,35.34409028,0.49125801,-14.67487187,0.34060099,1.56072782,0.48592485,0.84758712,0.02213750,-0.51733083,0.11608103
1755645750937,-18.26353219,-1.02197637,8.27069185,0.15685281,0.99346424,0.08923368,0.85167813,0.02323547,-0.51037658,0.11670567
1755645750946,28.39220474,0.50243457,-10.66912629,0.15202328,1.27098193,0.16139000,0.85496125,0.02391958,-0.50465716,0.11743192
1755645750959,-18.87173411,-1.02757463,6.74648456,0.13138518,0.84360934,0.20961133,0.85803126,0.02479329,-0.49904716,0.11882584
1755645750968,34.62837874,-0.06554008,-17.39387681,0.01543160,1.48276651,0.51755561,0.86151250,0.02486196,-0.49244885,0.12112896
1755645750980,-18.92394032,-0.32969916,6.19823498,-0.00371267,1.28377976,0.36108240,0.86536436,0.02484080,-0.48513131,0.12318713
1755645750992,-4.25517942,-0.33995996,-0.11621855,0.05589165,1.37223428,0.31485664,0.86968491,0.02517894,-0.47682929,0.12509201
1755645751003,10.67753858,-0.31249301,-7.12321366,0.13737874,1.87274570,0.33800300,0.87519983,0.02596887,-0.46606100,0.12703553
1755645751015,-4.93062241,-0.79908533,2.06599389,0.21876364,1.73323514,0.27995551,0.88016279,0.02722676,-0.45609490,0.12864528
1755645751024,14.03358806,-3.48301317,-8.60316917,0.33539457,2.21562436,0.44174233,0.88517925,0.02881989,-0.44557068,0.13074355
1755645751026,1322.77137355,-112.66689552,-863.53954516,1.00916500,10.93928038,2.00767299,0.89027124,0.02982905,-0.43463140,0.13275122
1755645751047,-152.30682643,11.79852023,95.44021442,0.14062819,1.22195886,0.10911076,0.89600667,0.03125643,-0.42222852,0.13385870
1755645751061,12.39183283,-1.88017288,-10.56133783,0.28275703,2.29677688,0.00753161,0.90338068,0.03324986,-0.40603624,0.13391180
1755645751070,34.29268286,-6.41422249,-26.05623297,0.41070629,4.20147924,-0.01836576,0.91193952,0.03518018,-0.38628929,0.13382548
1755645751081,-26.08447572,4.56128604,21.06648094,0.22886233,2.78036659,-0.05115928,0.91803425,0.03639315,-0.37155335,0.13355433
1755645751091,11.97832284,-2.11512906,-7.98751828,0.56308120,3.26174039,-0.04697415,0.92444800,0.03923671,-0.35508156,0.13331711
1755645751102,-5.81775074,0.66985726,5.21656209,0.72870634,2.91319010,-0.09369562,0.93054806,0.04339034,-0.33847638,0.13278305
1755645751104,1579.73772862,-238.06084106,-1056.72485784,5.12803754,16.96741280,-1.23938924,0.93618187,0.04826198,-0.32235733,0.13160563
1755645751114,-294.59483635,42.05864913,201.22483125,1.06982365,3.14138951,-0.42864542,0.94134928,0.05350411,-0.30696453,0.12950527
1755645751125,-12.31676840,1.68389902,8.90101465,0.75966028,2.38400476,-0.47644595,0.94574770,0.05779619,-0.29349490,0.12681335
1755645751136,10.48601097,-2.77414366,-4.51854461,0.71396000,2.57113430,-0.62193010,0.95034265,0.06183007,-0.27896799,0.12329944
1755645751159,-14.81057296,2.81923975,9.05983267,0.28321152,1.16243445,-0.35065768,0.95435649,0.06500203,-0.26594872,0.11937208
1755645751160,3434.36519738,-799.24805100,-1780.15326329,4.13493052,16.04950352,-5.87932654,0.95841810,0.06851673,-0.25230665,0.11437465
1755645751170,-588.00728851,134.30075769,308.98738025,0.22506924,1.24114034,-0.52639801,0.96015028,0.06957455,-0.24647329,0.11190058
1755645751180,2.09184885,-0.79794232,-0.91423014,0.11451105,1.25157717,-0.48238881,0.96207862,0.07018146,-0.23983993,0.10934392
1755645751203,-12.15183531,2.88858850,6.41501158,-0.05462240,0.59328640,-0.27891215,0.96408663,0.06957515,-0.23325445,0.10624799
1755645751214,49.90322812,-15.16505482,-22.35573285,-0.35505563,0.91004326,-0.53531475,0.96575698,0.06760459,-0.22820371,0.10327700
1755645751226,-25.14473720,8.31732467,10.54607199,-0.21301368,0.58678096,-0.33723272,0.96686608,0.06634781,-0.22474170,0.10128732
1755645751249,-12.94602623,3.94945387,5.89502114,-0.08480040,0.29643220,-0.14227906,0.96788396,0.06537685,-0.22134755,0.09965823
1755645751259,130.24757758,-28.24331353,-58.41128377,-0.03707572,0.84971056,-0.06201758,0.96895980,0.06517849,-0.21680160,0.09932643
1755645751269,-78.50458577,17.78252080,35.99763257,0.11864439,0.23320709,0.12552115,0.96911690,0.06577765,-0.21562390,0.09996031
1755645751281,-14.40904876,3.52185260,6.46782642,0.07105593,0.12324233,-0.09205489,0.96930572,0.06619688,-0.21489678,0.09941719
1755645751292,1.23351791,1.52059124,0.52863179,-0.13729153,0.03548072,-0.15559222,0.96948926,0.06543491,-0.21469986,0.09855365
1755645751303,3.65132013,3.03917516,-1.41822781,-0.33934741,-0.06562916,-0.03633910,0.96955315,0.06358546,-0.21505754,0.09835561
1755645751315,0.06960798,9.05045498,-0.11022358,-0.80406865,-0.14719324,0.10160079,0.96959894,0.05880126,-0.21593334,0.09896013
1755645751326,6.52018833,4.11737801,-2.71145625,-0.54008078,-0.15207422,0.38995358,0.96936442,0.05580381,-0.21677735,0.10112437
1755645751336,8.01924082,-0.65872907,-5.42103085,0.33599051,-0.13088030,0.39309787,0.96889888,0.05753416,-0.21745138,0.10314883
1755645751349,-12.06933752,3.29348188,6.87204196,0.30758635,-0.16370590,0.14572100,0.96846945,0.05939506,-0.21844180,0.10403044
1755645751359,16.96009865,11.33568151,-2.18236292,0.20708999,-0.44326340,0.00205131,0.96786170,0.06050299,-0.22081326,0.10404141
1755645751370,-4.64434966,3.42048076,3.48441677,0.01819991,-0.59096840,0.33590040,0.96695131,0.06059854,-0.22391585,0.10580489
1755645751372,3201.86134453,665.42020508,-1105.60851141,1.36429005,-4.40403561,3.21186920,0.96570044,0.06175818,-0.22765928,0.10853498
1755645751382,-513.72880509,-105.91235997,179.08853542,0.31482814,-0.59697785,0.01427607,0.96483232,0.06342677,-0.23082326,0.10861064
1755645751392,-5.84426946,-4.32072853,4.67509731,0.37821802,-0.59483022,-0.17566415,0.96405064,0.06541242,-0.23394612,0.10768841
1755645751404,8.22661939,-0.41111239,1.49923928,0.23740902,-0.88724263,-0.26705232,0.96290621,0.06674191,-0.23891468,0.10619291
1755645751416,-0.46973178,-2.63005464,4.93309341,0.01325400,-1.31354848,-0.40029392,0.96120275,0.06682011,-0.24666461,0.10383118
1755645751437,-22.13535111,-3.83480702,5.66743161,-0.08394407,-0.99068318,-0.31861350,0.95884539,0.06592191,-0.25726492,0.10042201
1755645751438,6506.36751208,577.07446882,-756.76978439,-4.41404054,-23.05834157,-5.13847435,0.95465802,0.06261137,-0.27455868,0.09656816
1755645751448,-1013.47942732,-92.08039698,124.46741826,-0.75761636,-2.53873988,-0.09840575,0.95149059,0.05912634,-0.28623688,0.09611549
1755645751458,7.72719011,0.22099496,-1.07355352,-0.88893123,-2.71130931,0.11068799,0.94731249,0.05445945,-0.30047125,0.09669660
1755645751471,-7.80146559,1.78138145,0.43430746,-0.81383565,-2.36363269,-0.04977067,0.94277429,0.04933229,-0.31536214,0.09638305
1755645751492,-20.11222399,-1.18832599,2.06288954,-0.35365876,-1.25307993,-0.08809213,0.93842911,0.04551277,-0.32889540,0.09543165
1755645751504,68.20387897,11.88104419,-5.19644732,0.00960296,-2.94854962,-0.12449025,0.93249243,0.04556703,-0.34555471,0.09472828
1755645751505,2989.10731980,521.48378754,-123.41083566,1.50400895,-14.68409293,0.59686083,0.92765606,0.04684544,-0.35803619,0.09523562
1755645751515,-551.09007298,-98.57517830,27.76425068,0.03331460,-2.40945701,0.29157872,0.92290561,0.04700701,-0.36972205,0.09664977
1755645751526,-4.74043767,-0.49118047,1.49661057,-0.36086215,-2.31230736,0.24825644,0.91741992,0.04493205,-0.38301782,0.09807725
1755645751537,12.43845831,-1.04753624,-0.92323969,-0.45648843,-2.45413741,0.11771414,0.91208785,0.04258114,-0.39565663,0.09868347
1755645751549,-15.42628647,-2.33232911,-0.22054362,-0.38023463,-1.91168541,-0.14939822,0.90722733,0.04029973,-0.40712674,0.09778709
1755645751571,-19.61908223,-1.97881534,0.60517111,-0.18045734,-0.91272208,-0.21086197,0.90289145,0.03826959,-0.41739487,0.09541489
1755645751582,80.74966302,6.23720367,-4.42148006,-0.24076144,-2.13292193,-0.60136892,0.89772885,0.03693336,-0.42923258,0.09207729
1755645751593,-46.63967537,-6.40665929,2.93515303,-0.30920275,-1.20350879,-0.21428898,0.89488859,0.03532551,-0.43549083,0.09096299
1755645751605,-1.11615578,-1.68435722,-0.46195627,-0.43328015,-1.06183707,-0.16112257,0.89185848,0.03263917,-0.44207422,0.08996403
1755645751616,4.63821886,-0.94562152,-1.30470125,-0.54016066,-0.94220328,-0.36330827,0.88967983,0.02980333,-0.44702079,0.08805666
1755645751617,2624.06890465,37.28938865,-187.98022336,-2.60941961,-5.06904889,-3.35752462,0.88785204,0.02758532,-0.45132948,0.08520276
1755645751627,-455.87302872,-9.71148763,33.66095831,-0.37925252,-0.95330016,-0.78398388,0.88594029,0.02578387,-0.45585765,0.08147884
1755645751639,-22.03513326,-1.08278707,0.81713692,-0.30077553,-0.78352242,-0.53386841,0.88393404,0.02405441,-0.46036291,0.07840910
1755645751649,30.03142726,-1.39962425,-2.02298502,-0.61404567,-0.96060383,-0.61447502,0.88167430,0.02086137,-0.46535805,0.07521383
1755645751660,-8.64063038,-2.70209614,-1.16863122,-0.51702149,-0.71025116,-0.50205407,0.87984691,0.01794020,-0.46937097,0.07237722
1755645751671,-2.78313106,-1.23928227,-1.76282927,-0.51982836,-0.46319618,-0.59322130,0.87879954,0.01508114,-0.47191854,0.06911450
1755645751693,-23.48299854,1.68469327,2.66496800,-0.24308932,-0.13644812,-0.30998829,0.87829549,0.01240716,-0.47341947,0.06570463
1755645751704,68.44003422,-6.76563867,-9.58295249,-0.35634303,-0.09557861,-0.74780092,0.87833527,0.01046509,-0.47394038,0.06162912
1755645751717,-36.69515017,3.22772702,4.39659525,-0.04621821,0.15815594,-0.47157642,0.87908474,0.01017161,-0.47293609,0.05863461
1755645751727,33.37286296,-4.12198361,-5.60296828,0.02371494,0.35564139,-0.69061564,0.88027263,0.01029137,-0.47114010,0.05514700
1755645751738,-31.64574028,1.68802929,5.95256336,0.04268574,0.19467406,-0.46287544,0.88099778,0.01052614,-0.47006939,0.05260118
1755645751750,8.94174520,-1.65582696,-0.11038167,-0.08144140,0.10100745,-0.54386654,0.88152379,0.01002935,-0.46945325,0.04928360
1755645751760,25.49784077,-5.61793579,-0.40389370,-0.11517005,-0.00937906,-0.53717879,0.88164754,0.00947077,-0.46949873,0.04667828
1755645751761,2954.70343176,-440.09269073,-251.61141993,-1.05936722,-0.40328683,-2.85004903,0.88159907,0.00857031,-0.46984153,0.04425574
1755645751771,-523.22304895,77.61553012,45.44490378,-0.17029858,-0.13250217,-0.44530324,0.88136973,0.00774436,-0.47048416,0.04209602
1755645751783,-18.56946029,2.71711062,2.01736823,-0.06705094,-0.08940341,-0.36324548,0.88119266,0.00735211,-0.47100717,0.03997103
1755645751794,20.64191589,-1.69029856,-1.20648427,-0.07042290,-0.24141250,-0.48600845,0.88059668,0.00696127,-0.47234701,0.03727369
1755645751803,23.82660420,-3.89197797,2.68737339,0.20163013,-0.42897471,-0.37056101,0.87957631,0.00790893,-0.47436319,0.03553205
1755645751817,-33.14477658,4.99278926,2.70601762,0.16301695,-0.48279353,-0.07465043,0.87779448,0.00902559,-0.47767033,0.03502069
1755645751839,-13.87575420,1.80035817,0.76210671,0.05223399,-0.39075640,0.01567252,0.87542875,0.00960017,-0.48196865,0.03519309
1755645751840,6671.95368295,-1027.24390801,124.32926833,0.11918568,-9.52180557,0.26926947,0.87144977,0.00968956,-0.48911000,0.03539504
1755645751860,-519.34777084,79.40200816,-9.04517139,-0.01922527,-0.35371465,-0.05160970,0.86952756,0.00950211,-0.49255872,0.03489185
1755645751861,5874.06488297,-926.48776847,254.42418868,0.22585108,-8.03638900,-2.96513103,0.86639615,0.00966021,-0.49818419,0.03281626
1755645751871,-803.66491301,128.86591545,-31.46268336,-0.07085803,-1.17330488,-0.41844506,0.86331144,0.00933072,-0.50364006,0.03087049
1755645751882,-7.19264338,2.19571053,1.62458543,-0.10760891,-1.25115832,-0.29602477,0.85932321,0.00873887,-0.51052143,0.02924235
1755645751894,4.27742562,-0.49682718,2.29564226,-0.14563943,-1.44867857,-0.18456340,0.85418878,0.00787231,-0.51914107,0.02814420
1755645751904,4.32813322,-1.08384013,1.41637433,-0.14700762,-1.60026898,-0.11405152,0.84895331,0.00708582,-0.52770251,0.02753402
1755645751916,-7.13992101,1.81040250,-0.17839167,-0.30249575,-1.45734876,-0.16321603,0.84372975,0.00534647,-0.53608226,0.02659553
1755645751927,2.69221155,-0.40767972,-0.28377694,-0.31021110,-1.44809278,-0.16116820,0.83851302,0.00359378,-0.54426399,0.02568493
1755645751938,4.10029137,0.14114977,2.24081531,-0.21704928,-1.43293434,-0.18960320,0.83342748,0.00241086,-0.55207348,0.02465159
1755645751950,-7.74283820,4.71795670,-1.15439322,-0.14167883,-1.27814122,-0.16035794,0.82828362,0.00155370,-0.55980624,0.02368143
1755645751961,11.05314623,0.34132727,2.72811041,0.02265948,-1.34696825,0.12916270,0.82320706,0.00167833,-0.56721456,0.02439182
1755645751983,-27.48118944,2.18960864,-3.76051122,0.05306807,-0.64022913,0.12056759,0.81826785,0.00226208,-0.57425708,0.02571807
1755645751994,103.71024933,7.53347039,16.73501820,-0.74985582,-1.73638296,-0.10529659,0.81175032,-0.00171216,-0.58345991,0.02515999
1755645752006,-67.30429657,-0.24958393,-11.16304796,-0.37758911,-0.82150150,0.04320035,0.80813855,-0.00399657,-0.58842999,0.02542136
1755645752016,32.44859823,-7.46062463,2.81215363,0.35974957,-1.14140414,0.41151985,0.80363421,-0.00208990,-0.59447944,0.02760241
1755645752053,-23.70792544,1.75514731,-3.03910284,-0.11101690,-0.33102838,-0.09732795,0.79920604,-0.00410485,-0.60048760,0.02583591
1755645752086,30.60430573,4.68029626,4.14799177,-0.10783744,-1.05181830,-0.06517955,0.78584854,-0.00588956,-0.61789519,0.02475719
1755645752106,20.71002492,-0.84270873,5.23922509,-0.00660498,-1.91020566,-0.16750665,0.77018239,-0.00595693,-0.63737929,0.02304862
1755645752116,52.48662311,2.23479409,1.51064114,-1.09418040,-2.60451763,-1.27534684,0.75943225,-0.01137313,-0.65027165,0.01673565
1755645752139,-59.85003128,-3.12610374,-8.48952100,-0.36347524,-1.00238083,-0.64840558,0.74968357,-0.01546222,-0.66154844,0.00944109
1755645752160,-17.57377571,-0.70059051,-1.22135504,-0.12174975,-0.68733920,-0.20761838,0.74315655,-0.01675886,-0.66886860,0.00722995
1755645752171,42.56447401,6.74720046,7.55940365,-0.13786681,-1.38476825,-0.05511677,0.73621563,-0.01751713,-0.67648483,0.00692681
1755645752183,-15.44172475,-3.76282865,-3.29401509,-0.17431692,-1.15483999,-0.08141957,0.72954960,-0.01859789,-0.68364483,0.00642201
1755645752195,-3.35099720,-1.26007614,-1.50349680,-0.16012292,-1.10681747,-0.14354043,0.72335703,-0.01954262,-0.69017506,0.00557512
1755645752205,8.60639536,0.49336313,0.18912391,-0.07459712,-1.22358115,-0.29206359,0.71752893,-0.01991187,-0.69623178,0.00412941
1755645752217,-17.78631700,-2.18574196,-1.32454766,-0.15439746,-0.93802780,-0.26354351,0.71200554,-0.02083826,-0.70185995,0.00254815
1755645752227,5.25214499,-0.16425812,0.73624081,-0.22633335,-1.06316343,-0.29662028,0.70648140,-0.02201519,-0.70738840,0.00100572
1755645752240,-6.46158936,-1.84775521,-0.53170294,-0.21711652,-0.91735632,-0.26210574,0.70036761,-0.02343730,-0.71339708,-0.00071107
1755645752261,-10.86686977,-1.54312551,-1.82918431,-0.19827510,-0.62157246,-0.17235194,0.69371003,-0.02547954,-0.71979928,-0.00248630
1755645752263,7702.76521273,385.58906979,1075.18497537,-5.64149420,-15.68913266,-5.16802216,0.68109309,-0.02971066,-0.73156613,-0.00636231
1755645752283,-557.24012244,-28.56449212,-77.92001466,-0.05347852,-0.63031795,-0.21091252,0.67396908,-0.03026416,-0.73808992,-0.00854526
1755645752294,34.73704681,2.45963706,5.68446999,-0.02451803,-1.13562654,-0.30493313,0.66709852,-0.03039778,-0.74427909,-0.01020714
1755645752305,-1.76168451,-0.96446697,-0.41566480,-0.03458393,-1.14126161,-0.08029623,0.65994756,-0.03058972,-0.75061309,-0.01065279
1755645752318,-5.84352981,-1.48515545,-1.60048828,-0.08019243,-1.00391958,-0.03031503,0.65289031,-0.03107890,-0.75673700,-0.01083771
1755645752328,8.86519158,-2.84934590,0.75534210,-0.11371060,-1.04403367,-0.12679101,0.64613255,-0.03170431,-0.76247918,-0.01153506
1755645752339,1.49624829,-2.43253698,-0.55286114,-0.11363805,-1.00420441,-0.16530240,0.63963098,-0.03231795,-0.76790189,-0.01242769
1755645752351,-3.30654564,-1.94702317,-1.03869820,-0.18799185,-0.88854305,-0.18987419,0.63347837,-0.03338011,-0.77292215,-0.01350048
1755645752374,-18.67136259,1.17957796,-2.54123864,-0.11831863,-0.38881196,-0.13305313,0.62765353,-0.03479401,-0.77756846,-0.01509047
1755645752409,5.19154964,-0.99252532,0.12642574,-0.23592480,-0.47725296,-0.28515578,0.61696426,-0.03885192,-0.78577721,-0.01999515
1755645752442,14.23947392,-3.70028841,-0.38976194,-0.68555402,-0.63477317,-0.76246570,0.60195545,-0.05019784,-0.79628270,-0.03261395
1755645752476,-4.51548450,-1.99092877,-1.08737832,-0.81242057,-0.32477624,-1.02579029,0.59212938,-0.06388713,-0.80175518,-0.04989852
1755645752497,24.70886431,-8.60239082,-1.98090663,-1.61071964,-0.25922878,-1.69347372,0.58455748,-0.08079968,-0.80447709,-0.06767999
1755645752560,-13.84680844,4.77378165,0.34060385,-0.34192990,-0.14385381,-0.34612400,0.57517163,-0.09169015,-0.80905883,-0.07870404
1755645752574,248.86083647,-85.50673552,-38.37977194,-4.31621546,-0.11759120,-4.28907376,0.56406196,-0.12039298,-0.80984081,-0.10722638
1755645752605,-85.77802950,31.10123546,10.44474955,-1.01240328,0.06323640,-1.01366000,0.55863155,-0.13618647,-0.80885432,-0.12303948
1755645752639,-7.40032725,2.25204304,0.92838721,-0.55611890,0.03761068,-0.75493699,0.55416654,-0.14566830,-0.80821306,-0.13591116
1755645752662,3.83876160,5.30471132,-0.98809283,-0.02200061,-0.05190802,-0.76000530,0.55106388,-0.14591691,-0.80879962,-0.14449922
1755645752674,9.02791220,6.47540088,0.22349279,-0.16646485,-0.09382238,-0.73542803,0.54875434,-0.14693234,-0.80937194,-0.14898533
1755645752695,-26.17713178,-0.64028841,4.90496737,-0.01895172,-0.07352274,-0.06815433,0.54735208,-0.14713323,-0.81015128,-0.14970776
1755645752706,42.75450295,-1.28694258,-9.20911920,-0.31000148,-0.01610648,-0.14728765,0.54656697,-0.14877624,-0.81023664,-0.15048839
1755645752718,-15.79211260,6.94381630,1.93822698,-0.49967133,0.07995971,-0.58584295,0.54541769,-0.15192417,-0.80973290,-0.15417920
1755645752739,-15.76986623,-0.20228636,3.52095404,-0.05044337,0.02441378,-0.32343367,0.54467934,-0.15245382,-0.80947655,-0.15757525
1755645752752,89.74726479,10.81150766,-15.10404826,0.42041126,-0.10168770,-0.19084082,0.54411233,-0.14980523,-0.81011719,-0.15877755
1755645752785,-37.65518275,-3.75947904,6.78825366,0.11902460,-0.04512597,0.15728425,0.54429505,-0.14779967,-0.81087756,-0.15612731
1755645752797,264.66215848,38.10542579,-40.78099857,0.40466441,-0.00708487,1.25698656,0.54681436,-0.14553355,-0.81091723,-0.14908818
1755645752850,-54.66598829,-7.67306305,8.64158743,0.10088716,-0.01086104,-0.01166443,0.54700912,-0.14284491,-0.81120668,-0.14939904
1755645752883,21.43822485,2.90957225,-2.95858249,0.20850057,-0.08722482,0.09931964,0.54620997,-0.13942550,-0.81263717,-0.14777020
1755645752893,144.18849491,26.55928298,-14.72918242,-0.05758454,0.08876847,-0.24100352,0.54648461,-0.13973069,-0.81216669,-0.14904752
1755645752930,-49.46060969,-9.30203807,6.21028568,0.12357890,-0.01459219,0.32119088,0.54821130,-0.13749392,-0.81243081,-0.14323396
1755645752977,-8.97856528,-1.36060445,0.93899899,0.00781551,0.03906124,0.09651006,0.55022226,-0.13730830,-0.81150311,-0.14094185
1755645753012,10.42314148,0.58392693,-0.86633046,0.00235901,0.08049389,0.12205366,0.55280029,-0.13726772,-0.81011861,-0.13884253
1755645753053,1.02157218,-0.43005190,0.48122864,0.02488420,0.11891835,0.24344084,0.55779778,-0.13674764,-0.80763322,-0.13375461
1755645753074,40.29194451,1.25332448,0.39241015,0.50736165,0.19470762,0.67305219,0.56368123,-0.13139498,-0.80557905,-0.12665391
1755645753108,-31.53326586,-0.26189515,1.41734799,0.43834756,-0.03480358,0.55024059,0.56652403,-0.12398690,-0.80616724,-0.11735485
1755645753118,113.37285269,5.60403681,7.18100908,1.36157886,-0.10721944,1.90277767,0.56911945,-0.11711093,-0.80670869,-0.10774582
1755645753141,-45.88937451,-4.09133604,-0.42201741,0.61577469,-0.15350284,0.61126282,0.56931360,-0.11012189,-0.80845095,-0.10080799
1755645753186,-9.73181481,-0.24867205,-0.61535484,0.22571971,-0.12420019,0.25376313,0.56726288,-0.10500934,-0.81126409,-0.09506025
1755645753209,43.82029383,1.09036352,14.24481571,1.40515267,-1.30125241,1.59900595,0.55149997,-0.08934188,-0.82577305,-0.07723133
1755645753219,18.71089944,-2.48425114,31.61472591,1.68100718,-2.94102857,2.18556014,0.53061569,-0.08051660,-0.84121345,-0.06575714
1755645753263,-25.00479356,-0.19781717,-11.16370836,0.33142540,-0.86023657,0.51893781,0.50184327,-0.07322524,-0.86013865,-0.05434051
1755645753275,97.88136686,-2.49864124,82.18258889,1.20670182,-5.14765604,3.08833996,0.44672038,-0.06586436,-0.89153936,-0.03550164
1755645753322,-26.86928874,0.30610828,-21.58727923,0.08204984,-0.83576625,0.43469325,0.40659821,-0.06395260,-0.91101271,-0.02537329
1755645753349,15.02877716,-2.26735894,8.73241533,-0.07009255,-1.65416785,0.44560510,0.35166233,-0.06491286,-0.93367481,-0.01926850
1755645753384,-1.34846385,4.25686746,-4.48075849,-0.00356780,-0.82190924,-0.00857295,0.31128534,-0.06497459,-0.94789384,-0.01941681
1755645753419,1.81371916,1.61500542,-1.96309677,0.14880223,-0.37393416,0.37601133,0.29171333,-0.06239287,-0.95438160,-0.01289301
1755645753456,0.25233243,1.57793194,-1.93450860,0.56614732,-0.06703276,0.27429396,0.28986881,-0.05186253,-0.95562841,-0.00779114
1755645753493,7.22935049,-1.43174554,-2.43137813,0.21403202,0.33358191,0.04487022,0.31014189,-0.04790293,-0.94945714,-0.00696104
1755645753527,-4.36221937,-1.61247859,-2.77179311,0.24107318,0.52597134,-0.26114599,0.33709441,-0.04374442,-0.94038414,-0.01146581
1755645753560,0.72151393,0.68431904,-0.71956362,0.48988200,0.51591026,-0.06605167,0.36088177,-0.03563688,-0.93184582,-0.01255897
1755645753594,-0.16493533,-0.10434490,-2.12283666,0.31601948,0.68764072,0.17371331,0.38968449,-0.03037515,-0.92039660,-0.00966664
1755645753628,-0.97885323,-0.39953070,-1.53331276,0.06636505,0.84245353,0.34332625,0.42217874,-0.02924363,-0.90603277,-0.00381293
1755645753671,-4.25702784,-1.09291457,-0.04638386,-0.02862562,0.78729858,0.15103893,0.45687935,-0.02986194,-0.88902712,-0.00055049
1755645753714,7.78528479,1.02575596,-4.15853627,-0.22394248,1.59771611,0.36296245,0.51808202,-0.03468790,-0.85459634,0.00727135
1755645753752,-7.06465001,-2.03659893,0.01612490,-0.16573893,1.65806535,0.26905520,0.56662887,-0.03784523,-0.82301019,0.01239685
1755645753778,17.92787052,3.63335337,-14.32635910,0.45939636,3.34626369,0.09489283,0.62522172,-0.03189604,-0.77967608,0.01362572
1755645753828,-13.70129447,-1.73431500,7.87813605,0.27440406,1.62947558,0.11625393,0.67265450,-0.02510454,-0.73934656,0.01650300
1755645753861,2.02206979,-1.50170135,-5.37452546,-0.06856085,2.49813503,0.24088987,0.71519968,-0.02623580,-0.69812733,0.02047768
1755645753884,5.08268901,-1.99739540,-10.36657706,0.34630138,3.88220630,-0.67660178,0.75701422,-0.02220139,-0.65289963,0.01259527
1755645753910,-2.54154533,-1.40704464,4.81212886,0.08598141,3.08778785,-0.48305507,0.79032374,-0.02107073,-0.61229522,0.00624310
1755645753958,-7.53537280,1.58941161,7.86717180,-0.03721226,1.24314365,0.10198587,0.81242734,-0.02196010,-0.58258408,0.00868056
1755645753986,10.28371198,-5.20958273,-16.31201074,-0.36556930,3.54304056,-0.09627522,0.84577278,-0.02709635,-0.53280436,0.00732789
1755645754044,-4.96890838,2.17114078,7.75670318,-0.10547658,1.17754981,-0.01892457,0.86614791,-0.03013935,-0.49883205,0.00678192
1755645754088,4.62276672,0.68231380,-4.32976547,0.05248316,1.68539666,0.36693808,0.88658485,-0.02897423,-0.46141625,0.01492795
1755645754128,-0.24756658,0.15443844,2.69056858,-0.16669667,1.12071366,0.32291013,0.89762359,-0.03229982,-0.43905801,0.02137000
1755645754159,2.69114338,1.40872793,0.02803556,-0.44281754,0.80103256,0.08321361,0.90323451,-0.03909707,-0.42676216,0.02264733
1755645754206,-5.58468723,1.22699709,3.94763676,0.27111593,0.60495744,0.25727778,0.90989658,-0.03272585,-0.41254566,0.02869336
1755645754238,5.83557376,1.99569350,-1.10729116,0.30642275,1.02560707,0.32451158,0.91712244,-0.02783841,-0.39618723,0.03386932
1755645754269,-3.97164791,0.03993985,3.33786656,0.93204237,0.64570306,0.23000110,0.92160793,-0.01325194,-0.38608197,0.03746884
1755645754299,-3.01759522,-2.60707666,2.24763883,0.41178224,0.29556860,0.08983716,0.92345897,-0.00709580,-0.38166322,0.03881190
1755645754310,27.73268826,0.65018206,1.31326098,0.39180994,0.56919531,-0.11877550,0.92484781,-0.00484289,-0.37839035,0.03812894
1755645754333,-13.94155049,-1.37362658,1.68828872,0.01527223,0.19254177,-0.15068033,0.92580866,-0.00466955,-0.37620500,0.03641872
1755645754366,-2.29865068,-0.27353546,0.24806321,0.06013063,0.03492233,-0.03439686,0.92606528,-0.00369243,-0.37563751,0.03585977
1755645754377,11.14537619,-1.14879325,3.49082701,0.05430099,0.03477213,0.03566823,0.92614023,-0.00337748,-0.37543583,0.03606665
1755645754388,2.94811767,-0.99289735,2.94523391,-0.19553517,0.09851779,0.00906578,0.92635707,-0.00447248,-0.37488413,0.03611742
1755645754400,-6.62643938,0.02635069,0.16343801,-0.17818031,0.13504295,-0.10924274,0.92669545,-0.00551484,-0.37409413,0.03547835
1755645754421,-6.22864869,0.49507622,-2.16414820,-0.09940591,0.07803911,-0.10196306,0.92706109,-0.00656357,-0.37327082,0.03440264
1755645754432,6.29370673,0.81313615,5.09297763,-0.10725590,0.16392933,-0.13099442,0.92743523,-0.00713739,-0.37239380,0.03370182
1755645754444,-1.83560165,-0.99342542,-0.85806288,0.04848889,0.13512405,-0.06498589,0.92777095,-0.00685130,-0.37159657,0.03331840
1755645754466,-3.42942003,-0.35658419,-1.85158493,0.04229356,0.06459358,-0.00989711,0.92806905,-0.00637550,-0.37086989,0.03320706
1755645754478,13.69698975,-1.52590329,13.90195066,-0.00361962,0.27577986,0.01511527,0.92870882,-0.00639667,-0.36925658,0.03329548
1755645754500,-7.24089034,0.58921393,-6.27558884,-0.04911034,0.11263206,-0.00889128,0.92921347,-0.00695162,-0.36798383,0.03319501
1755645754511,20.13963829,2.41539218,20.02696434,-0.19583643,0.50402448,-0.14920337,0.93024617,-0.00795039,-0.36541331,0.03243407
1755645754522,-7.43660427,1.83323642,-3.52199606,0.13124424,0.50588905,-0.04212527,0.93134825,-0.00722854,-0.36263092,0.03220238
1755645754533,-6.53715877,0.00972792,-4.69531719,0.25471671,0.44013691,0.08123073,0.93229833,-0.00580213,-0.36016615,0.03265728
1755645754544,-1.82083067,0.20764692,-1.28864634,0.28727326,0.43368422,0.13551786,0.93321468,-0.00419340,-0.35773752,0.03341618
1755645754555,-1.26466451,1.50298340,-1.23442922,0.13802888,0.45897304,0.15406578,0.93415932,-0.00342734,-0.35519022,0.03427124
1755645754566,-0.86690628,0.09385035,-0.69662112,0.14015389,0.48220491,0.14560341,0.93514508,-0.00264949,-0.35251398,0.03507934
1755645754579,-0.83544623,0.37461744,-0.31950517,0.20203503,0.53440286,0.06810684,0.93637416,-0.00139687,-0.34920069,0.03550160
1755645754600,-1.49150221,-1.11232936,-3.15470856,0.10635723,0.31407083,0.00825791,0.93760665,-0.00026948,-0.34587153,0.03558914
1755645754611,4.24002507,4.53799328,12.60632682,0.49796682,0.74167833,0.00924407,0.93905597,0.00239464,-0.34190356,0.03563859
1755645754626,-1.66253757,-3.46375751,-6.77923348,0.26597474,0.30865606,-0.02394950,0.93992297,0.00445595,-0.33951147,0.03545298
1755645754641,1.81333568,0.82518178,4.67726309,0.35293657,0.47209150,0.01372835,0.94115771,0.00706768,-0.33601799,0.03555457
1755645754668,-1.73973461,-0.86923150,-3.22201205,0.16144296,0.26619232,0.02171264,0.94241217,0.00926330,-0.33239778,0.03584986
1755645754705,-0.08172026,0.09932485,0.34567392,0.21783356,0.35020977,0.05275722,0.94456354,0.01324965,-0.32598894,0.03681532
1755645754766,-0.05696410,0.02836431,-0.30527869,0.25760175,0.28949811,0.04620655,0.94737103,0.02111939,-0.31714477,0.03822693
1755645754806,-0.39406205,0.44223411,2.20599927,0.46926978,0.63004396,0.08950592,0.95117743,0.03052825,-0.30451239,0.04002153
1755645754834,-2.37070361,0.53608674,-1.39277915,0.56649683,0.88149788,0.18345941,0.95470244,0.03860083,-0.29195105,0.04263582
1755645754868,-0.48683491,0.16696952,-1.58388627,0.59613032,0.79526812,0.33210113,0.95799377,0.04870524,-0.27847125,0.04826494
1755645754910,-0.32423489,-0.54421201,-0.56105069,0.53098931,0.70958546,0.28823684,0.96121893,0.05974981,-0.26371187,0.05426026
1755645754936,-3.03104776,1.02269585,0.99558757,0.79824149,1.19443198,0.57232802,0.96416712,0.07000722,-0.24836342,0.06161468
1755645754955,0.36654726,0.54904460,-1.39433297,0.77458008,1.05438998,0.41764922,0.96592904,0.07763683,-0.23797768,0.06572852
1755645754979,1.85610600,-1.13458482,-0.67781843,0.62622685,0.73093471,0.30127386,0.96715375,0.08508893,-0.22927956,0.06931368
1755645754991,-2.73654218,-0.40833591,1.82179885,0.68013320,0.88734990,0.40944745,0.96787662,0.08930576,-0.22377799,0.07185226
1755645755025,2.93408300,-1.04150328,-1.29088874,0.17668819,0.27256454,0.12424502,0.96848334,0.09224761,-0.21923979,0.07392094
1755645755045,-6.69178649,0.89293823,2.32783291,0.46300616,0.98659294,0.41715898,0.96993252,0.09703973,-0.20902855,0.07823853
1755645755058,2.06846338,0.25766172,-1.89807783,0.39539062,0.87503022,0.33074393,0.97068764,0.09955046,-0.20347211,0.08033875
1755645755069,-6.51577725,1.88304344,1.35202465,0.68760701,1.27905715,0.47742993,0.97151306,0.10329792,-0.19650125,0.08294075
1755645755101,5.57742498,-1.33388748,-1.28684849,0.17394455,0.30385642,0.09319215,0.97205902,0.10609842,-0.19160916,0.08444114
1755645755111,-24.45102720,1.12600798,7.20073434,0.61315901,1.41016266,0.43301634,0.97290099,0.10919488,-0.18448784,0.08662787
1755645755124,9.04940806,-1.36602073,-2.27534916,0.21965499,0.86571014,0.29593023,0.97357409,0.11053477,-0.17920701,0.08843305
1755645755144,5.79627255,-0.46076022,-1.76800045,-0.03439916,0.29199156,0.08820833,0.97407769,0.11018218,-0.17621409,0.08933718
1755645755156,-3.13850052,-1.42770774,1.61150763,-0.19994765,0.40826541,0.14883781,0.97454585,0.10904248,-0.17388698,0.09018556
1755645755167,1.09622100,-0.16136525,-0.56594860,-0.28897632,0.23590489,0.07128711,0.97493335,0.10738087,-0.17253053,0.09059546
1755645755178,1.52132214,-0.47462206,-0.14259281,-0.31278138,0.11282208,0.05859356,0.97519122,0.10572312,-0.17193257,0.09090601
1755645755189,2.20933307,0.75163275,-0.61512783,-0.31162140,-0.04137373,0.01071192,0.97534108,0.10386898,-0.17217875,0.09096974
1755645755200,0.85101854,-0.35324622,0.51965655,-0.36703306,-0.18687475,-0.00017196,0.97537182,0.10186865,-0.17319721,0.09096880
1755645755211,0.61389128,-1.10152998,-0.12044856,-0.42437449,-0.37182791,-0.01845113,0.97526348,0.09966190,-0.17513072,0.09087286
1755645755224,1.05437005,0.06657529,-0.31409746,-0.43737924,-0.41904551,0.00205714,0.97505069,0.09675333,-0.17791737,0.09088654
1755645755245,0.66772942,0.17046534,-0.17063277,-0.38588932,-0.34541900,0.02057513,0.97476296,0.09279796,-0.18145792,0.09109743
1755645755256,-1.75230895,-5.66298264,3.30886162,-1.43020640,-1.37839477,0.06209566,0.97396976,0.08457427,-0.18938369,0.09145448
1755645755268,1.33491369,3.96806405,-3.04717948,-0.69383077,-0.69336533,0.01956991,0.97349339,0.08041129,-0.19354388,0.09157190
1755645755279,-0.19352811,0.21875167,0.15357997,-0.63925333,-0.71206778,-0.03279174,0.97302140,0.07699128,-0.19735344,0.09139647
1755645755290,0.91860215,-0.14344682,-0.00294191,-0.61379565,-0.70388393,-0.07465483,0.97253732,0.07367679,-0.20115441,0.09099333
1755645755301,0.99371330,-0.84608607,-0.07306156,-0.59441979,-0.74396555,-0.08356819,0.97195135,0.07031832,-0.20535782,0.09052117
1755645755313,0.55755339,-0.63148231,-0.02842175,-0.63911274,-0.77818270,-0.08713317,0.97128926,0.06657951,-0.20991019,0.09001144
1755645755324,-0.07226721,0.19319918,-0.31324573,-0.73640577,-0.79264932,-0.08732278,0.97060278,0.06223471,-0.21458682,0.08949624
1755645755334,0.21380079,-2.17179250,-0.60904287,-0.90421169,-0.94447577,-0.10006463,0.96990241,0.05789450,-0.21912030,0.08901593
1755645755345,-0.58559713,2.04012631,-0.87476746,-0.73489610,-0.74790536,-0.15087034,0.96926693,0.05381582,-0.22327118,0.08817860
1755645755380,-0.07195253,1.15921401,-0.12236278,-0.19115775,-0.21164969,-0.05293040,0.96867027,0.05047056,-0.22697505,0.08725231
1755645755392,1.81277958,-11.40309127,-1.25994207,-1.43946779,-2.10104557,-0.31414243,0.96631821,0.04219362,-0.23905606,0.08544600
1755645755423,-0.30852139,3.32068497,0.33410745,-0.33000292,-0.49557691,-0.09580887,0.96472605,0.03707858,-0.24673750,0.08396096
1755645755434,1.21385719,-2.42847765,0.14497897,-0.64954312,-0.79221216,-0.13572406,0.96375368,0.03334370,-0.25129272,0.08318055
1755645755446,-0.97881446,0.56076791,-1.71019237,-0.48644134,-0.68899784,-0.08559511,0.96279919,0.03040073,-0.25546116,0.08266269
1755645755458,-1.46633871,2.69960144,0.61311128,-0.26029343,-0.32397298,-0.05358932,0.96236438,0.02886500,-0.25737260,0.08234652
1755645755471,-0.07995633,0.48292480,-0.05640348,-0.20030309,-0.22153372,-0.04535496,0.96203400,0.02753299,-0.25884580,0.08204491
1755645755507,0.09168235,0.43165535,0.34690582,-0.08737637,-0.07785552,-0.03645010,0.96176002,0.02598643,-0.26022384,0.08139974
1755645755541,-0.05600348,-0.77212300,-0.16153135,-0.32588208,-0.24143574,-0.12112893,0.96093630,0.02038125,-0.26437653,0.07931632
1755645755575,-0.11521186,0.11788073,-0.27930248,-0.32909315,-0.21335668,-0.14970660,0.96023613,0.01475376,-0.26802493,0.07675634
1755645755618,0.20345361,0.45096325,0.20620778,-0.08934609,-0.20115154,-0.03830712,0.95912488,0.01285516,-0.27229940,0.07594231
1755645755649,-0.05463136,-0.58336634,0.20715028,-0.25949310,-0.28509697,-0.08208511,0.95798645,0.00876814,-0.27678968,0.07464947
1755645755691,-0.13494671,0.46689639,-0.03934654,-0.13946372,-0.12769481,-0.12289075,0.95743585,0.00588124,-0.27943296,0.07210563
1755645755702,-1.44846691,-5.28753502,1.06198136,-0.64302995,-0.40742082,-0.33807249,0.95692317,0.00228027,-0.28171452,0.07021243
1755645755735,0.14196171,1.41751768,-0.48563240,-0.22342552,-0.05085204,-0.12645614,0.95682860,-0.00139508,-0.28255104,0.06813223
1755645755769,0.09826686,0.47109208,-0.03091820,-0.05559724,0.03289656,-0.07463039,0.95707972,-0.00233467,-0.28199508,0.06687097
1755645755780,-1.90635081,-0.99415977,-0.43165200,-0.19078469,0.07409293,-0.10554732,0.95724263,-0.00342214,-0.28157276,0.06626935
1755645755802,1.08377950,0.57764054,0.39902106,-0.05898789,0.02652865,-0.01835025,0.95733807,-0.00405921,-0.28128625,0.06607117
1755645755813,-1.48006858,-0.19547650,-0.25288407,-0.10813379,0.04653078,-0.02536229,0.95741939,-0.00464854,-0.28103265,0.06593294
1755645755847,0.63512039,0.33973812,0.13565622,-0.00173643,0.00399887,-0.01538551,0.95745817,-0.00467884,-0.28096287,0.06566447
1755645755859,-2.36865548,-0.95189477,-1.25750849,0.04545691,-0.08858713,0.00833533,0.95730650,-0.00441746,-0.28147225,0.06571240
1755645755892,0.77502369,0.35284095,0.47544986,-0.00326772,-0.03633142,0.00426873,0.95712550,-0.00447122,-0.28206990,0.06578262
1755645755925,-0.10896109,-0.05756631,0.04598439,-0.04582740,-0.09323000,-0.00896815,0.95667578,-0.00522966,-0.28361286,0.06563419
1755645755937,-0.15608821,-0.21023420,0.69688249,-0.03457504,-0.21396946,-0.01560574,0.95630894,-0.00543193,-0.28486458,0.06554290
1755645755970,0.31262126,0.09710575,-0.17942911,-0.01245639,-0.03669086,-0.01054578,0.95613500,-0.00564244,-0.28548465,0.06536468
1755645755982,0.39961824,0.59660636,0.01308741,0.06607495,-0.12124228,-0.01596351,0.95594197,-0.00527572,-0.28615755,0.06527608
1755645756003,0.01135279,-0.14305968,-0.08814297,0.02510504,-0.04857386,-0.02481483,0.95580450,-0.00500459,-0.28668215,0.06500808
1755645756014,0.44744587,-0.06017076,0.09410177,-0.04259886,-0.09580819,-0.00503537,0.95564262,-0.00524527,-0.28722346,0.06497963
1755645756051,-0.18812935,-0.06325397,-0.04330179,-0.00331879,-0.01459830,-0.00423379,0.95556722,-0.00530601,-0.28749061,0.06490215
1755645756079,0.14372716,-0.02969638,-0.05974423,-0.00328687,-0.03002597,-0.02196800,0.95546123,-0.00535202,-0.28791098,0.06459460
1755645756081,71.64289081,-55.52267271,-11.65601942,-0.63225265,-0.30523475,-0.60070050,0.95541980,-0.00582621,-0.28813990,0.06414407
1755645756128,-2.31403833,1.70173187,0.39957457,-0.02415560,-0.00857864,-0.02346841,0.95539192,-0.00639991,-0.28834364,0.06358670
1755645756161,0.13613515,0.00396097,-0.05233202,-0.01063240,-0.01511774,-0.01576276,0.95533268,-0.00657534,-0.28859309,0.06332661
1755645756172,2.17316498,1.01098962,-1.29823510,0.12535777,-0.00265935,-0.01599136,0.95533848,-0.00589841,-0.28860745,0.06324026
1755645756203,-0.68792419,-0.25634075,0.46565547,-0.01765439,-0.01581844,-0.02016197,0.95528382,-0.00616940,-0.28885026,0.06293077
1755645756214,1.64567430,-0.91822064,0.08980393,-0.16699566,-0.08241778,-0.04875148,0.95515099,-0.00713798,-0.28932828,0.06264801
1755645756260,-0.45833346,0.20477650,-0.01924433,-0.02146561,-0.03601170,-0.00897230,0.95491204,-0.00762632,-0.29014755,0.06244390
1755645756294,0.54371967,0.17215790,-0.06777070,0.04375212,-0.11845280,0.00523425,0.95428861,-0.00687160,-0.29219086,0.06253419
1755645756326,0.18534669,-0.08578544,0.15219701,0.00856994,-0.21089425,0.02750661,0.95322092,-0.00673448,-0.29556517,0.06297429
1755645756337,5.53243622,1.12397805,-1.12366920,0.06290698,-0.56014745,0.06502680,0.95222089,-0.00638220,-0.29870199,0.06333844
1755645756360,-2.72839501,-0.50628786,0.46471096,0.01203364,-0.13957984,-0.01497337,0.95174113,-0.00624742,-0.30026529,0.06317074
1755645756405,-0.40485237,-0.07577441,0.01519447,-0.00483175,-0.06360231,-0.02811876,0.95132496,-0.00635734,-0.30171224,0.06253104
1755645756439,0.45247106,0.13401758,-0.06649041,0.01496648,-0.09118053,-0.06281450,0.95091198,-0.00610815,-0.30323040,0.06148518
1755645756472,0.05895014,-0.06668503,-0.16231903,0.03041439,-0.07685918,-0.01620576,0.95051881,-0.00559567,-0.30452547,0.06121211
1755645756503,-0.05368700,-0.06926891,-0.01062693,-0.03062669,-0.08308729,-0.03841588,0.95013806,-0.00607345,-0.30582164,0.06061282
1755645756516,3.57991263,-0.34671073,-0.40518086,-0.04587266,-0.18639219,-0.09138007,0.94979944,-0.00635786,-0.30697727,0.06004627
1755645756537,-2.15238677,0.22815817,0.05099141,-0.00611984,-0.06691398,-0.03813961,0.94959398,-0.00642303,-0.30768990,0.05964008
1755645756573,-0.29792024,0.05864975,0.17757855,0.02056205,-0.06078197,-0.02999019,0.94927853,-0.00605703,-0.30877182,0.05910625
1755645756622,-0.11078636,0.02087354,0.05014438,0.03308433,-0.05808071,-0.00199913,0.94881584,-0.00523488,-0.31021513,0.05905657
1755645756639,6.61824897,1.11007771,0.05224153,0.13474820,-0.79416131,0.08794429,0.94664917,-0.00414342,-0.31664783,0.05976892
1755645756670,-2.08129793,-0.46398806,0.29594615,-0.02142758,-0.52372418,0.06274365,0.94376689,-0.00448305,-0.32494886,0.06076341
1755645756719,-0.56509350,-0.02017054,-0.04371663,0.03571693,-0.20115589,0.04294536,0.94199456,-0.00360977,-0.32986712,0.06181342
1755645756748,0.77158396,-0.02895488,0.17903802,0.01297679,-0.39534816,0.01088516,0.93999328,-0.00342485,-0.33550083,0.06196854
1755645756781,-0.16728824,0.23563294,-0.05242881,0.06501888,-0.39123385,-0.06012739,0.93773253,-0.00235204,-0.34195619,0.06097644
1755645756793,6.57481727,-0.10322929,2.69638986,0.13695867,-0.95715093,0.04525726,0.93553060,-0.00150290,-0.34789053,0.06125703
1755645756832,-2.60228970,-0.32121291,-0.87280453,-0.01177971,-0.17773343,-0.02308049,0.93425367,-0.00173437,-0.35138299,0.06080350
1755645756846,1.46857328,-0.33583684,0.39666632,-0.06813030,-0.36775868,-0.09761730,0.93335132,-0.00219765,-0.35388375,0.06013970
1755645756900,-0.61259998,0.09315487,-0.20290062,-0.02112575,-0.06969881,-0.01653239,0.93266406,-0.00276699,-0.35576213,0.05969415
1755645756937,0.44486570,-0.05271329,0.04486146,0.00369937,-0.12833910,-0.03996759,0.93180456,-0.00269874,-0.35812999,0.05895675
1755645756950,1.30417001,-0.34658169,-0.80870622,-0.08475475,-0.19019034,-0.07132746,0.93135595,-0.00324965,-0.35936622,0.05849312
1755645757005,-0.80139515,0.03611834,0.06227656,-0.05705924,0.00235423,-0.03422728,0.93143304,-0.00482448,-0.35930125,0.05754845
1755645757017,-1.43016541,-1.30428170,-0.83269344,-0.16683576,0.03564084,-0.05401296,0.93152735,-0.00580047,-0.35909275,0.05723247
1755645757038,0.49246003,0.55186538,0.22130827,-0.07614313,0.03443265,0.01325239,0.93165633,-0.00662282,-0.35872088,0.05737560
1755645757072,0.02305355,0.12193343,0.09656059,-0.05274752,0.03723396,0.00171948,0.93189119,-0.00751952,-0.35808790,0.05740483
1755645757083,-1.56882426,-0.76175919,-0.82113298,-0.12865745,0.01270327,-0.13029589,0.93195476,-0.00821427,-0.35801930,0.05670123
1755645757106,0.81224240,0.60108981,0.52564141,0.01687281,-0.03452211,-0.01760846,0.93181674,-0.00802108,-0.35841458,0.05649962
1755645757117,-0.10932689,0.73074018,0.02779616,0.03308882,-0.08844719,0.03955220,0.93161963,-0.00784075,-0.35889662,0.05671518
1755645757139,0.11118234,-0.23857895,0.03659800,-0.00227660,-0.04174566,0.02258420,0.93142635,-0.00786590,-0.35935791,0.05696473
1755645757149,-0.44236883,0.00239493,0.16957733,-0.06331150,-0.10181638,0.02411227,0.93120932,-0.00819829,-0.35989244,0.05709132
1755645757184,0.18032205,-0.11852672,0.01333691,-0.02432930,-0.03489996,0.00031390,0.93097437,-0.00861432,-0.36048923,0.05709669
1755645757195,-1.68549349,0.62303715,0.60756720,-0.04090781,-0.29717833,0.03182229,0.93033285,-0.00883727,-0.36210885,0.05727012
1755645757217,0.58147938,-0.00233332,-0.49055294,0.05250215,-0.03252061,0.01053457,0.93018913,-0.00824924,-0.36247308,0.05738811
1755645757240,0.13588398,-0.18837985,0.03968170,0.01778799,0.00514460,0.00042166,0.93021378,-0.00804379,-0.36241366,0.05739298
1755645757250,-0.79055885,-0.14257121,-0.33851310,-0.02710032,0.00197395,-0.00709243,0.93021863,-0.00817929,-0.36240379,0.05735752
1755645757261,0.03073826,-0.28058517,0.05083636,-0.03058949,0.00628451,-0.00684596,0.93023292,-0.00834754,-0.36236923,0.05731986
1755645757284,0.28533979,0.04072083,0.10033340,-0.01731577,0.01962707,-0.00787591,0.93032379,-0.00854493,-0.36214548,0.05723008
1755645757294,-1.73851999,-0.13855280,0.30324798,-0.01305767,0.08734088,-0.01281145,0.93050739,-0.00861414,-0.36168257,0.05716218
1755645757305,0.75228939,0.26871610,0.01650671,0.02047004,0.05754673,0.01642679,0.93062368,-0.00850360,-0.36137182,0.05725088
1755645757317,0.56297031,-0.01266959,-0.61341496,0.01437455,0.05674061,0.04054495,0.93073668,-0.00842095,-0.36104556,0.05748401
1755645757329,0.18096620,0.10761712,-0.18704109,-0.00744568,0.06168597,0.01446039,0.93087211,-0.00846488,-0.36068162,0.05756933
1755645757371,0.12371686,-0.01343358,0.15138271,-0.00024567,0.01720185,0.00675904,0.93100597,-0.00847015,-0.36031264,0.05771431
1755645757414,-0.13112423,-0.00286016,-0.23587818,0.00199525,0.06833652,-0.01390438,0.93158124,-0.00842805,-0.35887074,0.05742093
1755645757447,0.05730998,-0.04713780,-0.01999309,-0.02726342,0.05428958,-0.00185375,0.93192249,-0.00887653,-0.35797767,0.05739044
1755645757468,-0.00469005,-0.16224158,-0.07217604,-0.05088103,0.03043908,-0.03103715,0.93206585,-0.00943368,-0.35764436,0.05705058
1755645757512,0.08523358,0.15342312,0.25951799,0.01187049,0.00649552,0.00322879,0.93211808,-0.00917668,-0.35750374,0.05712048
1755645757546,-0.13399448,-0.01253718,-0.04556547,-0.00242028,0.02097273,0.02680958,0.93222662,-0.00921795,-0.35714615,0.05757759
1755645757581,-0.02980710,-0.09196124,-0.04200525,-0.00302335,0.03697897,0.00603899,0.93246655,-0.00927071,-0.35650087,0.05768297
1755645757612,-0.04353641,0.18361397,-0.08606032,0.06150834,0.05122567,0.02993156,0.93274808,-0.00832348,-0.35571199,0.05814391
1755645757651,0.07027674,-0.05652128,0.09277995,0.00823996,0.02092312,0.00147592,0.93290598,-0.00815991,-0.35529667,0.05817321
1755645757663,-1.37146958,-0.48979158,-0.87678785,-0.07012859,0.06215231,-0.04239314,0.93305100,-0.00855614,-0.35494551,0.05793369
1755645757695,0.48571843,0.18293275,0.31531871,0.03903546,0.01509395,0.01854296,0.93313013,-0.00792962,-0.35470325,0.05823130
1755645757718,-0.00866771,0.01469949,-0.05020759,-0.00250935,0.01132928,0.00852979,0.93317402,-0.00795898,-0.35457070,0.05833110
1755645757740,0.05971733,-0.11073605,0.10451888,-0.01272562,0.00614726,0.00699362,0.93319379,-0.00809960,-0.35450277,0.05840838
1755645757750,-0.39944437,-0.05275098,-0.29614587,-0.02930753,0.00581263,0.01261961,0.93319971,-0.00824907,-0.35447313,0.05847274
1755645757763,0.10604813,0.16436244,-0.05381456,0.02252683,-0.00931385,0.00991850,0.93317514,-0.00810940,-0.35453087,0.05853424
1755645757774,0.26796318,0.07530546,0.03047726,0.03986447,-0.01281088,0.03272855,0.93313762,-0.00788217,-0.35460389,0.05872079
1755645757785,-0.21968213,0.18966679,-0.32532750,0.04668328,-0.02240216,0.03100838,0.93308318,-0.00763008,-0.35472487,0.05888823
1755645757796,0.10905402,-0.24068323,0.06237482,0.03264734,0.00184702,0.04295492,0.93307320,-0.00744399,-0.35471434,0.05913308
1755645757830,0.09925062,-0.02472943,0.19619274,0.00108330,0.00184091,0.00513166,0.93307971,-0.00742558,-0.35468304,0.05922031
1755645757841,-1.22462820,-0.39850426,-2.06929514,-0.05390790,0.04088704,0.03077198,0.93314610,-0.00769781,-0.35447656,0.05937571
1755645757852,0.41882050,-0.03740597,0.88069141,-0.02607584,0.02013009,-0.01557580,0.93319492,-0.00784905,-0.35435981,0.05928537
1755645757863,0.36908367,0.34833926,0.34477388,-0.01064056,0.00048476,-0.00671666,0.93319766,-0.00790492,-0.35435726,0.05925011
1755645757885,0.16401247,0.04884367,0.32971385,0.00230347,0.00175073,0.00930050,0.93319868,-0.00787958,-0.35433801,0.05935242
1755645757895,-0.45384817,0.35321123,-0.40767782,0.01398654,-0.01146948,0.00442855,0.93317518,-0.00780685,-0.35439765,0.05937544
1755645757908,0.18188321,-0.07775823,0.13620190,-0.00476401,-0.01531515,0.01530710,0.93313009,-0.00783829,-0.35449873,0.05947647
1755645757929,0.12746775,-0.12747419,0.14160791,-0.00314260,-0.00657110,0.00666992,0.93309987,-0.00787050,-0.35456608,0.05954484
1755645757941,-0.24331964,-0.06209063,-0.66881383,-0.00221269,-0.05062675,0.01151422,0.93297686,-0.00788411,-0.35487744,0.05961565
1755645757952,0.23359543,-0.03901687,0.52080133,-0.01377005,-0.02170334,-0.01144391,0.93293521,-0.00795916,-0.35499572,0.05955328
1755645757962,-0.06058894,-0.00731661,0.03980934,-0.01344911,-0.04760393,-0.04782802,0.93285926,-0.00802640,-0.35523374,0.05931414
1755645758014,0.05263916,0.00979837,0.08275757,0.00079108,-0.00665357,-0.00090112,0.93279491,-0.00800579,-0.35540706,0.05929067
1755645758047,-0.15559982,-0.00879481,-0.23853025,0.02865325,-0.06055625,0.01081493,0.93241207,-0.00754018,-0.35639110,0.05946641
1755645758079,0.10190982,-0.02646287,0.11521988,-0.01974149,-0.02054832,-0.00124420,0.93228421,-0.00785802,-0.35672193,0.05944638
1755645758116,0.01158684,0.11063787,0.00453000,0.05398306,-0.00865881,-0.01232081,0.93224497,-0.00685123,-0.35688342,0.05921659
1755645758145,-0.00616149,-0.05964711,0.01895775,-0.01456188,-0.03421015,-0.00414793,0.93205457,-0.00706529,-0.35738631,0.05915562
1755645758175,-0.07171645,-0.15260433,0.05020151,-0.03998234,-0.04155086,-0.02777135,0.93184132,-0.00765303,-0.35799710,0.05874738
1755645758197,-0.04549057,0.18164652,0.08687238,0.01660701,-0.05169542,-0.02274649,0.93164080,-0.00747119,-0.35856317,0.05849831
1755645758208,-0.83930106,0.60534287,-0.08239697,0.02982577,-0.07387758,0.01006532,0.93148214,-0.00730714,-0.35896950,0.05855367
1755645758253,0.25518751,-0.15760313,0.00167501,-0.00771650,-0.00631337,0.00210964,0.93142210,-0.00748347,-0.35911376,0.05860187
1755645758264,-2.39729001,-0.29957047,-1.09370079,0.03777196,-0.00716021,-0.05657904,0.93142760,-0.00729272,-0.35914992,0.05831615
1755645758286,0.68091555,0.04349167,0.50254535,0.00742779,0.02976484,0.00055252,0.93155634,-0.00720953,-0.35881655,0.05832234
1755645758308,-0.06267219,0.00194368,-0.05774455,0.02816744,0.03470260,0.00197496,0.93170158,-0.00690532,-0.35844176,0.05834367
1755645758320,0.15526642,0.16487859,-0.24540925,0.00859997,0.01063749,-0.00584456,0.93172871,-0.00685372,-0.35837794,0.05830860
1755645758342,0.27697521,-0.00156757,0.14174966,0.01100347,0.00255507,0.00446803,0.93173768,-0.00672773,-0.35834868,0.05835976
1755645758353,-0.51925890,0.09821543,-0.18184928,0.02702978,-0.00304089,0.01398172,0.93172758,-0.00658042,-0.35836525,0.05843596
1755645758364,-0.01059012,-0.01958393,0.11976177,0.02645847,-0.00288556,0.01557070,0.93171750,-0.00644019,-0.35838055,0.05851848
1755645758386,0.24854551,-0.03541066,0.08959687,0.00474768,-0.00101769,0.00053700,0.93171314,-0.00638749,-0.35839184,0.05852444
1755645758397,-1.32463898,-0.45062725,0.19479179,0.00046327,-0.03552656,0.00784643,0.93163385,-0.00638489,-0.35859079,0.05856838
1755645758420,0.64216304,0.14969925,-0.02764370,-0.00074652,-0.00947385,-0.00205788,0.93159474,-0.00639318,-0.35869595,0.05854554
1755645758430,-1.38586716,-0.03715598,-0.46687912,0.02501295,-0.03304454,0.00480723,0.93152466,-0.00625686,-0.35887604,0.05857174
1755645758442,0.78575050,0.15065262,0.19069848,0.02689036,-0.01069967,0.00417663,0.93150047,-0.00610224,-0.35893757,0.05859576
1755645758453,-0.10816722,-0.31593842,0.20551772,0.04939243,-0.01609290,0.01844432,0.93145995,-0.00581823,-0.35903010,0.05870181
1755645758464,-0.38004058,0.15191751,-0.04437881,0.03427334,-0.01018851,0.00562319,0.93143857,-0.00563830,-0.35908359,0.05873133
1755645758475,0.43588431,0.15731115,-0.11074502,0.03163836,-0.00853820,0.02179471,0.93141349,-0.00546112,-0.35913141,0.05885338
1755645758510,0.23696633,0.02568524,0.02101463,0.01060621,0.00125343,0.00368645,0.93141886,-0.00527817,-0.35910978,0.05891697
1755645758531,-0.53419113,-0.00729265,-0.06196109,0.00782953,0.00676692,0.00262243,0.93144497,-0.00519596,-0.35903873,0.05894451
1755645758542,-0.97032863,0.26856161,0.10112777,-0.00300370,0.02797392,-0.00645554,0.93150921,-0.00521323,-0.35887788,0.05890739
1755645758564,0.75136986,-0.14116931,-0.02273735,0.01742294,0.00795710,0.00273441,0.93154193,-0.00502245,-0.35879075,0.05893733
1755645758602,0.15963649,0.00903541,0.03114862,0.01034753,0.00472511,0.01018743,0.93156503,-0.00482791,-0.35870192,0.05912886
1755645758633,-0.23967329,0.11794962,0.02602024,0.02625064,0.02210419,0.01532079,0.93168495,-0.00441709,-0.35835599,0.05936863
1755645758666,0.08998404,-0.05569133,0.00324837,0.01781687,0.01377031,-0.00169223,0.93177461,-0.00412578,-0.35813084,0.05934096
1755645758686,-0.23899979,0.09129495,0.05267809,0.05642529,0.01516260,0.01047535,0.93183014,-0.00354460,-0.35797467,0.05944885
1755645758698,0.35711455,0.13780970,-0.24330099,0.09747200,-0.00235751,0.03090672,0.93181567,-0.00298901,-0.35798811,0.05962502
1755645758721,0.20359168,-0.15514145,0.17483760,0.00765149,-0.00316228,-0.00057681,0.93180246,-0.00290140,-0.35802431,0.05961842
1755645758752,0.07042873,-0.05876661,-0.00738754,0.00916747,-0.01635782,0.00238065,0.93169986,-0.00275472,-0.35828604,0.05965651
1755645758765,0.09056526,-0.04191783,0.03891499,-0.03041324,-0.04084467,0.01730622,0.93159583,-0.00294177,-0.35853723,0.05976294
1755645758776,0.12850824,0.11685211,-0.03857037,0.01438816,-0.04139006,0.02226659,0.93149710,-0.00285975,-0.35877316,0.05988986
1755645758799,0.00033345,0.03146090,-0.10446952,0.01091007,-0.00567562,0.01095292,0.93146509,-0.00273756,-0.35883672,0.06001253
1755645758809,0.09570803,0.27460711,-0.19397054,0.07295061,-0.00316449,0.00856880,0.93145723,-0.00237281,-0.35885255,0.06005538
1755645758820,0.10404235,-0.12314277,-0.06704637,0.03464909,0.00431235,-0.01845396,0.93147425,-0.00217184,-0.35882754,0.05994834
1755645758832,-0.04491426,-0.06147348,-0.08849198,0.00783878,-0.01302100,-0.04837666,0.93146337,-0.00212677,-0.35890241,0.05967018
1755645758843,0.03094812,-0.12731004,0.21370156,-0.00965162,-0.01576169,-0.02384430,0.93143732,-0.00218178,-0.35899225,0.05953427
1755645758854,0.22522100,-0.13004186,0.28448577,0.00261850,-0.03243975,0.00150844,0.93137056,-0.00216791,-0.35916418,0.05954226
1755645758865,-0.11045335,0.12353383,0.04819783,-0.02363297,-0.03627363,-0.03368196,0.93130392,-0.00230025,-0.35936731,0.05935364
1755645758899,-0.05525736,-0.03726311,-0.04859367,-0.00718839,-0.01026128,-0.00038632,0.93123650,-0.00242281,-0.35954227,0.05934706
1755645758909,0.87686974,-0.58670430,-0.50175695,-0.08052352,-0.11355928,-0.02447164,0.93101308,-0.00284556,-0.36013845,0.05921858
1755645758921,-0.65519770,-0.04160505,-0.03459444,-0.02766355,-0.04246060,-0.03714635,0.93093237,-0.00300324,-0.36038048,0.05900685
1755645758943,-0.09514962,0.22319814,0.11295579,-0.00436146,-0.01780155,-0.00352705,0.93085751,-0.00305209,-0.36057985,0.05896734
1755645758953,0.29448567,0.01590347,-0.24607707,0.03727132,-0.03866774,0.03301545,0.93077441,-0.00286946,-0.36076933,0.05912912
1755645758965,-0.01827939,0.10567773,0.20949144,0.00156951,-0.04741708,0.01299569,0.93066012,-0.00286012,-0.36105146,0.05920644
1755645758988,-0.10828403,0.01758301,0.04699317,-0.00180461,-0.02954110,-0.00051756,0.93052800,-0.00288097,-0.36139266,0.05920046
1755645759034,-0.00531596,-0.00941888,0.00958971,-0.00809441,-0.01914734,0.00675760,0.93034595,-0.00306754,-0.36183400,0.05935623
1755645759064,0.09350801,-0.04208274,-0.15860117,-0.01291500,-0.02498167,0.00841161,0.93019295,-0.00325933,-0.36220498,0.05948114
1755645759130,-0.03286061,0.01433042,0.05979255,-0.00329506,-0.00195123,-0.00482698,0.93017761,-0.00336840,-0.36226957,0.05932137
1755645759183,0.08313950,-0.00803113,-0.01420889,0.00671487,-0.03051629,-0.00114682,0.92986837,-0.00319247,-0.36306909,0.05929132
1755645759221,0.10871529,-0.00130082,-0.04732281,-0.01148950,-0.03516675,-0.00492852,0.92960700,-0.00341536,-0.36375133,0.05919571
1755645759270,-0.06473960,-0.01819826,0.02177620,-0.01172809,-0.00998517,-0.00665748,0.92952122,-0.00370036,-0.36399397,0.05903393
1755645759314,0.09768784,-0.02943065,0.00245638,-0.03139073,-0.01836400,-0.01465431,0.92938000,-0.00439252,-0.36439890,0.05871080
1755645759363,-0.02603760,0.01115301,0.01097361,-0.02025903,-0.00867816,-0.01592805,0.92931908,-0.00488583,-0.36461021,0.05832295
1755645759389,0.28362248,-0.12139013,0.01236071,-0.06079249,-0.02884498,-0.03847551,0.92919725,-0.00568525,-0.36498952,0.05781700
1755645759421,-0.12443790,0.10353168,0.06829559,0.00662372,-0.00941580,-0.02212874,0.92916055,-0.00557894,-0.36514064,0.05746183
1755645759477,-0.15387423,0.03676359,-0.00234078,-0.00276800,-0.00815909,-0.00501190,0.92907865,-0.00565672,-0.36536991,0.05732100
1755645759541,0.04290373,0.00297347,0.02077158,-0.01432463,-0.00928561,-0.00622883,0.92897195,-0.00611153,-0.36566473,0.05712324
1755645759588,0.11156895,0.06782253,-0.02505119,0.03779318,-0.01044851,-0.02318385,0.92891415,-0.00522528,-0.36590975,0.05657957
1755645759644,-0.05182712,-0.11275226,0.02076283,-0.02585984,-0.02589747,-0.02121362,0.92865938,-0.00595065,-0.36663617,0.05598453
1755645759679,0.05584107,-0.12093292,-0.04747313,-0.02462503,-0.05359618,-0.00661264,0.92829264,-0.00638158,-0.36757411,0.05586881
1755645759732,-0.18383471,0.06438629,-0.03256676,-0.02102272,-0.00705171,-0.00406637,0.92822057,-0.00694289,-0.36776239,0.05576024
1755645759744,-0.11602720,0.14837304,-0.69191664,0.02990338,0.01577334,-0.01719600,0.92826445,-0.00676796,-0.36767011,0.05565964
1755645759778,-0.00783997,0.11228017,0.21390581,0.02661396,-0.00929610,0.02102202,0.92818305,-0.00631286,-0.36782908,0.05601912
1755645759811,0.02234385,-0.09319275,0.05923545,0.00530480,-0.01271276,0.02037419,0.92808107,-0.00622612,-0.36803693,0.05635224
1755645759832,-0.08172571,0.07789197,-0.04510073,-0.01057900,-0.00784542,-0.00505939,0.92804987,-0.00634091,-0.36812205,0.05629734
1755645759843,0.03948525,-0.18080541,-0.04466782,-0.03421093,-0.03039508,-0.00087296,0.92798498,-0.00652222,-0.36828315,0.05629272
1755645759854,0.13181094,0.04026499,-0.06209791,-0.02074776,-0.03650393,0.00991031,0.92789810,-0.00664049,-0.36849122,0.05634920
1755645759866,-0.02280367,0.15394852,0.03842783,-0.00193232,-0.01620273,0.02780246,0.92785130,-0.00665160,-0.36858439,0.05650907
1755645759876,0.11546013,0.08915722,-0.16717272,-0.00040349,-0.00490292,0.00796443,0.92783851,-0.00665372,-0.36861013,0.05655088
1755645759889,0.04277455,-0.05961421,-0.00063036,0.00991960,-0.00262917,0.02485905,0.92782319,-0.00659271,-0.36862630,0.05670376
1755645759900,-0.09132431,0.05371678,-0.05049879,-0.00133548,0.00166696,-0.00051670,0.92782702,-0.00660019,-0.36861696,0.05670087
1755645759911,-0.10948353,-0.04975408,0.05176062,0.01600095,0.00290387,-0.00235128,0.92783506,-0.00650898,-0.36860041,0.05668747
1755645759922,-0.01017210,0.15601158,0.06639462,0.00901715,0.00577449,0.00203377,0.92784656,-0.00646254,-0.36857067,0.05669794
1755645759932,0.03938440,0.05000889,-0.11601012,0.01655173,-0.00070106,0.00695579,0.92784341,-0.00637399,-0.36857442,0.05673516
1755645759944,0.01200821,-0.14635464,0.01233374,0.03252851,-0.00170731,0.00636381,0.92783871,-0.00619346,-0.36858390,0.05677048
1755645759955,0.03919369,-0.10890968,0.04868092,0.00926591,0.00990208,-0.00356822,0.92786251,-0.00614111,-0.36852795,0.05675031
1755645759966,-0.09795164,-0.06425080,0.02784430,-0.00564853,0.01445345,-0.01606375,0.92789961,-0.00617246,-0.36844773,0.05666116
