UnixTime(ms),Ax,Ay,Az,Gx,Gy,Gz,QuatW,QuatX,QuatY,QuatZ
1761620383085,0.00000000,0.00000000,0.00000000,0.00000000,0.00000000,0.00000000,0.99322246,0.11090067,0.01452667,0.03160961
1761620383095,-0.05168845,-1.02204071,1.26749061,0.05218174,-0.00708888,0.06693086,0.99318192,0.11116941,0.01449016,0.03195431
1761620383106,0.32115478,0.27463517,-0.57924154,-0.00178415,0.00988994,0.02016275,0.99317871,0.11115977,0.01454356,0.03206319
1761620383117,-0.09611022,0.01937110,-0.00937661,-0.02773825,-0.00000504,0.01422646,0.99319377,0.11100167,0.01454353,0.03214428
1761620383129,0.01843903,-0.01315372,-0.07717193,-0.06038031,0.00549389,0.01454459,0.99322934,0.11065448,0.01457512,0.03222791
1761620383140,-0.00575890,-0.06475675,0.16590745,-0.07991982,0.00841263,0.00642321,0.99327809,0.11019894,0.01462308,0.03226452
1761620383151,-0.06379488,0.01934524,-0.13587736,-0.08039147,-0.00265343,0.00450083,0.99332777,0.10974472,0.01460808,0.03228995
1761620383163,-0.17924805,-0.00892739,0.18298238,-0.04981196,0.00996965,0.00634372,0.99335683,0.10946329,0.01466441,0.03232579
1761620383174,-0.24524572,0.10588103,0.11107978,-0.02722202,-0.00347693,-0.00205282,0.99337459,0.10930812,0.01464459,0.03231409
1761620383185,0.12927811,0.15601133,0.02274121,-0.01819004,-0.00411947,0.01218888,0.99338391,0.10920626,0.01462153,0.03238235
1761620383197,0.31511733,0.29922981,-0.24982688,-0.00849216,-0.03000098,0.01582927,0.99338878,0.10915785,0.01445052,0.03247258
1761620383208,0.26816779,0.06211607,0.03154530,-0.00184935,-0.02394725,0.02055988,0.99338809,0.10914740,0.01431522,0.03258874
1761620383219,0.06061923,-0.07881898,-0.09304816,-0.00812586,-0.03934431,0.02210313,0.99339217,0.10910190,0.01409489,0.03271252
1761620383230,0.04872201,-0.04776366,0.00117486,-0.02320840,-0.03992440,0.02615484,0.99340464,0.10897309,0.01387331,0.03285768
1761620383242,-0.04442595,-0.03875804,-0.05840822,-0.00466983,-0.04329190,0.02446511,0.99340635,0.10894647,0.01362655,0.03299713
1761620383253,0.03684610,-0.00782980,-0.09756713,0.04234774,-0.03263880,0.00781794,0.99338135,0.10918362,0.01344377,0.03304091
1761620383264,-0.46370571,0.03869577,0.20487434,0.04378939,-0.02393850,0.01465955,0.99335368,0.10942665,0.01331091,0.03312227
1761620383275,-0.28549258,-0.01690847,-0.03958849,0.04200168,-0.03577887,0.00659080,0.99332918,0.10966186,0.01311055,0.03315918
1761620383286,0.02280790,-0.02946020,0.03041053,0.05378159,-0.00792934,0.00915210,0.99329476,0.10996304,0.01306614,0.03321043
1761620383298,0.34972113,0.01698713,-0.39533693,0.02451804,-0.02054228,0.00584747,0.99327996,0.11010034,0.01295111,0.03324317
1761620383309,0.14263947,-0.02854987,-0.09857870,-0.01334499,-0.00587470,-0.01114457,0.99329133,0.11002160,0.01291645,0.03317742
1761620383320,-0.07667672,-0.08409107,-0.09911869,-0.01887589,-0.01459742,0.00044447,0.99330333,0.10992156,0.01283908,0.03317978
1761620383331,-0.11979109,-0.01184425,-0.11223340,-0.04098277,-0.00761458,0.00299777,0.99332847,0.10969411,0.01279682,0.03319642
1761620383342,-0.01601005,-0.10703136,-0.03702003,-0.07161373,0.01643381,0.03346231,0.99336520,0.10929307,0.01288885,0.03338380
1761620383353,-0.20637746,-0.19411543,-0.09810056,-0.09437898,0.02210210,0.04650182,0.99341239,0.10876927,0.01301151,0.03364189
1761620383365,-0.25162319,-0.26086535,-0.05482800,-0.09561035,0.03998291,0.04564121,0.99345922,0.10823385,0.01323542,0.03389748
1761620383376,-0.13114542,-0.00991906,-0.02280790,-0.08020520,0.06103127,0.03221740,0.99349726,0.10778470,0.01357719,0.03407790
1761620383387,-0.11883334,0.09072369,-0.03389808,-0.04230822,0.07102588,0.02659312,0.99351217,0.10754989,0.01397139,0.03422549
1761620383398,-0.00957178,0.33072578,-0.09945066,-0.03561291,0.07775225,0.03552824,0.99352065,0.10735046,0.01440680,0.03442445
1761620383409,-0.04479534,0.06794582,0.01893841,-0.03057030,0.08535589,0.04129847,0.99352407,0.10717773,0.01488906,0.03465778
1761620383420,-0.12150228,-0.12453580,0.13761423,-0.03670804,0.10634557,0.04931956,0.99352740,0.10697584,0.01547396,0.03492904
1761620383432,-0.10765068,-0.11251645,0.02288129,-0.05285806,0.12817091,0.06567615,0.99353485,0.10667719,0.01619813,0.03530011
1761620383443,-0.15399985,-0.15893114,-0.03989988,-0.06166133,0.13907234,0.08124465,0.99354253,0.10633497,0.01696998,0.03575102
1761620383454,-0.16641505,-0.02715129,0.01935059,-0.06458971,0.15890827,0.07979398,0.99354934,0.10597650,0.01785192,0.03619388
1761620383465,-0.43186039,0.39084320,-0.51810918,-0.03546791,0.17461468,0.07366964,0.99353734,0.10577788,0.01882976,0.03660643
1761620383476,-0.30600599,0.15217146,-0.21667505,-0.05388737,0.17350253,0.08049649,0.99353382,0.10547611,0.01980138,0.03705721
1761620383487,-0.15528846,0.01489304,0.06413337,-0.07513305,0.19307628,0.05567701,0.99354450,0.10505912,0.02087295,0.03736621
1761620383499,0.31735857,-0.51332650,0.30516696,-0.05665696,0.19664758,0.02268794,0.99354946,0.10474184,0.02197418,0.03749327
1761620383510,-0.04543932,-0.41795216,-0.04861835,-0.05925724,0.20417001,0.01285047,0.99355568,0.10441296,0.02310732,0.03756459
1761620383521,0.05073559,-0.04562008,-0.02784208,-0.05683530,0.19706801,0.01182138,0.99356029,0.10409469,0.02421090,0.03763079
1761620383532,0.08552962,-0.05220871,0.23188031,-0.08409442,0.21610975,0.00169684,0.99357893,0.10362376,0.02542112,0.03764029
1761620383543,-0.05701975,0.00795901,-0.13304608,-0.09310828,0.21484782,0.00565331,0.99360046,0.10310235,0.02662426,0.03767195
1761620383554,-0.04855632,0.01361578,-0.09859045,-0.10080892,0.23894965,-0.01476971,0.99362483,0.10254790,0.02793849,0.03759071
1761620383566,0.62108771,-0.22579409,-0.35024662,-0.09869020,0.21346385,-0.01788589,0.99365140,0.10199030,0.02914456,0.03748966
1761620383577,-0.05626285,0.22239647,0.07767469,-0.10154022,0.21667330,-0.04807516,0.99368339,0.10142168,0.03035793,0.03722044
1761620383588,0.06842370,0.31057945,0.10263555,-0.10206233,0.20243759,-0.05219997,0.99371719,0.10085013,0.03149158,0.03692812
1761620383599,-0.54597714,0.02905682,0.14074296,-0.07632257,0.17899856,-0.06777817,0.99374180,0.10043035,0.03247607,0.03655534
1761620383610,0.09337416,0.26149063,0.14306774,-0.07819654,0.16980893,-0.07142097,0.99376905,0.09999245,0.03342700,0.03615538
1761620383621,0.02975153,-0.16961729,-0.09861888,-0.06549727,0.14157424,-0.06190247,0.99379126,0.09962894,0.03421274,0.03581182
1761620383632,0.00580518,0.20396728,0.23607716,-0.08670640,0.12769924,-0.04524617,0.99382376,0.09914772,0.03492147,0.03556071
1761620383644,0.03905912,-0.08199923,-0.20417726,-0.07186684,0.11071705,-0.04782010,0.99385163,0.09874168,0.03554702,0.03529052
1761620383655,0.09762628,-0.14213905,0.14593425,-0.07734521,0.10607475,-0.03103205,0.99387906,0.09831241,0.03613573,0.03511829
1761620383666,-0.38807676,0.41995345,-0.50441074,-0.08378180,0.08318040,-0.00760293,0.99390982,0.09784323,0.03660154,0.03507572
1761620383677,-0.21139593,0.21762820,-0.03145605,-0.09115161,0.07346007,0.00522156,0.99394307,0.09734190,0.03700557,0.03510444
1761620383688,0.03656175,0.02835437,-0.15156886,-0.08548108,0.06091955,0.02963108,0.99397120,0.09686320,0.03734672,0.03527037
1761620383699,0.53819886,-0.52140548,0.65984099,-0.07363155,0.05812763,0.04050103,0.99398971,0.09647664,0.03765189,0.03548300
1761620383710,0.19632552,0.14691069,0.12306973,-0.05650071,0.05088526,0.04363732,0.99400069,0.09616306,0.03793431,0.03572519
1761620383721,0.05162599,0.09298511,-0.08294404,-0.02958644,0.04044508,0.05569620,0.99399677,0.09599738,0.03816080,0.03603709
1761620383732,0.06788255,0.14564070,0.05660047,-0.01785486,0.04555178,0.06214107,0.99398404,0.09589828,0.03841361,0.03638197
1761620383743,-0.01081611,0.05109583,-0.05419831,-0.00497257,0.04071639,0.05893666,0.99396559,0.09587019,0.03864366,0.03671496
1761620383754,0.00795135,0.03963635,-0.02409818,0.00181552,0.04626416,0.05568982,0.99394334,0.09588017,0.03889811,0.03702126
1761620383766,-0.23740182,0.01334653,-0.28275701,-0.00490186,0.04840150,0.04225509,0.99392635,0.09585248,0.03917158,0.03726000
1761620383777,0.02519634,0.01548910,0.00723259,0.00905254,0.04419207,0.03441720,0.99390443,0.09590317,0.03941906,0.03745273
1761620383788,0.04910211,-0.01148293,-0.08158346,-0.00036718,0.03222381,0.02739907,0.99389177,0.09590113,0.03959790,0.03760480
1761620383799,0.41603761,0.12789528,0.51472561,0.00623904,0.03920511,0.01638350,0.99387629,0.09593576,0.03981549,0.03769573
1761620383810,-0.04094121,0.06144766,-0.03393788,0.02000186,0.03528958,0.00207593,0.99385710,0.09604777,0.04001311,0.03770735
1761620383821,0.11097216,-0.03406384,-0.07024954,0.01652686,0.02660193,0.01817405,0.99383844,0.09613949,0.04016075,0.03780822
1761620383833,-0.00509686,-0.00106342,0.05463567,0.00437403,0.01985413,0.01209893,0.99382891,0.09616421,0.04027293,0.03787658
1761620383844,0.10000657,-0.01488165,0.06822366,-0.01040359,0.01635596,0.00758981,0.99382921,0.09610647,0.04036370,0.03791870
1761620383855,0.04313296,0.05076930,0.06472512,-0.01409604,0.00957940,0.00436000,0.99383372,0.09602753,0.04041735,0.03794312
1761620383866,-0.20413141,0.46724810,0.11271717,-0.01578969,-0.00627721,0.00307360,0.99384295,0.09593990,0.04038251,0.03796017
1761620383877,0.07159717,0.09705529,-0.01548047,-0.00997116,-0.01210864,0.00587879,0.99384977,0.09588456,0.04031530,0.03799280
1761620383888,0.07243049,0.06753651,-0.00513691,-0.00336885,-0.02483823,0.01646266,0.99385370,0.09586569,0.04017621,0.03808499
1761620383899,0.22104590,-0.38815528,-0.09156974,0.01280582,-0.04157760,0.01946880,0.99385200,0.09593676,0.03994545,0.03819304
1761620383911,0.06792713,-0.08150624,0.02232845,0.00289173,-0.03633140,0.01234681,0.99385593,0.09595296,0.03974200,0.03826219
1761620383922,0.03184310,-0.12924492,-0.01829659,-0.00636109,-0.05707515,-0.00955734,0.99387383,0.09591797,0.03942809,0.03820962
1761620383933,0.05567553,-0.01509965,0.09929935,0.00203980,-0.06284870,-0.01775093,0.99389059,0.09592950,0.03907299,0.03810933
1761620383944,0.06962786,0.24873210,0.01061714,0.01218407,-0.07362460,-0.01572152,0.99390339,0.09599712,0.03866437,0.03802207
1761620383955,0.06966211,0.12269481,-0.05031153,0.04072790,-0.07508653,0.00080133,0.99389748,0.09622316,0.03824764,0.03802652
1761620383966,0.00448624,-0.22837437,-0.22533931,0.04070038,-0.07214759,0.01956506,0.99388666,0.09645108,0.03784362,0.03813609
1761620383978,-0.02850987,-0.04205207,0.03801317,0.04306618,-0.06311207,0.01294771,0.99387383,0.09669225,0.03749019,0.03820859
1761620383989,-0.02026628,-0.04206809,0.06904013,0.01589944,-0.05808467,-0.00115215,0.99387760,0.09678049,0.03716782,0.03820220
1761620384000,-0.02362981,0.14854512,0.19006583,0.00310879,-0.06454883,0.00186843,0.99388895,0.09679790,0.03680635,0.03821266
1761620384011,-0.04775448,0.01544322,0.05977949,0.00207043,-0.06650468,-0.00928690,0.99390341,0.09680939,0.03643724,0.03816112
1761620384022,-0.02515576,0.04952541,0.02709082,0.02344211,-0.04895675,-0.00763894,0.99390228,0.09693949,0.03616553,0.03811872
1761620384033,-0.00756839,0.04139497,-0.00626704,0.02887248,-0.03523055,0.00012978,0.99389363,0.09710118,0.03596824,0.03811945
1761620384044,-0.03611251,0.12657196,0.15205267,0.02886694,-0.02562953,-0.01387753,0.99388599,0.09726284,0.03582472,0.03804174
1761620384056,-0.18232745,0.12150430,-0.08130702,0.04926407,-0.03294404,-0.00597632,0.99386704,0.09753625,0.03564188,0.03800857
1761620384067,-0.76772898,0.64804048,-0.27294138,0.05451083,-0.01707228,-0.00541144,0.99384161,0.09784151,0.03554627,0.03797826
1761620384078,-0.09032577,-0.03363190,-0.04968954,0.02252799,-0.02195155,-0.01414454,0.99383664,0.09796654,0.03542444,0.03789976
1761620384089,0.05998682,-0.10957270,0.09675293,0.00726538,-0.01494947,-0.00425017,0.99383652,0.09800687,0.03534147,0.03787617
1761620384100,0.64910133,-0.66698661,0.24444751,0.00374470,-0.00859797,0.00154602,0.99383583,0.09802802,0.03529289,0.03788491
1761620384111,-0.07335822,-0.11077296,0.06521506,0.00844215,-0.01245197,0.00877067,0.99383184,0.09807445,0.03522441,0.03793315
1761620384122,0.06982044,-0.04166313,0.08901270,0.00194457,-0.00596021,0.00295098,0.99383132,0.09808525,0.03519133,0.03794952
1761620384134,-0.03277351,-0.05956038,-0.08061531,-0.00200304,-0.01541231,0.01645221,0.99383195,0.09807403,0.03510502,0.03804166
1761620384145,-0.01900658,-0.04217086,-0.01140395,0.00531607,-0.01220267,0.01667435,0.99382785,0.09810380,0.03503669,0.03813503
1761620384156,-0.02902588,0.02306845,-0.00390467,-0.00193911,-0.00894678,0.01767724,0.99382689,0.09809304,0.03498703,0.03823314
1761620384167,-0.35798585,-0.65435218,-0.35992091,-0.00246000,0.00076277,0.01723126,0.99382441,0.09807938,0.03499126,0.03832877
1761620384178,-0.11251555,-0.21159271,-0.11838875,0.00771253,0.00450222,0.01803168,0.99381536,0.09812258,0.03501648,0.03842975
1761620384190,0.01221944,-0.06863810,-0.01369363,0.01729129,0.00918622,0.02754730,0.99379769,0.09822114,0.03506884,0.03858677
1761620384200,0.22403109,0.66777508,0.38194599,0.01791960,0.00488367,0.01616759,0.99378367,0.09831880,0.03509545,0.03867489
1761620384212,0.14028288,0.16214383,0.06419424,0.02325111,0.00788331,0.02231131,0.99376452,0.09844784,0.03513921,0.03879871
1761620384223,0.04674592,0.07109811,-0.00325338,0.02946286,0.00332608,0.01886586,0.99374337,0.09861283,0.03515783,0.03890436
1761620384234,0.04581183,0.01085700,0.13673179,0.03956415,0.01517710,0.03137461,0.99371203,0.09883044,0.03524131,0.03907692
1761620384245,0.05256830,-0.01152642,0.00860572,0.01592523,0.00301658,0.02111296,0.99369764,0.09892121,0.03525850,0.03919727
1761620384256,-0.00142583,-0.02306953,0.12598250,-0.00933027,0.01040118,0.01843907,0.99369671,0.09886943,0.03531623,0.03929960
1761620384267,-0.75647441,0.00936329,-0.06511201,0.01213264,-0.00855042,0.02215344,0.99368691,0.09893616,0.03526920,0.03942145
1761620384279,0.13875896,0.00970124,0.00987323,-0.01242275,-0.00152145,0.02618099,0.99368833,0.09886535,0.03526053,0.03957068
1761620384290,0.08673223,-0.06097658,0.03311657,-0.00391370,-0.00896734,0.00801733,0.99369046,0.09884382,0.03521121,0.03961477
1761620384301,0.83760284,-0.06710836,-0.11348658,-0.00881309,-0.01761002,0.00020551,0.99369882,0.09879447,0.03511259,0.03961592
1761620384312,0.04371159,0.11530768,-0.03033896,-0.00006007,-0.02661303,0.00698770,0.99370251,0.09879413,0.03496489,0.03965471
1761620384323,0.06772705,0.11779670,-0.00000000,0.00662426,-0.02859927,0.02116527,0.99369973,0.09883090,0.03480616,0.03977217
1761620384334,-0.05152325,-0.00389442,0.03006807,0.00637789,-0.02493296,0.01698386,0.99369725,0.09886662,0.03466654,0.03986728
1761620384345,0.05585754,-0.04063731,0.00449210,-0.00247937,-0.01364458,0.01774452,0.99369730,0.09885285,0.03459081,0.03996577
1761620384357,0.02006784,-0.25083383,-0.06476211,-0.00602794,-0.01560806,0.01337601,0.99370071,0.09881880,0.03450263,0.04004134
1761620384368,-0.07654613,-0.70443574,-0.11596653,-0.00355064,-0.01608784,-0.00347890,0.99370655,0.09879909,0.03441334,0.04002203
1761620384379,0.03289600,-0.07268564,0.09288282,-0.00372740,-0.02795492,-0.02056068,0.99371855,0.09877840,0.03425819,0.03990792
1761620384390,0.08549538,0.21328308,0.19400413,-0.00674662,-0.03807288,-0.02369134,0.99373495,0.09874062,0.03404498,0.03977525
1761620384401,0.23758229,0.58231419,0.12924477,0.00167203,-0.03535799,-0.01255383,0.99374360,0.09874999,0.03384698,0.03970495
1761620384412,0.00297170,0.08609229,0.02214951,0.00125913,-0.05231834,0.00058137,0.99375262,0.09875697,0.03355661,0.03970817
1761620384424,0.06737919,0.03495242,-0.05236228,0.00909817,-0.05112678,0.00931941,0.99375510,0.09880792,0.03327030,0.03976036
1761620384435,0.01135119,0.00470375,-0.02843845,-0.01291314,-0.04714679,0.01495279,0.99376762,0.09873626,0.03300863,0.03984335
1761620384446,0.02128565,-0.09409223,0.00000000,-0.01227803,-0.05077135,0.01201557,0.99378103,0.09866811,0.03272685,0.03991004
1761620384457,-0.10089431,-0.11593573,-0.05291989,-0.01745655,-0.05274740,0.01399861,0.99379741,0.09856948,0.03242883,0.03998913
1761620384468,-0.46379415,0.19708047,-0.13642851,-0.05315000,-0.05752354,-0.00158043,0.99383699,0.09827716,0.03211245,0.03998044
1761620384479,0.02244668,0.02769663,-0.14375727,-0.02870877,-0.05395088,0.01195774,0.99385969,0.09811782,0.03181302,0.04004680
1761620384490,0.03870117,0.01161035,-0.05031153,-0.01106071,-0.04248005,0.00474800,0.99387220,0.09805644,0.03157726,0.04007315
1761620384502,0.36714226,-0.11084413,0.12925507,-0.01255460,-0.03276653,0.01447614,0.99388176,0.09798550,0.03139213,0.04015494
1761620384513,-0.00996641,-0.05702055,-0.07353223,-0.01641889,-0.01609844,0.02666661,0.99388757,0.09789438,0.03130278,0.04030294
1761620384524,-0.05393760,-0.01885997,-0.06777302,-0.01448444,-0.00562020,0.02399509,0.99389109,0.09781327,0.03127131,0.04043732
1761620384535,-0.01140395,-0.02049147,0.07222502,-0.01241280,0.00921224,0.02034291,0.99389166,0.09774375,0.03132290,0.04055124
1761620384546,0.00594339,-0.03557992,0.06129989,-0.04014790,0.00061731,0.00756105,0.99391173,0.09752093,0.03132632,0.04059320
1761620384557,-0.01741553,-0.24732469,-0.03483106,-0.03969423,0.00132609,-0.01748435,0.99393704,0.09730063,0.03133368,0.04049616
1761620384570,-0.02327309,-0.35255235,0.07442440,-0.04943298,-0.00316596,-0.00658183,0.99396954,0.09699167,0.03131390,0.04045503
1761620384580,-0.07072738,-0.39125961,0.06936919,-0.05051501,0.01269515,-0.02421058,0.99399625,0.09674668,0.03137547,0.04033760
1761620384591,-0.00979689,0.21765347,-0.02579723,-0.04577408,0.00632644,-0.01643379,0.99402426,0.09648576,0.03141153,0.04024393
1761620384602,0.15811608,0.37805458,-0.28097234,-0.03717975,-0.00041678,-0.01628978,0.99404779,0.09628128,0.03140924,0.04015434
1761620384613,0.08210875,0.06594257,0.01573341,-0.03551822,-0.00295961,-0.01073675,0.99407058,0.09607705,0.03139222,0.04009260
1761620384626,0.07575172,0.07401319,0.08611775,-0.03098897,-0.02028898,-0.00356944,0.99409512,0.09587562,0.03126034,0.04006940
1761620384635,0.08599323,-0.28177456,0.22931527,-0.04653730,-0.04280554,-0.00897814,0.99412203,0.09567318,0.03107414,0.04003035
1761620384647,0.09088533,0.22234502,-0.04007575,-0.04604951,-0.03739535,0.00452294,0.99415313,0.09540840,0.03085911,0.04005635
1761620384660,0.00089074,0.10840991,-0.02477673,-0.02792846,-0.05145252,0.01125230,0.99417848,0.09522267,0.03051695,0.04013118
1761620384669,-0.03998941,0.68560012,-0.52183124,-0.03819819,-0.07118434,-0.00651173,0.99420559,0.09505269,0.03020018,0.04010220
1761620384679,0.05154131,-0.01755711,0.26372509,-0.03770634,-0.06373133,0.00127921,0.99423406,0.09485662,0.02986878,0.04010885
1761620384717,-0.03865583,-0.04116233,0.02919757,-0.00731934,-0.02028898,-0.00261269,0.99426089,0.09471718,0.02948228,0.04005908
1761620384719,32.78313997,2.39748342,9.23075414,-0.09566750,-1.05517099,-0.29102107,0.99431495,0.09461673,0.02837435,0.03975351
1761620384741,-3.11785605,-0.15546959,-0.80746341,0.01185343,-0.03953598,-0.01238333,0.99432017,0.09474416,0.02794933,0.03962039
1761620384747,1.44544478,0.76506915,0.40976204,0.02844276,-0.20224886,-0.04951397,0.99433626,0.09483802,0.02728191,0.03945699
1761620384760,-0.63007024,-0.47236138,-0.20448791,-0.00601046,-0.07409039,-0.02185335,0.99435853,0.09479925,0.02680403,0.03931604
1761620384772,-0.07904341,-0.51304399,-0.10377976,-0.01814699,-0.08357815,-0.03145233,0.99438793,0.09469672,0.02633181,0.03913833
1761620384784,-0.02526018,0.04549874,-0.03581687,-0.00226966,-0.06830612,-0.01059879,0.99440334,0.09468231,0.02589807,0.03907103
1761620384795,0.08436032,0.16977193,-0.05800692,0.03335000,-0.09318955,-0.00892114,0.99440121,0.09485073,0.02542746,0.03902598
1761620384806,-0.00471302,0.38135429,0.04231548,0.03550537,-0.06464607,0.00376778,0.99439001,0.09506021,0.02504605,0.03904821
1761620384818,0.00705732,0.12439563,-0.07111379,0.01213318,-0.06851443,-0.00209503,0.99439369,0.09513058,0.02464867,0.03903606
1761620384830,-0.05664964,-0.10516379,-0.04804635,0.04644670,-0.06586544,-0.00019702,0.99437718,0.09540229,0.02426335,0.03903491
1761620384841,-0.02097183,-0.00041023,-0.05025630,0.02528140,-0.06515125,-0.00452899,0.99437321,0.09555145,0.02387896,0.03900819
1761620384853,-0.07362826,-0.00412019,-0.06506683,-0.00401483,-0.06289277,-0.02231474,0.99438948,0.09552777,0.02350789,0.03887653
1761620384865,-0.28399930,0.07869793,0.11930882,0.01524219,-0.04897616,-0.01682534,0.99439142,0.09561388,0.02323118,0.03878146
1761620384880,-0.03602645,0.00878716,0.01190836,0.01283466,-0.04270750,0.00140240,0.99438915,0.09571143,0.02290660,0.03879212
1761620384890,-0.13707115,0.16194184,-0.18752922,0.02106797,-0.05152176,-0.00628833,0.99438592,0.09582414,0.02263096,0.03875848
1761620384898,0.53286412,-0.14037221,-0.35060138,0.00719470,-0.04638584,0.02520398,0.99438345,0.09585256,0.02244774,0.03885804
1761620384910,-0.09718723,-0.21645845,0.11912054,0.00046469,-0.04809503,0.01660182,0.99438562,0.09585519,0.02217600,0.03895184
1761620384922,0.02584885,-0.13489008,0.08905817,-0.00310441,-0.03141704,0.01126699,0.99438914,0.09583547,0.02197650,0.03902338
1761620384935,-0.01974031,-0.03755299,-0.15729769,-0.02321412,-0.04274857,0.01076022,0.99440634,0.09569038,0.02170932,0.03909063
1761620384943,-0.07079572,-0.18214135,-0.17938160,-0.02692036,-0.03962265,0.01477743,0.99441840,0.09557732,0.02154291,0.03915270
1761620384954,0.03801317,-0.06925524,0.06082107,-0.02792982,-0.02419358,0.01941985,0.99443205,0.09542091,0.02140742,0.03926145
1761620384966,-0.16667918,-0.30299387,-0.16331193,-0.03714966,-0.02913073,0.01665875,0.99445304,0.09519987,0.02123410,0.03936057
1761620384978,-0.10617286,-0.37534156,-0.25252090,-0.04830919,-0.02999593,0.02239917,0.99447793,0.09492451,0.02106312,0.03948824
1761620384989,0.08947513,0.04269234,0.02070092,-0.05345134,-0.02593590,0.03360615,0.99450139,0.09463320,0.02092177,0.03967140
1761620385001,0.15034831,0.39811762,0.22031238,-0.03572658,-0.02588355,0.01524406,0.99452137,0.09441884,0.02076647,0.03976286
1761620385013,0.10865861,0.14987959,0.12701790,-0.00698960,-0.01822047,0.01871273,0.99452317,0.09437585,0.02065441,0.03987795
1761620385022,0.04383301,-0.03676725,-0.35272517,-0.02320102,-0.04086818,0.02631327,0.99453232,0.09426913,0.02046642,0.03999899
1761620385035,0.01221842,0.07009339,0.28278170,-0.02381581,-0.02212985,0.01593764,0.99454607,0.09411075,0.02031925,0.04010497
1761620385048,0.01165887,-0.05028444,-0.06203986,-0.01156406,-0.01472747,0.01435095,0.99455124,0.09403732,0.02022573,0.04019610
1761620385055,0.09994245,-0.40879042,-0.45444399,-0.04596827,-0.04184600,0.00282455,0.99456977,0.09386954,0.02007300,0.04020641
1761620385067,-0.39367060,0.52024338,0.10445810,-0.05326971,-0.04038734,-0.02046355,0.99460705,0.09357123,0.01984683,0.04009181
1761620385078,-0.00183455,0.18278787,-0.12881187,-0.03471211,-0.04914802,-0.00014511,0.99463122,0.09337337,0.01956668,0.04009099
1761620385090,0.09942679,0.06806260,0.09301941,-0.01925221,-0.03437509,0.01564597,0.99464249,0.09325593,0.01935700,0.04018643
1761620385103,0.23924076,-0.14191352,0.24579212,-0.02046498,-0.03466928,0.00793236,0.99465757,0.09311984,0.01912645,0.04023918
1761620385111,0.47014291,-0.08374815,-0.43446857,-0.01952239,-0.05103403,0.02547450,0.99466457,0.09304272,0.01892486,0.04033980
1761620385123,-0.07719200,-0.03708262,0.28650381,-0.03084120,-0.02970705,0.01901483,0.99467967,0.09286847,0.01875702,0.04044724
1761620385135,-0.08143624,-0.04980927,-0.06092333,-0.01369386,-0.04870712,-0.00358539,0.99469368,0.09278631,0.01846477,0.04042572
1761620385147,0.05519266,0.00022206,-0.07551177,-0.01933046,-0.05155259,-0.01183674,0.99471275,0.09267226,0.01816061,0.04035589
1761620385156,0.22600451,-0.07814001,-0.27014167,-0.02012717,-0.05244036,-0.00916716,0.99472857,0.09257263,0.01790103,0.04031051
1761620385168,-0.27325323,-0.03275396,-0.05114499,-0.02879872,-0.05518743,0.00066675,0.99474893,0.09241136,0.01759198,0.04031424
1761620385179,0.00458456,-0.01772663,-0.03214195,-0.03478405,-0.04428145,0.00259530,0.99477096,0.09221483,0.01734179,0.04032891
1761620385191,-0.07633564,-0.04968017,0.06561874,-0.01449559,-0.03496497,-0.00284591,0.99478376,0.09212495,0.01712501,0.04031126
1761620385202,0.17928341,0.00035441,-0.06039853,-0.03375326,-0.04193311,0.00139182,0.99480419,0.09194269,0.01689857,0.04031878
1761620385213,0.02366765,-0.12747457,-0.02727187,-0.05467646,-0.03604052,-0.00104064,0.99483410,0.09165563,0.01670936,0.04031331
1761620385224,-0.10527574,-0.03895648,0.12798227,-0.05483989,-0.01550821,-0.01057887,0.99486562,0.09135402,0.01662406,0.04025513
1761620385235,-0.08020778,0.09625862,-0.10111502,-0.04049322,-0.02020184,-0.01611084,0.99489195,0.09112725,0.01651093,0.04016491
1761620385247,-0.07085303,0.13482939,-0.01161337,-0.01985517,-0.00902375,-0.00428163,0.99490500,0.09100614,0.01645589,0.04013879
1761620385257,0.03225462,0.11762357,-0.12529751,-0.03160369,0.00873233,0.01027809,0.99491700,0.09084338,0.01650086,0.04019172
1761620385283,-0.10875820,-0.02850555,0.32066380,-0.01207333,-0.00094573,0.00105890,0.99493091,0.09068703,0.01648861,0.04020544
1761620385288,-1.46795884,-4.17859973,-7.51863575,-0.13977410,0.00996568,-0.00128502,0.99496241,0.09033759,0.01651353,0.04020222
1761620385326,0.19119896,0.55402331,1.03271995,-0.01434819,-0.00039794,-0.00546956,0.99499114,0.09006785,0.01650605,0.04009940
1761620385328,-2.98657316,-17.19417645,-86.10081165,-0.40524683,-0.19711161,0.01859153,0.99503024,0.08966260,0.01630893,0.04011799
1761620385346,0.34831225,2.01723207,9.05512183,0.00005995,-0.00023131,0.00681531,0.99502771,0.08966315,0.01630682,0.04018035
1761620385360,-0.09888242,0.07999050,-0.10273775,0.01969485,-0.00440227,0.00412432,0.99501462,0.08980101,0.01627600,0.04020922
1761620385377,0.02343496,-0.11045548,0.22564801,0.00668826,0.00321718,0.00537420,0.99500736,0.08985653,0.01630270,0.04025382
1761620385392,-0.16516501,-0.20391816,-0.21784469,-0.00906101,-0.00452229,0.00242498,0.99501352,0.08978630,0.01626766,0.04027262
1761620385394,-10.58023987,-18.40803764,-34.46672415,-0.30216827,0.01705552,-0.07741079,0.99504059,0.08951435,0.01628301,0.04020295
1761620385424,0.73314523,1.15617809,2.31517674,-0.02098188,-0.00655455,-0.00424790,0.99507292,0.08920067,0.01618502,0.04013944
1761620385425,-12.36307840,-6.24749086,-75.58893410,0.03626218,-0.08435815,0.01585210,0.99507077,0.08923149,0.01611331,0.04015292
1761620385471,0.47018234,0.29440049,2.87536062,0.00767940,0.00056284,0.00427442,0.99505126,0.08940351,0.01612592,0.04024866
1761620385498,-0.26454704,-0.00591733,-0.33737756,0.00562807,0.01120074,0.01070209,0.99503561,0.08948202,0.01628217,0.04039796
1761620385503,-9.28306067,-1.50091028,-13.55910663,-0.23480625,0.02607123,-0.01886287,0.99508480,0.08894197,0.01634213,0.04035457
1761620385526,2.07644921,0.39130144,2.77625936,0.02302957,-0.00135468,-0.00515516,0.99506366,0.08920796,0.01632649,0.04029503
1761620385550,0.06415778,-0.02164608,0.13016723,0.02855008,0.00472135,-0.00031202,0.99503198,0.08955199,0.01638338,0.04029127
1761620385558,-0.00041214,0.15688126,-1.64214634,0.03914543,0.00795244,-0.00852543,0.99501890,0.08970661,0.01641479,0.04025760
1761620385573,0.08400512,-0.32046113,0.64834263,-0.00405956,-0.00525147,0.00171460,0.99502173,0.08967657,0.01637593,0.04027028
1761620385587,0.02085174,-0.02590538,-0.10270878,-0.01638631,-0.02638980,-0.01893877,0.99504071,0.08956023,0.01618856,0.04013582
1761620385595,0.22536480,-0.22121841,-1.05292199,-0.01939162,-0.08679666,-0.04264430,0.99505990,0.08948363,0.01584572,0.03996737
1761620385622,-0.01092926,0.09638734,0.57671970,-0.00560553,-0.02680678,-0.00398122,0.99507472,0.08940712,0.01547980,0.03991303
1761620385627,3.29063448,-1.04579023,-9.91098401,-0.23429555,-0.27953432,-0.03816043,0.99514561,0.08878624,0.01473904,0.03981190
1761620385650,-0.70578920,0.21456542,2.16159832,-0.02676795,-0.03724498,0.01253514,0.99517301,0.08848376,0.01431817,0.03995355
1761620385653,13.90048497,-13.55349868,-51.19643602,-0.50195403,-0.42091745,0.20949944,0.99521923,0.08793161,0.01385516,0.04018400
1761620385673,-1.59133117,1.30465754,5.37302830,-0.06564850,-0.02373360,0.01774668,0.99527552,0.08724558,0.01360714,0.04036945
1761620385698,-0.06026209,0.00117520,0.03005027,-0.07327387,-0.02714814,0.00980512,0.99535341,0.08634798,0.01327458,0.04048957
1761620385709,0.66839247,-1.87919848,-3.14516425,-0.34911090,-0.15432400,0.08582353,0.99551676,0.08434059,0.01238722,0.04098305
1761620385720,0.36527898,1.48919352,1.37856382,-0.19186288,-0.11071702,0.06368200,0.99559482,0.08333331,0.01180595,0.04131738
1761620385731,0.00479440,-0.30504155,0.34956708,-0.11559093,-0.10028746,0.06288373,0.99564305,0.08265132,0.01121426,0.04168840
1761620385739,0.86193235,-1.01793633,-1.11306638,-0.14088444,-0.14075862,0.09091061,0.99567963,0.08210187,0.01066530,0.04204295
1761620385753,-0.66756935,0.88518540,0.89189133,-0.08088920,-0.10037913,0.03489653,0.99572371,0.08152756,0.00995261,0.04229071
1761620385775,-0.06492527,0.03166906,0.44753838,-0.04853179,-0.06083223,0.03462565,0.99575733,0.08099614,0.00928649,0.04266986
1761620385787,1.08853760,-1.45596041,-2.04439337,-0.10182866,-0.17439261,0.06646997,0.99579718,0.08041062,0.00828374,0.04305207
1761620385808,-0.49144056,0.87700871,1.12867526,-0.05196836,-0.07500906,0.01164899,0.99584246,0.07985976,0.00748864,0.04317555
1761620385820,3.14143611,-2.04744706,-4.84607840,-0.15312381,-0.38212758,0.00699179,0.99592573,0.07897164,0.00527230,0.04321610
1761620385825,1.81081888,-0.48548373,-0.90009392,-0.24001961,-0.45897621,-0.05051761,0.99599318,0.07827558,0.00394127,0.04306960
1761620385838,-2.10073659,1.41749455,3.39778899,-0.13766402,-0.22065932,-0.00670267,0.99606500,0.07743583,0.00259525,0.04302871
1761620385861,-0.64996600,0.27969015,0.75555464,-0.07361216,-0.11581003,0.01123941,0.99612717,0.07659297,0.00126922,0.04315740
1761620385863,75.49218986,-35.36419602,-77.39719811,-0.94404100,-1.37432066,0.00249699,0.99620714,0.07555453,-0.00024253,0.04316015
1761620385882,-8.56981397,4.11574281,8.61873192,-0.07830634,-0.13768673,-0.00315101,0.99626397,0.07480279,-0.00156432,0.04312990
1761620385893,1.88074719,-0.32953362,-1.53159139,-0.17950451,-0.28277113,-0.00153946,0.99633245,0.07384244,-0.00307715,0.04312166
1761620385904,-0.04468081,-0.69724554,0.50215331,-0.14115826,-0.28149602,-0.01029542,0.99638805,0.07303784,-0.00468168,0.04306298
1761620385915,0.31229135,0.01175975,0.43189818,-0.19559196,-0.29998483,-0.02458379,0.99646303,0.07196208,-0.00633159,0.04292777
1761620385926,0.05714164,-0.24223623,-0.24432978,-0.19268148,-0.32515405,-0.04132037,0.99653580,0.07090233,-0.00811994,0.04270051
1761620385928,90.50694379,-39.54835913,-62.42231889,-1.15014192,-1.84136686,-0.25325012,0.99661108,0.06975219,-0.00996131,0.04244726
1761620385938,-17.19258870,8.38038974,12.16835930,-0.17716866,-0.36781282,-0.09814780,0.99667518,0.06883977,-0.01185554,0.04194179
1761620385951,-0.66322595,0.39539663,0.28991836,-0.10435379,-0.33248148,-0.12273700,0.99672398,0.06820321,-0.01388368,0.04119310
1761620385972,0.54051648,0.13710248,0.78877279,-0.03407092,-0.20491799,-0.08015037,0.99675053,0.06784547,-0.01603532,0.04035152
1761620385983,7.43301952,-0.25916673,0.96268825,-0.08001844,-0.38515474,-0.17189880,0.99678318,0.06738536,-0.01824996,0.03936310
1761620385992,0.97943297,-0.52732314,-0.95445575,-0.04800308,-0.48177892,-0.18554207,0.99678840,0.06716215,-0.02049023,0.03850033
1761620386005,-5.94018568,0.64496132,-0.62022453,-0.02952550,-0.33102924,-0.12635443,0.99678622,0.06697318,-0.02260882,0.03769166
1761620386015,-2.69088930,-0.69124903,-2.04559135,-0.01981613,-0.40485428,-0.11217274,0.99676528,0.06687113,-0.02469382,0.03711397
1761620386017,81.43216285,-15.62039078,-65.61560397,-0.45415988,-2.19555448,-0.47556443,0.99675699,0.06643968,-0.02677959,0.03666219
1761620386030,-12.74176318,3.02578465,10.43742501,-0.03727360,-0.29453019,-0.06548189,0.99673559,0.06619926,-0.02867931,0.03623983
1761620386041,0.32540487,0.21853225,-0.39619201,-0.03726983,-0.33335071,-0.08472295,0.99671134,0.06599242,-0.03052941,0.03576962
1761620386053,-0.32850368,0.17597473,-0.14896966,-0.01692028,-0.31072472,-0.08622311,0.99667971,0.06589682,-0.03228501,0.03528246
1761620386064,1.27030127,-0.11369664,0.63267683,0.00496629,-0.27472674,-0.09797168,0.99664455,0.06592587,-0.03389216,0.03470932
1761620386076,0.35590651,0.13150432,0.34195944,-0.02974397,-0.25114786,-0.11985951,0.99662903,0.06575038,-0.03537393,0.03400215
1761620386096,-1.01753983,-0.08602229,0.46231215,-0.02428696,-0.13704901,-0.07439624,0.99662049,0.06550630,-0.03675127,0.03325447
1761620386098,57.64057720,-24.57885556,-80.29167294,-0.21103656,-1.46351090,-0.93550514,0.99661067,0.06530581,-0.03814161,0.03236574
1761620386116,-6.94282952,2.39500345,8.33458761,-0.02480899,-0.13837457,-0.11060908,0.99660874,0.06508749,-0.03935930,0.03139238
1761620386127,0.37737600,0.08851069,-0.61261580,-0.06207004,-0.21094284,-0.16565165,0.99661287,0.06473369,-0.04056168,0.03044816
1761620386166,-0.35040080,0.09345690,0.39456696,-0.01431077,-0.05274250,-0.04644760,0.99661582,0.06445607,-0.04158488,0.02954708
1761620386184,1.87581516,-0.76139306,-2.26228414,-0.09596561,-0.30026312,-0.30927758,0.99663340,0.06360197,-0.04425722,0.02679451
1761620386194,0.46531393,-0.26834018,0.43641660,-0.15179097,-0.28704515,-0.37026414,0.99666427,0.06285820,-0.04566375,0.02498022
1761620386205,-2.18919678,0.29237368,1.90526871,-0.12568682,-0.17222193,-0.21244376,0.99669383,0.06212921,-0.04666263,0.02374804
1761620386226,-0.59398339,0.31620932,0.54147885,-0.03376958,-0.07715772,-0.11004368,0.99670433,0.06177970,-0.04746121,0.02260909
1761620386237,0.26119594,-0.42348812,-0.33605401,-0.03298768,-0.13040174,-0.20024056,0.99670554,0.06159332,-0.04819798,0.02147773
1761620386248,0.20912273,0.25463493,0.39210511,-0.06051733,-0.12252698,-0.16023929,0.99671199,0.06125139,-0.04889026,0.02057238
1761620386260,0.03803402,0.00425420,-0.38238229,-0.04293364,-0.11126879,-0.12429711,0.99671004,0.06100452,-0.04953006,0.01985767
1761620386270,0.31431857,-0.07109307,0.54946985,-0.04813825,-0.11794424,-0.09405403,0.99670422,0.06075180,-0.05014926,0.01936389
1761620386281,0.10620335,0.03696608,-0.01708580,-0.06451456,-0.10996723,-0.06737228,0.99670232,0.06040019,-0.05074859,0.01899671
1761620386293,-0.11184225,0.03509643,0.33766852,-0.05579587,-0.09012796,-0.03324172,0.99669866,0.06006542,-0.05128935,0.01879726
1761620386304,-0.15823532,-0.01511385,0.42738432,-0.10220249,-0.10575129,-0.03031116,0.99670494,0.05954419,-0.05182869,0.01864267
1761620386315,0.06178127,0.00501229,0.37182255,-0.11503206,-0.11588588,-0.04804087,0.99671433,0.05889426,-0.05248344,0.01837124
1761620386327,-0.08748474,0.00693782,0.19966127,-0.05020503,-0.13677012,-0.08749580,0.99669849,0.05860056,-0.05328355,0.01785939
1761620386338,0.00148851,0.20229426,0.15659090,-0.01348483,-0.16199519,-0.12059153,0.99666619,0.05852572,-0.05418262,0.01719011
1761620386348,0.01986761,0.48191841,0.11702939,0.01487334,-0.17770051,-0.14272716,0.99662225,0.05860529,-0.05513332,0.01642652
1761620386360,-0.14887235,0.35300172,-0.13406403,0.05797778,-0.14713831,-0.08418091,0.99656070,0.05895315,-0.05601615,0.01592143
1761620386372,0.35504297,0.19014899,0.17334004,0.08549145,-0.12695856,-0.03265099,0.99649495,0.05943191,-0.05672711,0.01573859
1761620386382,0.20951817,0.16421421,0.47239799,0.05131649,-0.12329935,-0.00746313,0.99644391,0.05969362,-0.05735594,0.01570052
1761620386385,11.53135611,3.04579155,11.47726665,0.05253095,-0.30521395,0.06018206,0.99640803,0.05978030,-0.05785954,0.01579982
1761620386406,-2.27878841,-0.63562732,-2.13378288,0.01883298,-0.03791574,0.00843888,0.99637171,0.05997710,-0.05825576,0.01588801
1761620386408,39.97787066,18.63020137,51.96728460,0.36987373,-0.49244015,0.03830929,0.99632765,0.06029149,-0.05867434,0.01592057
1761620386428,-3.45840708,-1.48333830,-4.34252655,0.03165102,-0.02635666,-0.02570984,0.99629681,0.06060959,-0.05893922,0.01566219
1761620386440,0.32637686,0.28954230,0.33587933,0.09116873,-0.03002433,-0.03669435,0.99625513,0.06117027,-0.05912387,0.01543652
1761620386462,-0.22740931,-0.15028652,-0.26295868,0.04901205,-0.02322964,-0.02323982,0.99621081,0.06170696,-0.05937824,0.01518204
1761620386474,1.00126941,0.40429633,1.67964848,0.13622216,-0.02550714,-0.09973857,0.99615922,0.06253110,-0.05953255,0.01457862
1761620386485,-0.67935267,-0.94226080,-1.14440053,0.03181976,-0.02251204,-0.10054484,0.99614895,0.06270293,-0.05965412,0.01403568
1761620386496,0.01430839,0.12877547,-0.05314543,-0.00208071,-0.05156900,-0.09875126,0.99614031,0.06269169,-0.05993259,0.01350243
1761620386500,2.99299716,1.88057235,7.41115954,0.06195186,-0.13605327,-0.15355147,0.99611920,0.06282179,-0.06021830,0.01317997
1761620386515,-1.08539633,-0.27176796,-2.15872897,0.00549019,-0.06297965,-0.05204473,0.99609232,0.06286406,-0.06070325,0.01277922
1761620386528,0.07783003,-0.02336630,0.06397892,0.03653995,-0.07062234,-0.06177219,0.99605429,0.06310157,-0.06116229,0.01237770
1761620386540,-0.05825260,-0.01894589,0.11754104,0.02146907,-0.10354749,-0.06764584,0.99601414,0.06322610,-0.06176287,0.01198536
1761620386542,16.41601741,3.52923282,47.71416515,0.00624955,-0.59111185,-0.36840028,0.99598458,0.06323172,-0.06229487,0.01165380
1761620386552,-2.95003255,-1.04266736,-8.40028127,-0.01602216,-0.11945472,-0.05573089,0.99595535,0.06315161,-0.06289214,0.01137514
1761620386560,-0.10307663,-0.07023404,0.32388474,-0.02701998,-0.12015778,-0.05133700,0.99593191,0.06303272,-0.06342084,0.01114926
1761620386572,-0.17309430,0.00214486,-0.13155167,-0.00117828,-0.07069623,-0.01688858,0.99590638,0.06302565,-0.06384501,0.01104793
1761620386584,-0.07462709,0.14849258,0.20421854,-0.01148660,-0.08594551,-0.00710702,0.99587850,0.06295788,-0.06435209,0.01100600
1761620386592,-0.12339779,-0.13167025,0.76976572,0.00835864,-0.08457351,0.00396648,0.99585399,0.06299173,-0.06469462,0.01102206
1761620386628,-0.04286260,-0.00576717,-0.63792888,0.00514614,-0.01446783,-0.00785970,0.99583320,0.06308230,-0.06494925,0.01088373
1761620386629,-30.25596328,10.73317911,96.31401507,0.88402576,-0.04430383,0.01748985,0.99577971,0.06387793,-0.06498912,0.01089947
1761620386651,2.35894881,-0.82835212,-7.90993119,0.03875446,0.01096460,0.01909520,0.99575811,0.06429841,-0.06487016,0.01110665
1761620386662,-0.36563945,-0.08748283,0.69175481,0.01859613,0.03243830,0.02021667,0.99576183,0.06439976,-0.06469337,0.01121684
1761620386673,0.00638418,-0.17828726,0.13998889,-0.01819685,0.04124182,0.05046430,0.99578066,0.06429513,-0.06445623,0.01150701
1761620386684,-0.35305600,0.12154517,0.30707880,-0.04940422,0.04458476,-0.01236521,0.99581324,0.06403576,-0.06422216,0.01144209
1761620386694,-0.20672265,-0.14005068,-0.13721328,-0.00393473,0.02378336,-0.09023922,0.99582781,0.06401530,-0.06409848,0.01097284
1761620386706,0.18815561,-0.10969000,-0.19108596,0.02067914,0.03252186,-0.07438465,0.99583687,0.06413524,-0.06390986,0.01054141
1761620386716,-0.05260733,-0.14944405,0.18548566,0.01736604,0.04029999,-0.03675480,0.99584621,0.06422294,-0.06370634,0.01035580
1761620386727,0.24811140,0.18870058,-0.18693856,0.02500288,0.05197810,0.00944629,0.99585528,0.06436420,-0.06341267,0.01040917
1761620386738,-0.01269427,0.04155444,0.11895645,0.02236045,0.05854744,0.06473752,0.99586399,0.06448718,-0.06309066,0.01076523
1761620386740,-32.78594127,-9.13008328,60.83737723,0.10017096,0.52929131,0.43400762,0.99588172,0.06456732,-0.06266722,0.01111244
1761620386750,5.38814069,0.95749291,-9.51126760,0.01879292,0.08403547,0.11528726,0.99589551,0.06466223,-0.06224284,0.01169464
1761620386762,0.26582988,-0.08069486,0.02400420,-0.03306893,0.04387287,0.04534977,0.99592134,0.06446547,-0.06198180,0.01196447
1761620386772,0.24621226,-1.17373942,1.32376406,-0.01274098,0.00657486,-0.01311535,0.99592829,0.06440176,-0.06194893,0.01189889
1761620386783,0.99713484,0.10097102,0.40366021,-0.03403961,-0.01594890,-0.06156817,0.99593862,0.06421965,-0.06203425,0.01156950
1761620386795,-0.69447455,1.23357327,-0.90400482,0.00040583,-0.03141930,-0.03264597,0.99592856,0.06422219,-0.06223062,0.01136546
1761620386806,0.18016345,-0.75001341,0.27180033,0.01652276,-0.01748193,0.00829109,0.99591695,0.06430728,-0.06232065,0.01140816
1761620386816,-0.63112190,-0.82511682,-0.09137201,0.06433266,-0.13793591,-0.13124954,0.99585715,0.06464502,-0.06304482,0.01071910
1761620386828,-0.57077343,0.55305805,-0.21367926,-0.00603419,-0.12277043,-0.10276227,0.99582001,0.06460972,-0.06376302,0.01011794
1761620386864,0.22952208,0.32374778,-0.39823064,-0.02240362,-0.04534259,-0.00372197,0.99579410,0.06420534,-0.06458146,0.01005076
1761620386873,-2.36075758,0.33771041,6.76206396,-0.21209885,-0.29058165,0.53907378,0.99573894,0.06319787,-0.06596172,0.01261136
1761620386884,1.46954466,-0.51957662,-4.80945593,0.00210269,0.00642183,0.33914249,0.99571494,0.06320954,-0.06592608,0.01449360
1761620386895,-0.52293869,1.55820410,0.15736020,0.03358526,-0.00881496,0.22792017,0.99568284,0.06338418,-0.06597192,0.01567879
1761620386905,-0.28971621,0.57263554,-0.06246375,0.11288984,-0.03388241,0.04728424,0.99562920,0.06397685,-0.06614980,0.01592703
1761620386917,-0.07531430,-0.60435585,-0.78883590,0.18467334,-0.04303594,-0.03861082,0.99554458,0.06507566,-0.06640586,0.01569730
1761620386928,-0.15225633,-0.74265866,0.12140656,0.15838809,-0.03005045,0.02972742,0.99547492,0.06593096,-0.06656814,0.01585782
1761620386939,0.24992379,-0.57437110,0.25746161,0.13115606,0.01262169,0.10979835,0.99542026,0.06667199,-0.06649682,0.01647818
1761620386951,-0.03360901,-1.25041853,-0.48172914,0.15012568,0.04353272,0.16219118,0.99536389,0.06752020,-0.06625086,0.01739456
1761620386952,-100.74013879,16.86415440,107.99022517,-0.04870386,0.71274226,1.54579911,0.99537979,0.06748611,-0.06575194,0.01847662
1761620386963,13.54631729,0.49808209,-12.97461226,-0.06192946,0.09070559,0.17881510,0.99541558,0.06715788,-0.06527121,0.01942434
1761620386973,0.17486312,0.28668716,-0.21211892,-0.01781211,0.08553924,0.11231271,0.99544023,0.06706169,-0.06480929,0.02003083
1761620386984,-0.23783366,0.48841778,0.60015837,-0.05849113,0.09658618,0.09924879,0.99548475,0.06674292,-0.06428290,0.02057174
1761620386995,0.51802730,-2.45995987,-0.43401477,-0.05590855,0.12773076,0.19669596,0.99552673,0.06644101,-0.06359315,0.02163390
1761620387006,-0.02764816,0.01853953,0.15711886,-0.20243311,0.15586355,0.18543705,0.99563117,0.06533775,-0.06274370,0.02264453
1761620387017,0.26077992,0.02222407,-0.77322893,-0.11188792,0.17584504,0.17643465,0.99570930,0.06472237,-0.06177655,0.02361492
1761620387029,0.24212519,0.32474267,-1.31319507,0.06467904,0.16122140,0.07107660,0.99573275,0.06510074,-0.06083340,0.02403072
1761620387040,-1.31104811,1.29154200,1.09487666,0.16143360,0.12351107,-0.08477333,0.99572660,0.06600477,-0.06014174,0.02355599
1761620387051,1.31715621,0.87002634,-1.43689769,0.24722125,0.06821390,-0.12031832,0.99567257,0.06738921,-0.05975974,0.02288220
1761620387062,0.25052247,1.12802846,-0.30421591,0.24327921,0.06038601,-0.11169309,0.99561492,0.06872724,-0.05942762,0.02226789
1761620387072,0.07548965,-0.59239518,0.09393813,0.10401762,0.07535624,-0.14049472,0.99561680,0.06926293,-0.05903954,0.02154434
1761620387084,0.07824977,-1.97057158,0.58373961,-0.12878583,0.05308405,-0.11925495,0.99570287,0.06850310,-0.05872634,0.02084074
1761620387095,0.44040734,-1.93852112,0.99584404,-0.34838864,0.05220557,-0.03010805,0.99585184,0.06660438,-0.05844182,0.02067665
1761620387106,0.22054761,-1.18539804,0.81318335,-0.47216382,-0.01582557,-0.01040655,0.99601375,0.06407830,-0.05852649,0.02062098
1761620387117,0.15298805,-0.12675618,-0.03353632,-0.36971508,-0.03473898,-0.05130148,0.99614145,0.06197093,-0.05872450,0.02032856
1761620387129,0.01934582,0.94398166,-0.33380548,-0.15492777,-0.04867328,-0.07738708,0.99619014,0.06105685,-0.05901167,0.01987197
1761620387139,0.28305965,1.25748161,-0.47576046,0.03066081,-0.10367579,-0.09787326,0.99615922,0.06121169,-0.05953523,0.01937771
1761620387151,0.08229400,0.89258499,-0.59186421,0.12832960,-0.10249407,-0.00499710,0.99607806,0.06195600,-0.06012970,0.01934873
1761620387163,0.36676268,0.05276603,-0.26616557,0.10452995,-0.10987696,0.05983338,0.99599179,0.06258318,-0.06078896,0.01970773
1761620387173,0.36098012,-0.64972206,0.05355424,0.09167953,-0.13174296,0.00694323,0.99591614,0.06307825,-0.06150037,0.01974522
1761620387184,0.21053767,-0.41800925,0.36792991,-0.01416499,-0.13197539,-0.07382639,0.99588454,0.06300176,-0.06221304,0.01934656
1761620387195,0.19303546,0.53076099,0.17908131,-0.04374829,-0.18098995,-0.02431089,0.99584006,0.06276333,-0.06319944,0.01921407
1761620387206,1.92364472,3.49389754,-0.06406610,0.02086333,-0.18987549,0.06436457,0.99575687,0.06288121,-0.06427223,0.01957773
1761620387218,-1.09704989,-1.46292346,-0.35490169,0.13038423,-0.20883882,0.11104296,0.99562189,0.06361136,-0.06544173,0.02019957
1761620387229,0.29297165,-0.78833182,0.00144143,0.14191278,-0.18175248,0.10111096,0.99548938,0.06442026,-0.06647772,0.02077590
1761620387239,0.08492409,-0.88572808,0.44558076,0.10763493,-0.21968306,0.05969020,0.99536953,0.06497996,-0.06762007,0.02108629
1761620387251,-0.36375676,-0.84675699,0.08275174,0.07402386,-0.19205042,-0.03614530,0.99527300,0.06539450,-0.06869555,0.02088388
1761620387275,-0.94440192,0.17581096,-0.14373697,0.01703562,-0.09195668,-0.07353390,0.99519967,0.06560233,-0.06981742,0.01998676
1761620387286,1.66479112,0.83953511,1.41879483,0.07746836,-0.32175806,-0.49356209,0.99510150,0.06600904,-0.07150665,0.01739556
1761620387296,-1.23490125,-0.37704968,-1.10414013,0.06973496,-0.14998728,-0.23582944,0.99503937,0.06638561,-0.07231659,0.01612208
1761620387298,78.28321960,-27.95309133,14.05492240,0.39928479,-0.88225701,-0.71300001,0.99496749,0.06674497,-0.07311062,0.01548038
1761620387308,-14.39631823,3.89002739,-3.17365626,0.07283118,-0.11165990,-0.06408789,0.99491163,0.06707999,-0.07362425,0.01518558
1761620387318,0.52683384,-0.37391807,0.20083292,0.05799644,-0.10570014,-0.04821387,0.99485366,0.06738447,-0.07417918,0.01493245
1761620387329,-0.43449049,-0.60592195,0.36340587,0.02259415,-0.09273874,-0.05408251,0.99481072,0.06751100,-0.07469851,0.01462959
1761620387340,-0.40174362,0.42287830,0.11535231,-0.07923840,-0.12806597,-0.13239100,0.99479788,0.06708707,-0.07538367,0.01392130
1761620387351,-0.39561259,0.44103536,0.31521970,-0.14535433,-0.12338228,-0.16296651,0.99481232,0.06626582,-0.07608078,0.01300054
1761620387362,-0.02614034,-0.36975745,-0.12696737,-0.17100223,-0.11912469,-0.10644313,0.99483218,0.06529966,-0.07675383,0.01239914
1761620387373,-0.12917464,-0.17708111,0.35125458,-0.21733847,-0.11244574,-0.08945118,0.99486803,0.06410430,-0.07737228,0.01190715
1761620387385,-0.10331429,0.13480268,0.41061550,-0.21946953,-0.07808071,-0.05394402,0.99491760,0.06283137,-0.07782515,0.01159428
1761620387396,0.32284975,-0.46643957,0.40071120,-0.21373569,-0.02779786,0.00899786,0.99497969,0.06163445,-0.07798082,0.01164467
1761620387408,-0.40208076,0.57061898,0.07732809,-0.21707346,-0.01948520,0.02025187,0.99504664,0.06037543,-0.07809383,0.01176213
1761620387419,-0.16226310,0.72991706,-0.03314848,-0.19047417,-0.02493368,-0.02064544,0.99510214,0.05928973,-0.07823596,0.01164445
1761620387429,0.00337099,0.53478913,0.39075835,-0.14791500,-0.00813054,-0.02254452,0.99514529,0.05852796,-0.07827783,0.01152835
1761620387440,-0.21784070,0.18506264,-0.39547504,-0.06354465,0.00912212,-0.03709275,0.99517159,0.05818482,-0.07822857,0.01132804
1761620387452,-0.05007330,-0.11002519,0.10566192,-0.02244170,0.02365954,-0.02558176,0.99519182,0.05805354,-0.07809016,0.01117839
1761620387464,-0.03848070,-0.20696672,0.39728555,-0.01792518,0.02570550,-0.01215771,0.99521036,0.05794957,-0.07794107,0.01110788
1761620387501,-0.11117500,0.04710705,-0.57847904,-0.00783817,0.01413943,0.00265963,0.99523922,0.05780182,-0.07767454,0.01115801
1761620387520,0.51141763,0.12724616,2.84739927,0.01543798,-0.00290507,-0.02710794,0.99523169,0.05794308,-0.07770112,0.01090997
1761620387530,-0.10900510,-0.16017978,-0.55852966,0.01473090,-0.04607237,-0.03139624,0.99520944,0.05802263,-0.07794991,0.01074043
1761620387541,-0.42496044,-0.11493242,-1.44550837,0.08977018,-0.09630832,-0.03503819,0.99514159,0.05851187,-0.07847479,0.01054947
1761620387552,-0.06422109,0.27638308,0.15332117,0.03364099,-0.06370392,-0.04885336,0.99510744,0.05868849,-0.07880924,0.01029299
1761620387563,0.05691656,0.00158012,-1.03840530,0.01716000,-0.06465162,-0.01048702,0.99507273,0.05878716,-0.07918099,0.01023269
1761620387575,0.13498327,-0.30232764,-0.66158906,0.03931403,-0.04330159,0.00879662,0.99503869,0.05901518,-0.07943213,0.01028371
1761620387585,-0.17923351,-0.21858337,0.15004536,0.01724887,-0.04482296,0.01774301,0.99501377,0.05910487,-0.07966521,0.01037598
1761620387596,-0.24688314,0.16380807,-0.04849490,0.02010923,-0.02621435,0.01661047,0.99499573,0.05920944,-0.07980153,0.01046235
1761620387608,-0.11928384,0.15463373,0.41022004,-0.00889287,-0.01104460,0.03121289,0.99499149,0.05915475,-0.07986945,0.01065431
1761620387619,0.22067935,-0.27358333,0.26829310,0.00000649,0.00230618,0.03911194,0.99499023,0.05915479,-0.07985723,0.01086161
1761620387620,16.79192175,4.92305021,129.75256405,-0.16226357,0.00753033,0.17996804,0.99499684,0.05902498,-0.07985121,0.01100558
1761620387630,-2.64565792,-0.12299473,-20.39986728,0.00953223,0.00148346,0.03841334,0.99499238,0.05907359,-0.07984364,0.01120149
1761620387642,0.06275171,0.52230391,-0.21924678,0.03951441,0.00949654,0.01206190,0.99498229,0.05930475,-0.07978809,0.01127205
1761620387652,0.24334997,-0.02914387,0.30289348,0.13814642,0.00587603,0.01031435,0.99494264,0.05999548,-0.07975871,0.01132362
1761620387663,-0.19132083,0.04426200,-0.21126764,0.10864971,0.00278829,0.03153689,0.99490601,0.06058762,-0.07974351,0.01149550
1761620387674,-0.48370925,0.11645032,-0.12569891,0.03439487,-0.00611563,0.02310971,0.99488958,0.06078539,-0.07977867,0.01162838
1761620387686,0.32297714,-0.25274016,0.10704221,0.00993872,-0.00813641,0.01034991,0.99488171,0.06084204,-0.07982505,0.01168737
1761620387697,0.36719385,-0.58400123,0.28836655,0.00257876,-0.02328708,-0.00280348,0.99487054,0.06085648,-0.07995546,0.01167167
1761620387709,0.23869324,-0.02704145,-0.06675081,-0.00678857,-0.02842195,-0.05887857,0.99486321,0.06081473,-0.08013025,0.01130957
1761620387719,0.37514640,0.55304260,1.10690235,-0.04414012,-0.08384469,-0.07331786,0.99484791,0.06060728,-0.08052432,0.01096498
1761620387731,-0.09616151,0.01383354,-1.10823975,-0.00607516,-0.05730532,-0.03383468,0.99482308,0.06056870,-0.08088821,0.01075013
1761620387742,0.22129946,0.29245070,0.26054799,0.01312699,-0.09163618,-0.01006571,0.99478104,0.06063630,-0.08136014,0.01069829
1761620387754,-0.02394059,-0.19004032,-0.44075772,0.02903484,-0.04844461,0.01148947,0.99474408,0.06081922,-0.08166534,0.01077067
1761620387764,0.82082686,-0.23450645,0.49729180,0.02866836,-0.07154388,0.04258198,0.99470395,0.06096113,-0.08201948,0.01098145
1761620387776,-0.11440943,0.09877229,-0.56115102,0.03097331,-0.05552008,0.00776119,0.99466648,0.06113768,-0.08233595,0.01102569
1761620387786,0.21921961,-0.67137966,-0.15467928,0.04411472,-0.08548576,0.02648804,0.99461595,0.06135825,-0.08276338,0.01115813
1761620387797,-0.32964817,0.18090133,0.32590440,-0.00096768,-0.08967369,0.00509162,0.99457480,0.06135293,-0.08325658,0.01118614
1761620387807,-0.14046594,0.12289849,0.19639675,0.01462298,-0.07887111,-0.00661222,0.99453570,0.06142970,-0.08367065,0.01115142
1761620387819,-0.29153677,0.13842034,-0.04780322,0.00192467,-0.06765030,0.00367451,0.99450227,0.06144067,-0.08405626,0.01117237
1761620387830,0.20568226,-0.37400251,-0.22462577,0.02083295,-0.05311284,0.01901756,0.99446927,0.06155525,-0.08434838,0.01127696
1761620387842,-0.48942230,0.06438821,-0.37135199,-0.00432313,-0.05316433,0.01344421,0.99444197,0.06152845,-0.08467800,0.01136032
1761620387853,0.45713314,-0.18298713,0.42649658,-0.00808151,-0.02338716,0.01299591,0.99443294,0.06148400,-0.08480663,0.01143179
1761620387863,-0.35124738,-0.31211706,-0.02645177,0.00810476,-0.03799139,0.01032718,0.99441284,0.06152615,-0.08500419,0.01148550
1761620387875,-0.00222624,0.39266560,0.23906921,-0.03401006,-0.02053486,-0.01747059,0.99441593,0.06133399,-0.08512021,0.01138679
1761620387886,-0.30548240,0.43617271,-0.45660535,-0.02452260,-0.00623954,-0.03523120,0.99442357,0.06119789,-0.08515484,0.01119125
1761620387897,0.29822320,-0.30038228,-0.25521617,0.01954591,0.00372642,0.00443700,0.99441819,0.06131028,-0.08513341,0.01121677
1761620387908,-0.11732287,-0.08168145,-0.40547827,0.02108975,-0.00703616,-0.00916971,0.99440856,0.06142311,-0.08517105,0.01116771
1761620387920,-0.05128676,0.04867578,-0.25370436,0.03511117,0.00845330,-0.02462058,0.99440181,0.06162500,-0.08512245,0.01102614
1761620387931,0.10011263,-0.21041960,-0.02383480,0.05295321,0.00493367,-0.02667134,0.99438727,0.06192418,-0.08509457,0.01087545
1761620387942,0.14876377,-0.07927216,0.49368900,-0.01398302,0.00638039,-0.02642652,0.99439655,0.06184797,-0.08505980,0.01073142
1761620387954,-0.17066299,-0.07750152,-0.32508283,-0.02162943,-0.02604750,-0.02718095,0.99439304,0.06172036,-0.08521348,0.01057105
1761620387964,-0.05276434,0.35751908,-0.40160485,-0.03795698,-0.03592969,-0.04273961,0.99439152,0.06151539,-0.08540750,0.01034026
1761620387976,-0.02470880,-0.08250752,-0.49779272,-0.01817540,-0.04896133,-0.01735292,0.99437421,0.06140725,-0.08569882,0.01023701
1761620387987,-0.29397065,-0.22845998,0.12342330,-0.01059549,-0.07189934,-0.01257185,0.99434435,0.06134897,-0.08609427,0.01016787
1761620387997,0.82176230,0.36074539,0.25654044,0.05395840,-0.06334022,-0.03524015,0.99430156,0.06162146,-0.08641413,0.00998990
1761620388009,-0.11555544,0.24280765,0.13009855,0.00846540,-0.06102707,0.00482190,0.99426741,0.06167056,-0.08676809,0.01001787
1761620388020,0.03093485,-0.13786327,-0.24983826,0.06319020,-0.07474617,0.00771777,0.99420834,0.06202443,-0.08718667,0.01006109
1761620388030,0.11341912,0.12747943,-0.07731574,0.01101205,-0.10134100,-0.01084046,0.99416089,0.06207949,-0.08769337,0.01000689
1761620388042,-0.19674494,0.04159612,-0.03940569,-0.00419832,-0.07523503,-0.00038189,0.99412384,0.06205514,-0.08812974,0.01000467
1761620388056,-0.24365253,0.06627838,-0.19262537,0.00904205,-0.06518329,-0.00807112,0.99408053,0.06211753,-0.08857950,0.00994898
1761620388066,0.44215570,0.17082841,-0.02025580,0.03347890,-0.09209418,0.00167219,0.99402832,0.06228660,-0.08904458,0.00995743
1761620388076,-0.10116771,-0.08812832,-0.30921992,0.04857490,-0.06566722,0.00128752,0.99398129,0.06254162,-0.08938933,0.00996419
1761620388087,-0.17399718,-0.14824242,-0.12707251,0.01414090,-0.06259087,0.02868267,0.99394515,0.06261656,-0.08972106,0.01011620
1761620388097,-0.35436012,-0.13547113,-0.28433686,0.00740820,-0.04387660,0.01710538,0.99392073,0.06265583,-0.08995361,0.01020686
1761620388108,-0.22137502,0.08128493,0.02429726,-0.03227325,-0.02956428,0.01144208,0.99391660,0.06248155,-0.09011325,0.01026865
1761620388147,-0.13496355,-0.04132804,0.06219823,0.00131955,-0.01061143,0.00022047,0.99389610,0.06250735,-0.09032071,0.01027296
1761620388175,0.03738863,0.04593609,-0.34828205,0.01145934,-0.00117690,0.01934588,0.99388162,0.06266835,-0.09033724,0.01054477
1761620388187,-0.86568444,0.16994533,-1.61416199,-0.03552555,0.01540533,0.03357885,0.99390111,0.06245697,-0.09024558,0.01074456
1761620388199,0.27443138,-0.94656730,0.73406186,-0.03157137,0.02745365,0.00170419,0.99392760,0.06226912,-0.09008223,0.01075470
1761620388220,0.17561702,0.22297016,0.68321475,-0.01324167,0.01321703,-0.00894538,0.99394946,0.06213274,-0.08994610,0.01066257
1761620388230,-0.02393330,0.04022249,-0.56816792,-0.01394483,0.01907323,0.00357079,0.99396327,0.06205743,-0.08984310,0.01068185
1761620388242,0.00995823,0.12040527,0.08945114,0.00559776,0.01137962,0.00407813,0.99396686,0.06208906,-0.08977881,0.01070489
1761620388253,0.06161652,-0.04667918,0.17551372,-0.00488987,0.01039489,0.00753748,0.99397343,0.06206143,-0.08972008,0.01074748
1761620388265,0.20214809,-0.08927220,0.03349843,-0.00908535,0.00191570,0.00311330,0.99397777,0.06200556,-0.08970829,0.01076662
1761620388276,0.14018002,0.06793386,-0.15100445,-0.04309473,-0.00782475,-0.02005762,0.99398918,0.06178147,-0.08974898,0.01066232
1761620388287,0.04539502,0.08939986,0.12860659,-0.03684882,-0.00439408,-0.02241106,0.99400089,0.06157880,-0.08977315,0.01053906
1761620388299,-0.10837208,0.09996826,-0.04290053,0.00203193,-0.01068347,-0.00371454,0.99399468,0.06159079,-0.08983618,0.01051715
1761620388311,-0.10584801,0.01520789,0.09199255,0.00991850,-0.02237793,-0.01958282,0.99397996,0.06165079,-0.08997157,0.01039867
1761620388321,0.03331364,0.06584425,-0.17260896,0.01766169,-0.04481275,-0.04932658,0.99395556,0.06174352,-0.09020684,0.01013971
1761620388332,0.11541207,-0.02365937,0.09999281,-0.01967228,-0.04414587,-0.01671647,0.99394167,0.06163925,-0.09044081,0.01005111
1761620388333,9.96866598,6.40591783,-32.51545836,-0.09678770,-0.33141542,-0.13892619,0.99392342,0.06156182,-0.09070594,0.00993997
1761620388343,-1.63391731,-0.90635929,5.62661765,-0.01523717,-0.05501899,-0.01718952,0.99390444,0.06148792,-0.09097278,0.00985660
1761620388354,0.00480063,0.05749491,0.13328121,-0.01642123,-0.04948150,-0.02144780,0.99388591,0.06139596,-0.09124988,0.00973649
1761620388365,0.03906400,0.11680757,-0.18379602,-0.00397298,-0.07503839,-0.01219871,0.99384961,0.06137391,-0.09166634,0.00966879
1761620388376,0.03506800,0.16464062,-0.19252333,-0.00098183,-0.06865354,-0.02960467,0.99381811,0.06136876,-0.09202677,0.00951336
1761620388387,-0.06048993,0.06621540,0.09448329,0.00063353,-0.06133690,-0.03338210,0.99378916,0.06137215,-0.09235493,0.00933477
1761620388399,-0.08554589,-0.24002045,0.23720304,0.01477179,-0.05103330,-0.02215564,0.99375614,0.06146152,-0.09266368,0.00920073
1761620388409,-0.00839174,-0.06406945,0.13105052,0.01879087,-0.05018329,-0.01219771,0.99372488,0.06156393,-0.09293718,0.00913425
1761620388422,-0.03738202,-0.14639565,-0.10092081,0.03281260,-0.03627291,-0.01687013,0.99369321,0.06176080,-0.09315481,0.00903303
1761620388432,-0.01660583,0.09059730,0.00558426,0.00095984,-0.03546096,-0.00459875,0.99367581,0.06176579,-0.09333921,0.00900912
1761620388444,-0.11026287,-0.14776323,0.08382159,0.03006259,-0.03983160,-0.03489448,0.99364504,0.06194016,-0.09357024,0.00880673
1761620388454,0.01633638,0.00144402,-0.01418214,0.02760366,-0.02921231,-0.01426747,0.99362177,0.06208784,-0.09372652,0.00873040
1761620388466,0.31287621,0.32876169,-0.02382375,-0.02397769,-0.02125587,-0.01997530,0.99361984,0.06194997,-0.09384874,0.00861554
1761620388476,0.06772458,0.07583591,-0.27010155,0.00902423,-0.02092634,-0.03658046,0.99360793,0.06199825,-0.09396070,0.00841983
1761620388487,0.01889685,-0.03232864,-0.12942824,0.03329454,-0.00124836,0.00784790,0.99359603,0.06217304,-0.09396725,0.00846104
1761620388499,-0.44419652,-0.26502780,0.27389753,0.01612860,-0.00345389,-0.01946789,0.99358900,0.06226981,-0.09398798,0.00834423
1761620388510,-0.11595721,-0.09026944,-0.20931995,0.00524674,-0.01858224,-0.04771097,0.99357994,0.06229788,-0.09408739,0.00808897
1761620388520,0.10465013,-0.00890653,-0.03484296,0.00109181,0.01147282,-0.06219854,0.99358789,0.06230362,-0.09402716,0.00776243
1761620388532,-0.02592615,-0.06330851,0.00786244,0.01068282,-0.01465734,-0.02530071,0.99357700,0.06236611,-0.09411290,0.00761442
1761620388543,-0.00455982,0.05462442,-0.07264257,0.00269258,0.00219548,-0.01653882,0.99357789,0.06238065,-0.09410105,0.00752511
1761620388555,0.04318678,-0.05689621,0.08993417,-0.01244571,0.01108580,-0.01409402,0.99358989,0.06230349,-0.09403232,0.00743773
1761620388566,-0.29855078,-0.37379668,-0.07052628,-0.03607491,0.00410513,0.00341832,0.99360366,0.06211409,-0.09401076,0.00745568
1761620388577,-0.00076645,-0.11000311,0.17543584,-0.01684443,0.00941522,-0.00997334,0.99361556,0.06201471,-0.09395521,0.00739683
1761620388587,-0.16580311,-0.06892411,-0.40916984,-0.04448336,0.00596370,-0.02066003,0.99363317,0.06179007,-0.09392510,0.00729250
1761620388598,0.37946811,0.19659693,0.09235525,-0.00774570,0.02653665,-0.03602031,0.99365104,0.06174747,-0.09377915,0.00709439
1761620388610,0.00393595,0.13514093,0.10113393,-0.02702293,0.01491616,-0.04524393,0.99367043,0.06159344,-0.09369412,0.00683650
1761620388621,0.02844318,0.01159568,-0.09616664,-0.01646392,0.01373688,-0.03260902,0.99368463,0.06150124,-0.09361720,0.00665389
1761620388632,0.06227068,0.00060227,0.07154193,-0.01623988,0.03222467,-0.01116135,0.99370683,0.06141354,-0.09344318,0.00659362
1761620388643,-0.05279946,0.08393363,0.02138251,-0.02797830,0.00664865,-0.00325455,0.99371989,0.06125966,-0.09340662,0.00657572
1761620388655,0.07257968,0.06700170,0.01506082,-0.03501218,0.02838808,-0.00581446,0.99374880,0.06105134,-0.09323771,0.00654112
1761620388667,-0.00665056,-0.05756287,-0.18170790,-0.01184363,0.00039783,-0.01759800,0.99375408,0.06098028,-0.09323532,0.00643553
1761620388677,0.20017164,0.07842090,0.00579248,-0.03473372,0.03097289,-0.02636917,0.99377956,0.06081008,-0.09308355,0.00630632
1761620388688,-0.12546230,0.07813999,0.17283236,-0.01047097,0.01651517,-0.04615562,0.99379317,0.06075249,-0.09299272,0.00605247
1761620388699,0.05474195,0.24107728,0.25586980,-0.01787767,0.01058477,-0.03324366,0.99380606,0.06065149,-0.09293292,0.00586464
1761620388710,0.02112172,0.14815846,0.01675451,-0.00133143,0.01598988,-0.03530374,0.99381620,0.06064390,-0.09284177,0.00566341
1761620388722,0.04590938,0.03222911,0.02790924,0.03390955,0.01077177,-0.01656176,0.99381071,0.06083548,-0.09278091,0.00556984
1761620388732,-0.02460123,0.10810957,-0.16001741,0.03360344,-0.00200894,-0.02999974,0.99379999,0.06100854,-0.09279126,0.00541534
1761620388743,0.08279415,-0.15093573,-0.04076203,0.01491179,0.01454098,-0.01339095,0.99380276,0.06108907,-0.09271274,0.00534303
1761620388755,-0.08279306,-0.16122791,0.17782141,0.02176580,-0.00064845,-0.01765818,0.99379460,0.06122510,-0.09271679,0.00523266
1761620388766,0.34263853,-0.08608011,-0.06203821,0.00659848,-0.00703641,-0.00927821,0.99378932,0.06125941,-0.09275338,0.00518442
1761620388777,-0.01536883,0.03593871,0.01536883,0.00918507,-0.01222809,-0.02912970,0.99378067,0.06131039,-0.09282125,0.00502275
1761620388788,0.01161035,-0.19580375,-0.17028516,0.02829484,-0.02942119,-0.01225855,0.99375605,0.06146743,-0.09298453,0.00495471
1761620388800,-0.26596095,0.10914672,0.17386155,0.00369248,-0.01209343,-0.04594818,0.99374899,0.06149032,-0.09305951,0.00466983
1761620388839,-0.03227294,-0.02545494,0.10948978,0.00027589,-0.00689918,-0.00580794,0.99373655,0.06149572,-0.09319439,0.00455629
1761620388869,0.01622069,-0.09191300,-0.33771666,-0.00649897,-0.01410649,-0.00295590,0.99372296,0.06139856,-0.09340528,0.00451210
1761620388879,-0.23828607,-0.66071221,-2.81924800,-0.05477545,0.02548631,-0.09511475,0.99375324,0.06113016,-0.09328040,0.00404603
1761620388910,0.01074343,0.26082794,0.97054126,0.00201766,-0.00016716,-0.02499503,0.99375256,0.06116183,-0.09328303,0.00365361
1761620388922,-0.35513256,-0.31952813,-0.68401908,-0.06828919,-0.02347471,-0.00719247,0.99376383,0.06077941,-0.09341448,0.00361333
1761620388933,-0.07194930,-0.22958161,-0.24160283,-0.08823896,-0.03086842,0.00273915,0.99377809,0.06026763,-0.09359352,0.00362922
1761620388945,0.16649303,0.21271731,0.62031990,-0.03165320,-0.02475630,0.02554803,0.99377499,0.06007613,-0.09374330,0.00378379
1761620388957,0.17474947,0.11576335,0.07597198,0.00171904,-0.02573080,0.02024714,0.99375945,0.06008635,-0.09389639,0.00390426
1761620388968,0.08543528,0.02763353,0.04166067,0.00622857,-0.02544250,-0.01838412,0.99374441,0.06012092,-0.09403760,0.00380223
1761620388979,-0.02378779,0.13336252,-0.10204789,-0.01407645,-0.02757517,-0.01472881,0.99373546,0.06004702,-0.09418237,0.00372490
1761620388989,-0.07613077,-0.11039510,-0.08681091,-0.00067888,-0.03328077,0.01005614,0.99371922,0.06004353,-0.09435377,0.00377669
1761620389000,-0.21791880,0.05624303,0.33752899,-0.01175876,-0.03802967,0.00730687,0.99370367,0.05998120,-0.09455532,0.00381541
1761620389012,0.04641096,-0.02428405,0.11861637,-0.02458150,-0.02625576,0.02549537,0.99369702,0.05983494,-0.09471154,0.00396711
1761620389023,-0.08273454,0.01857684,-0.00603739,-0.02646006,-0.02660413,0.01405433,0.99369140,0.05968677,-0.09486053,0.00404582
1761620389033,-0.00513173,0.01776175,0.14134563,-0.01653389,-0.01600324,0.00820291,0.99368835,0.05959831,-0.09494615,0.00408970
1761620389044,0.05986407,-0.02661895,-0.01609128,0.01178586,-0.03050270,0.01325624,0.99366830,0.05966254,-0.09511238,0.00416195
1761620389056,0.05757662,0.22630207,0.04154880,-0.00566977,-0.01135117,-0.00496649,0.99366409,0.05962966,-0.09517822,0.00413314
1761620389068,0.08837764,0.34622546,0.42156136,0.03671732,-0.02816956,-0.01039544,0.99363441,0.05985364,-0.09535006,0.00406973
1761620389079,0.16982926,0.11739130,-0.14269132,0.09230693,-0.00417898,0.02955827,0.99360235,0.06033825,-0.09537200,0.00422491
1761620389089,-0.13041140,0.07779260,-0.04702536,0.03379959,-0.02609955,-0.01202877,0.99357889,0.06051400,-0.09550771,0.00416236
1761620389112,-0.00412931,-0.21347141,-0.02628397,0.01350817,-0.01809798,-0.00722144,0.99355024,0.06066665,-0.09571222,0.00408076
1761620389113,-16.26028775,16.76776240,-44.63045764,0.14496561,-0.17632163,-0.03589890,0.99353096,0.06077537,-0.09584446,0.00405384
1761620389122,2.54080291,-2.80858016,6.96251358,0.01873477,-0.01394721,-0.00222472,0.99351953,0.06086155,-0.09590862,0.00404360
1761620389134,-0.07074940,0.03920417,-0.08028819,0.00519991,-0.01761186,0.00263669,0.99350806,0.06089093,-0.09600813,0.00405850
1761620389145,0.09426650,0.00617391,-0.00431567,0.03468842,-0.00272128,0.00519411,0.99349394,0.06109386,-0.09602405,0.00408888
1761620389155,-0.18844297,0.18222385,-0.33963482,0.05456994,-0.02304828,0.00056797,0.99346680,0.06135852,-0.09613583,0.00409164
1761620389166,0.53655071,0.06731366,0.44538675,0.02535387,-0.00047392,0.01071792,0.99345744,0.06150177,-0.09613851,0.00415220
1761620389177,-0.00815769,-0.11890731,-0.05829807,0.03575421,0.00526851,0.00434562,0.99344777,0.06170199,-0.09610900,0.00417653
1761620389188,-0.00678918,-0.22378068,-0.20396749,0.02988555,-0.00682104,0.01158357,0.99343391,0.06186338,-0.09614584,0.00423908
1761620389200,-0.43075361,-0.20009880,-0.06207997,0.01886831,0.01929903,-0.01267624,0.99343823,0.06197281,-0.09603390,0.00416556
1761620389211,-0.03327385,-0.10886706,0.00329475,-0.00232711,-0.00008302,0.00817200,0.99343882,0.06195943,-0.09603438,0.00421255
1761620389223,0.05920137,-0.11360462,0.05612727,-0.00067864,0.03213345,-0.01167547,0.99345671,0.06195563,-0.09585443,0.00414717
1761620389235,0.06166186,0.14495594,0.02839225,-0.01799259,0.02218115,-0.00620926,0.99347724,0.06184318,-0.09571580,0.00410836
1761620389246,0.04600796,0.01730813,-0.10529815,-0.00928104,0.03431837,-0.00711329,0.99349894,0.06179167,-0.09552533,0.00406888
1761620389257,0.05998682,0.03047717,-0.05031153,-0.00335841,0.02851400,-0.01566705,0.99351566,0.06177303,-0.09536708,0.00398193
1761620389267,0.49331965,-0.02804029,-0.03689054,-0.01105415,0.03153461,0.01063938,0.99353345,0.06171942,-0.09521414,0.00403353
1761620389278,-0.14048759,0.00404554,-0.01174116,-0.00566761,0.00702962,-0.00554094,0.99353921,0.06168824,-0.09517548,0.00400305
1761620389289,0.00838528,-0.00987530,0.16434466,-0.01913537,0.01061792,-0.01841447,0.99355208,0.06158013,-0.09511548,0.00389901
1761620389300,-0.11982142,0.05492889,-0.06023631,-0.03559905,-0.00285366,-0.04293913,0.99356338,0.06138789,-0.09513089,0.00366714
1761620389311,0.04118093,0.12317542,0.09249870,-0.02153855,-0.01636940,-0.03260796,0.99356270,0.06126728,-0.09522256,0.00348454
1761620389323,0.13114542,-0.02732196,0.18246320,0.01269889,-0.00848451,-0.01381345,0.99355403,0.06133839,-0.09527008,0.00340718
1761620389333,0.04701462,0.00350336,-0.14172470,-0.00055115,-0.02663584,-0.02251854,0.99354070,0.06133539,-0.09541524,0.00328445
1761620389345,-0.00037702,-0.05314564,0.03374301,-0.00930450,-0.02684718,-0.00544777,0.99352896,0.06128049,-0.09557364,0.00325231
1761620389356,0.16495931,-0.05189522,-0.00442159,-0.02936186,-0.04473564,0.01236999,0.99351512,0.06112047,-0.09581745,0.00331973
1761620389368,0.27398133,0.03001163,0.43215563,-0.03147711,-0.01480570,0.00760845,0.99351794,0.06093476,-0.09590480,0.00336462
1761620389390,-0.17267730,0.01172065,0.03950822,-0.00728644,-0.01255150,0.00200909,0.99350944,0.06085460,-0.09604287,0.00338672
1761620389401,0.36388945,-0.35703301,-0.34691412,-0.03697790,-0.02560888,-0.02313084,0.99350871,0.06065862,-0.09617860,0.00326413
1761620389402,2.88234901,-9.99341882,-13.43152421,-0.17627350,-0.07298096,-0.20080563,0.99351260,0.06049998,-0.09624428,0.00308340
1761620389412,-1.17490432,2.09912438,2.57927115,-0.04162886,-0.00891720,-0.02600710,0.99352107,0.06029808,-0.09628753,0.00295727
1761620389424,-0.00824156,0.11448067,-0.02571222,-0.03250349,0.00248786,-0.02427271,0.99353441,0.06010793,-0.09627297,0.00281527
1761620389436,-0.10450080,0.14211020,-0.03135024,0.01663119,0.00574574,-0.03119912,0.99353228,0.06020522,-0.09623936,0.00263276
1761620389447,-0.03870117,-0.00059540,-0.18586487,0.02303033,0.01575067,0.00334065,0.99353294,0.06033304,-0.09615194,0.00265130
1761620389457,-0.01132517,0.04367959,0.04574264,-0.00654974,0.01427555,-0.02083432,0.99354284,0.06029767,-0.09607486,0.00253879
1761620389469,0.45751727,0.10315860,0.29719767,0.00625486,0.02493620,-0.01472736,0.99355462,0.06033332,-0.09593272,0.00245485
1761620389499,-0.10757937,-0.05054070,0.07068764,0.02360328,0.00964633,-0.00267755,0.99354701,0.06069209,-0.09578610,0.00241415
1761620389502,6.41736457,8.61402109,-14.24964556,0.03854181,-0.09097901,-0.38697203,0.99353312,0.06074413,-0.09590892,0.00189173
1761620389512,-1.86907382,-1.94454616,3.35692307,0.01961691,-0.02559304,-0.02954933,0.99351484,0.06084319,-0.09603816,0.00174251
1761620389524,0.02738404,0.02618825,0.07925506,0.00072027,-0.01467708,0.00252588,0.99350625,0.06084741,-0.09612402,0.00175729
1761620389535,-0.02500727,-0.13960516,-0.06128138,0.00721129,-0.01623575,0.01300588,0.99349475,0.06088815,-0.09621576,0.00183077
1761620389546,-0.00895634,-0.24002888,-0.18111701,0.01021677,-0.01713003,0.03137427,0.99348219,0.06094281,-0.09630740,0.00199862
1761620389590,-0.01277796,-0.01671949,0.14041358,-0.00201672,-0.00447524,0.00881655,0.99347487,0.06089794,-0.09640697,0.00219479
1761620389599,0.61693164,-2.48936517,-1.91945311,-0.08014392,0.00423273,0.02995132,0.99349845,0.06053729,-0.09638793,0.00232957
1761620389612,-1.02636225,1.14152158,0.46642079,-0.07370046,0.05954386,0.03633507,0.99356290,0.06006929,-0.09600982,0.00256030
1761620389634,0.15028876,0.17863802,0.39935842,-0.03211352,0.03983371,0.01522967,0.99362742,0.05970801,-0.09556169,0.00273163
1761620389645,-0.42867922,-0.26628160,-0.62253740,-0.02641264,0.06390000,0.02271422,0.99366876,0.05956539,-0.09521663,0.00285429
1761620389657,-0.01930362,0.10769842,0.00783756,-0.05401993,0.07964613,-0.00678481,0.99373231,0.05924937,-0.09475070,0.00281460
1761620389668,0.35287864,0.32228632,0.52682841,0.00371936,0.04378039,0.00797970,0.99375448,0.05927038,-0.09450335,0.00285968
1761620389680,0.15573853,0.06005380,-0.02977291,-0.00379480,0.03547302,0.02017011,0.99377587,0.05924743,-0.09428873,0.00298171
1761620389691,0.02166122,0.01972866,0.07404713,-0.01957336,0.02471404,-0.02064408,0.99379586,0.05913781,-0.09415034,0.00286611
1761620389702,0.01643356,-0.09460894,-0.39532833,-0.01294341,0.00789273,0.00250247,0.99380364,0.05907116,-0.09410969,0.00287899
1761620389713,0.04271126,0.10403132,0.17654461,-0.01549656,-0.00872529,0.01032229,0.99380400,0.05898283,-0.09415942,0.00293783
1761620389724,0.08457630,-0.02919926,-0.01337146,-0.01380449,-0.00502011,0.02880106,0.99380537,0.05890897,-0.09418628,0.00309192
1761620389735,-0.01592249,0.08731114,0.04291008,-0.03436934,-0.01373704,0.02586653,0.99380891,0.05872166,-0.09426115,0.00323289
1761620389747,0.08900245,0.03059550,0.03929641,-0.02347086,-0.01313578,0.01364026,0.99380949,0.05857731,-0.09434193,0.00331678
1761620389759,0.14651352,0.21041937,0.05964192,-0.01723946,-0.02139659,0.00671953,0.99380340,0.05847646,-0.09446710,0.00335609
1761620389769,0.38601885,0.47857890,0.24774404,0.00989601,-0.01158575,-0.00904503,0.99379505,0.05852644,-0.09452561,0.00331041
1761620389779,-0.02116044,0.00504327,-0.09011546,0.02400883,-0.02031747,-0.00191401,0.99377784,0.05865008,-0.09463024,0.00330055
1761620389790,-0.13559423,-0.21397568,-0.13127082,0.01903645,-0.00506458,0.01257922,0.99376877,0.05875478,-0.09465810,0.00336974
1761620389802,-0.37030520,-0.26348522,-0.13776526,0.00827653,-0.00086438,-0.00132008,0.99376534,0.05880486,-0.09466333,0.00336175
1761620389813,-0.12478872,-0.12514611,-0.03757007,-0.00777426,0.00129165,0.01482941,0.99376821,0.05876287,-0.09465635,0.00344183
1761620389824,0.04336317,-0.09788830,-0.00140790,-0.00861057,0.02138395,0.01292606,0.99378220,0.05871466,-0.09453660,0.00351422
1761620389835,-0.10935728,-0.06698705,-0.16086921,-0.01713597,0.00875696,0.02610783,0.99379183,0.05862041,-0.09448844,0.00365781
1761620389847,0.00516017,0.13446574,-0.01738163,-0.01359998,0.02931024,0.00432470,0.99381200,0.05854357,-0.09432284,0.00368224
1761620389857,0.03952159,-0.07639203,-0.01942917,-0.00716740,0.04264679,0.02056393,0.99383482,0.05850630,-0.09410107,0.00378918
1761620389868,0.16139134,0.06118053,0.39884536,-0.01899387,0.02259004,0.00484156,0.99385278,0.05840088,-0.09397570,0.00381605
1761620389879,0.05611670,-0.19453387,-0.10449317,-0.03161028,0.03206464,0.03026708,0.99387922,0.05822544,-0.09379774,0.00398403
1761620389903,-0.05137083,0.01559216,0.08655121,-0.01940274,0.01640192,0.00371387,0.99391134,0.05799164,-0.09360010,0.00402878
1761620389914,-0.56058169,-0.80328887,-1.35236937,-0.06123954,0.07809938,0.04132779,0.99396714,0.05767320,-0.09319398,0.00424369
1761620389924,0.15069690,0.43559740,0.75703465,-0.04368050,0.04467378,0.00642901,0.99400257,0.05744169,-0.09295721,0.00427776
1761620389926,-13.37701064,-13.45518469,-32.46993630,-0.15079013,0.16363386,0.08375221,0.99402502,0.05729844,-0.09280176,0.00435732
1761620389937,2.49113040,2.58272532,5.70125558,-0.02130430,0.02769457,0.00490012,0.99404510,0.05718553,-0.09265498,0.00438329
1761620389947,-0.07722276,-0.14902999,-0.25250892,-0.04563104,0.03388916,0.00290416,0.99407449,0.05695281,-0.09248214,0.00439811
1761620389958,0.15467223,0.11536936,0.13772688,-0.04283666,0.01646980,0.01140681,0.99409551,0.05672363,-0.09239403,0.00445913
1761620389969,0.25670033,0.22445688,0.12670421,-0.03522192,-0.00498123,0.01833554,0.99410383,0.05652287,-0.09242242,0.00456364
1761620389980,-0.02263378,0.03427989,-0.04080037,-0.03746414,-0.00738478,0.03289932,0.99411065,0.05632431,-0.09246156,0.00473801
1761620390022,0.01586599,0.01732820,0.20330860,-0.00806538,0.00214391,0.00468390,0.99412391,0.05615534,-0.09241665,0.00483614
1761620390050,-0.09022982,-0.17694084,-0.30472439,-0.01451342,-0.01509694,0.00892700,0.99411499,0.05594997,-0.09263027,0.00496246
1761620390060,-0.18033665,1.08716248,-2.02045430,0.10819861,-0.05748003,0.07502070,0.99405503,0.05649637,-0.09292054,0.00534131
1761620390080,0.29917721,-0.36928612,1.32991547,-0.00286690,-0.00167266,0.00811334,0.99405466,0.05646828,-0.09293693,0.00542082
1761620390102,-0.06387250,0.01026075,0.05474719,-0.00298689,-0.00057812,-0.00112814,0.99405606,0.05643408,-0.09294355,0.00540790
1761620390113,-0.31524575,-0.02654231,-0.94820146,0.00392205,-0.00127766,-0.02612756,0.99405501,0.05645447,-0.09295020,0.00527204
1761620390124,0.00789504,0.22690936,0.27925057,-0.00634736,-0.00300088,-0.02476224,0.99405618,0.05641893,-0.09296700,0.00513337
1761620390136,0.09635253,-0.08517263,0.06789425,0.00569986,0.00788774,-0.00848973,0.99405881,0.05645170,-0.09292165,0.00508456
1761620390147,-0.07044465,-0.01913911,-0.00673560,-0.02468558,-0.00533122,0.00440163,0.99406360,0.05631717,-0.09295070,0.00510854
1761620390158,0.08936582,-0.08968731,0.20673583,-0.02387578,0.01356429,0.01476452,0.99407784,0.05618346,-0.09287474,0.00519123
1761620390169,0.38355903,0.15883942,0.25934379,-0.02248915,0.00463889,0.01413213,0.99408720,0.05605415,-0.09284807,0.00527249
1761620390180,0.05255880,-0.01497902,-0.02670250,-0.02884061,0.00676165,-0.00021753,0.99409905,0.05590274,-0.09281257,0.00527134
1761620390192,-0.06935565,0.00896752,0.02676830,-0.01701332,-0.00255146,-0.01575460,0.99410389,0.05579981,-0.09282801,0.00517603
1761620390203,-0.14474404,-0.08501205,-0.31019665,-0.01357533,-0.01020227,-0.02296851,0.99410348,0.05572310,-0.09288565,0.00504626
1761620390215,-0.25048778,-0.00207417,-0.07714553,-0.00070329,-0.02043412,-0.01878708,0.99409317,0.05571903,-0.09300417,0.00493729
1761620390226,0.16938104,-0.01309985,0.02691296,-0.00180824,-0.01441008,0.00675890,0.99408594,0.05570881,-0.09308558,0.00497548
1761620390238,0.03698909,-0.09471202,-0.05456635,-0.00067420,-0.01758991,0.01792996,0.99407607,0.05570490,-0.09318761,0.00507947
1761620390248,-0.08484189,-0.00190969,-0.00865011,-0.01440594,-0.02568666,0.01698058,0.99406720,0.05562927,-0.09332246,0.00516862
1761620390259,0.06610714,-0.04425119,0.12472252,-0.00073065,-0.01820958,0.01344215,0.99405771,0.05562529,-0.09342170,0.00524188
1761620390270,0.40199618,-0.08420932,0.44050215,-0.01471625,-0.01301634,0.01121306,0.99405527,0.05554729,-0.09349069,0.00530131
1761620390271,15.25429060,-4.52650887,-3.08819537,-0.05389037,-0.10482666,-0.09919635,0.99404894,0.05549340,-0.09359552,0.00520211
1761620390282,-2.73775892,1.15181583,0.68011468,-0.00423975,-0.01492266,-0.02003787,0.99404335,0.05547114,-0.09367386,0.00509691
1761620390294,-0.27600180,0.03832919,-0.22298165,0.01462454,-0.00034869,0.00310608,0.99403833,0.05555596,-0.09367588,0.00511493
1761620390304,-0.41661531,0.02430921,-0.47673986,0.01515225,0.00998894,-0.00508929,0.99403895,0.05563475,-0.09362394,0.00508847
1761620390314,-0.08624367,-0.08552204,-0.06998209,0.00166235,0.02198385,-0.01877438,0.99404952,0.05564323,-0.09351182,0.00499272
1761620390326,-0.03259030,-0.09689410,0.08223117,-0.00051655,0.01785564,-0.02771945,0.99406003,0.05564029,-0.09341005,0.00483472
1761620390337,0.00963068,-0.07720159,0.03637202,-0.01387186,0.01879389,-0.02861024,0.99407543,0.05556052,-0.09330198,0.00467021
1761620390348,0.02854779,-0.09590820,0.06822853,-0.02456798,0.03249193,-0.02889933,0.99410024,0.05542663,-0.09312490,0.00451271
1761620390359,0.09324245,0.07854077,-0.12027266,-0.01313227,0.01543910,0.00881655,0.99411242,0.05535178,-0.09303690,0.00456296
1761620390370,0.06205676,0.42798854,-0.23363421,-0.02463790,0.02153140,0.00070496,0.99413033,0.05522119,-0.09292278,0.00456670
1761620390382,0.00326976,0.01031812,-0.05169175,0.00973019,0.01234401,0.00851689,0.99413369,0.05527812,-0.09285057,0.00461652
1761620390393,-0.07531557,-0.05324862,0.15126007,-0.01471944,0.02058083,0.02219304,0.99414791,0.05519863,-0.09273943,0.00473636
1761620390403,-0.09076699,-0.21717825,0.20241874,-0.02591393,0.02342010,0.02205957,0.99416706,0.05505740,-0.09261179,0.00485659
1761620390415,-0.04960141,-0.10992831,0.08105943,-0.02018347,0.00957933,-0.02809135,0.99417896,0.05494538,-0.09255863,0.00470068
1761620390427,0.09518661,0.02796779,0.11533030,-0.02067239,0.00847930,-0.03384817,0.99419190,0.05481721,-0.09250605,0.00449082
1761620390437,-0.07980434,-0.00821616,-0.19225420,-0.01416509,-0.01670802,-0.02568970,0.99418857,0.05474568,-0.09259043,0.00436109
1761620390448,0.20550428,0.01064937,0.07164173,-0.00419829,0.01110538,-0.00112052,0.99419523,0.05472364,-0.09253213,0.00435521
1761620390459,0.02667903,0.06269308,-0.06324040,-0.00798147,-0.01465386,-0.00315165,0.99418985,0.05467655,-0.09261858,0.00433661
1761620390470,-0.03105887,-0.17319391,0.20051340,0.01829945,-0.00772289,0.00016127,0.99418035,0.05477719,-0.09266106,0.00433750
1761620390482,-0.05928316,0.11045172,0.07518583,-0.00846748,-0.01920662,0.00853388,0.99417279,0.05473020,-0.09276766,0.00438486
1761620390493,0.05194049,-0.05837814,0.10934841,0.00389087,-0.00074173,0.00052151,0.99417122,0.05475160,-0.09277174,0.00438773
1761620390504,-0.05085706,0.03139923,-0.10798416,-0.00807341,-0.00335313,-0.00694778,0.99417217,0.05470437,-0.09279135,0.00434708
1761620390515,-0.06490479,0.01391473,-0.10776645,-0.01382839,-0.00287641,-0.02320358,0.99417525,0.05463246,-0.09280631,0.00422643
1761620390526,0.06664369,0.04748451,0.16510982,-0.00985745,0.00177736,-0.01997506,0.99417976,0.05457628,-0.09279618,0.00411257
1761620390538,0.03052536,-0.00143282,-0.09847691,-0.00821012,-0.00276492,-0.01439726,0.99418121,0.05452866,-0.09281222,0.00402906
1761620390548,-0.13025564,0.04808155,0.09501332,-0.01718389,-0.00682585,-0.01799803,0.99418325,0.05443586,-0.09284908,0.00393187
1761620390559,0.28105249,-0.02396685,0.05670846,-0.01077555,0.00108628,0.00040235,0.99418700,0.05437714,-0.09284316,0.00393407
1761620390570,0.25886707,-0.00395073,0.04013443,-0.02005366,-0.00238306,0.00191830,0.99419172,0.05426784,-0.09285614,0.00394452
1761620390581,0.06226746,-0.00311605,0.11439397,-0.03006977,0.00143542,-0.00448455,0.99420184,0.05409795,-0.09284803,0.00391918
1761620390592,-0.15287190,0.04604548,-0.11229259,-0.03611134,-0.02349899,-0.02236404,0.99420105,0.05390656,-0.09297258,0.00380065
1761620390603,-0.17755920,0.12981762,0.14402519,-0.00986965,-0.01163316,-0.02499300,0.99419853,0.05385228,-0.09303656,0.00366319
1761620390614,-0.03478023,0.08600427,0.12197694,0.00471773,-0.00901588,-0.01393451,0.99419260,0.05387893,-0.09308750,0.00358446
1761620390626,0.09709269,-0.05029682,-0.12696737,0.00755751,-0.00923741,-0.00133149,0.99418543,0.05392163,-0.09313969,0.00357694
1761620390636,-0.00948290,-0.09029237,-0.07623878,0.03396550,-0.01393277,-0.00438957,0.99416881,0.05410165,-0.09321353,0.00355368
1761620390647,0.00226782,-0.12399123,0.28351475,0.00822500,-0.00483265,0.00029867,0.99416385,0.05414689,-0.09324011,0.00355532
1761620390660,0.05455645,-0.02232644,0.01301735,-0.01373395,-0.00783633,-0.00411735,0.99416402,0.05405899,-0.09329027,0.00352897
1761620390671,0.17029534,0.06032957,0.00843173,-0.02302060,-0.01248992,-0.01383633,0.99416470,0.05393468,-0.09335771,0.00345425
1761620390682,0.02861677,0.13452437,0.05723354,-0.01371329,0.00043614,-0.02289157,0.99416936,0.05386063,-0.09335536,0.00333064
1761620390692,-0.15786446,-0.01303899,-0.12843006,0.02722413,-0.01155267,-0.02404726,0.99415632,0.05400355,-0.09341601,0.00320439
1761620390704,-0.12060879,0.03206865,0.06101201,0.03211319,-0.00200230,-0.02426603,0.99414573,0.05418660,-0.09342742,0.00306607
1761620390714,0.07229500,0.10383329,-0.02130121,0.04502359,-0.00332910,-0.03696692,0.99413135,0.05442973,-0.09344540,0.00286645
1761620390726,0.03583051,-0.00886534,-0.06496741,0.04209047,-0.00523457,-0.00765359,0.99411523,0.05467385,-0.09347576,0.00282206
1761620390768,-0.03431154,-0.03720118,0.01551910,0.01144625,-0.00340146,-0.00264984,0.99409546,0.05491365,-0.09354702,0.00276655
1761620390795,0.07512886,0.10374936,-0.17384586,0.02522583,-0.03303619,-0.02482836,0.99403585,0.05525168,-0.09398970,0.00243385
1761620390803,0.71814992,0.33609468,-1.91426721,-0.00711270,-0.06345286,0.05158579,0.99401085,0.05522074,-0.09426572,0.00265824
1761620390826,-0.33564139,-0.33140944,0.88191124,-0.02654700,-0.02485687,-0.01669061,0.99400133,0.05492208,-0.09454536,0.00247047
1761620390837,0.36066914,-0.25745472,-0.19397028,-0.01211442,-0.03845811,-0.01773105,0.99398495,0.05485485,-0.09475881,0.00237207
1761620390849,-0.19057624,0.06864888,0.04649679,0.01704757,-0.02128247,-0.00578365,0.99396691,0.05495884,-0.09488863,0.00233679
1761620390861,-0.02878055,0.02999089,0.40849535,-0.00998978,-0.01543161,0.02602229,0.99396115,0.05490040,-0.09497891,0.00248902
1761620390871,0.24226996,0.02701186,0.12092101,-0.01005847,0.00165136,0.01653916,0.99396450,0.05485010,-0.09497065,0.00257171
1761620390882,-0.03317111,-0.00638765,0.05382027,-0.00473041,-0.00825661,0.01729114,0.99396137,0.05482432,-0.09501565,0.00266595
1761620390892,0.19166092,-0.09935771,-0.19047641,-0.02814814,-0.01106141,0.00661635,0.99396391,0.05467373,-0.09507483,0.00270135
1761620390905,-0.08211225,0.11791916,-0.11505412,-0.06269434,-0.03045221,-0.00295456,0.99396722,0.05428189,-0.09526515,0.00268288
1761620390916,0.14638705,0.02082637,0.09553096,0.00499186,-0.01759436,-0.04542785,0.99395727,0.05430885,-0.09536016,0.00243757
1761620390927,-0.11481348,0.18011667,-0.05557919,0.03187491,-0.02799897,-0.00821844,0.99393277,0.05448575,-0.09551556,0.00239196
1761620390937,-0.00449235,0.08433723,-0.10628701,0.04101397,-0.01926455,-0.04497797,0.99391156,0.05470313,-0.09561766,0.00215358
1761620390949,-0.00021360,0.00382687,-0.09858566,0.05856509,-0.01862466,-0.07228275,0.99388298,0.05504573,-0.09572661,0.00173072
1761620390960,-0.08025002,0.13274098,-0.05487542,0.03952623,-0.04467614,-0.04379679,0.99384697,0.05526708,-0.09597680,0.00148546
1761620390971,0.04405255,-0.03355510,0.05031561,0.02754683,-0.02620011,-0.02304801,0.99382479,0.05541859,-0.09612090,0.00135870
1761620390984,-0.10419953,-0.03130714,-0.05173694,0.02793525,-0.02686010,-0.02719461,0.99379859,0.05559598,-0.09629146,0.00118601
1761620390995,0.19174109,0.03162721,0.17232638,0.03269613,-0.02788369,-0.00409678,0.99377457,0.05576927,-0.09643924,0.00116430
1761620391006,-0.06643599,0.09205818,0.08677202,0.01541213,-0.03697701,-0.01826577,0.99375017,0.05585403,-0.09664262,0.00106383
1761620391017,0.02111404,-0.10733910,0.11454285,0.00917290,-0.02928913,-0.00772966,0.99373103,0.05590632,-0.09680957,0.00101978
1761620391028,-0.02923616,-0.09781401,0.06698020,0.00797117,-0.03905332,-0.01932350,0.99370899,0.05594777,-0.09701264,0.00091929
1761620391038,-0.06439447,-0.05574416,0.04658875,0.01038522,-0.02577588,-0.02714868,0.99369312,0.05600125,-0.09714539,0.00077948
1761620391050,-0.10787669,0.03335983,-0.07921567,0.00103257,-0.02760696,-0.02366584,0.99367667,0.05600745,-0.09731103,0.00063748
1761620391060,-0.10623413,0.12696398,0.05190064,0.02331681,-0.00725359,-0.03138931,0.99366612,0.05612986,-0.09734911,0.00047269
1761620391072,-0.28767330,-0.01651213,-0.18680307,0.04644396,-0.02005873,-0.02267892,0.99363975,0.05639691,-0.09746445,0.00034229
1761620391083,-0.02805920,-0.01576749,0.08260713,0.01200048,0.01073503,0.00701072,0.99364176,0.05646232,-0.09740594,0.00038049
1761620391094,-0.05250351,-0.14919350,-0.06218117,-0.00783578,-0.00265023,0.04828242,0.99364266,0.05641844,-0.09742078,0.00065088
1761620391105,0.10027688,-0.19019005,0.10466139,-0.00440699,0.02529758,0.02552648,0.99365797,0.05639354,-0.09727785,0.00079510
1761620391116,-0.19850560,-0.07200834,-0.08875747,-0.02045847,0.02729258,0.04672984,0.99367860,0.05628204,-0.09712911,0.00104978
1761620391127,0.00102780,0.03882616,0.13416196,-0.02829711,0.05460319,0.00820356,0.99371770,0.05612216,-0.09682060,0.00109613
1761620391138,-0.02179938,-0.04383689,-0.05931897,0.00029493,0.01929435,-0.00296346,0.99372806,0.05612380,-0.09671352,0.00107968
1761620391149,0.01082797,0.06767825,0.08419297,-0.00461538,0.04535499,0.03493770,0.99375305,0.05609887,-0.09646860,0.00126834
1761620391160,-0.05782331,0.10934658,-0.06978931,-0.00944540,0.04509763,0.04013504,0.99377948,0.05604740,-0.09622282,0.00148708
1761620391171,-0.14188676,0.31961139,-0.12805903,0.00134522,0.06423219,0.03712689,0.99381348,0.05605493,-0.09586312,0.00169499
1761620391182,0.01333540,0.09006670,-0.13060947,0.01502270,0.06388600,0.05101005,0.99384213,0.05613755,-0.09551175,0.00197555
1761620391195,-0.00518616,-0.07360011,0.20122867,0.00599481,0.04879961,0.01284435,0.99386868,0.05617442,-0.09521163,0.00205454
1761620391206,0.06795118,-0.29899793,0.40555352,-0.00154838,0.04596579,0.01543366,0.99389295,0.05616598,-0.09496111,0.00213865
1761620391217,0.12081124,0.04702148,0.05369015,-0.00586652,0.05463264,-0.00120550,0.99392456,0.05613254,-0.09464971,0.00213178
1761620391228,0.02391284,0.07264191,0.06423710,0.02158880,0.03255061,-0.00647410,0.99393524,0.05625452,-0.09446580,0.00209520
1761620391242,0.14366970,0.09769830,-0.05951945,0.02067113,0.02567935,0.00126688,0.99394364,0.05639198,-0.09429503,0.00210363
1761620391251,0.05132557,0.23294637,0.26493050,0.02509602,0.01353321,0.01658774,0.99394280,0.05651119,-0.09423075,0.00218242
1761620391287,0.01951236,-0.08913488,-0.14873427,0.00445713,0.00092507,0.01155195,0.99393936,0.05659075,-0.09421423,0.00238862
1761620391306,0.42830437,0.02015345,0.81452035,-0.00003903,0.00523512,0.02259359,0.99394354,0.05659038,-0.09416476,0.00260213
1761620391316,0.20537440,0.10691432,0.19225348,-0.01709993,-0.03702344,-0.00288281,0.99393038,0.05650146,-0.09435728,0.00258714
1761620391327,-0.35176799,0.27591985,-0.73745543,0.02405273,-0.02800353,-0.03222443,0.99390826,0.05663616,-0.09451410,0.00240668
1761620391338,-0.01140395,-0.06967101,-0.21287373,0.05725644,-0.02466151,-0.03583397,0.99387726,0.05695679,-0.09465221,0.00220601
1761620391350,-0.06818564,-0.11031817,-0.11337774,0.01168192,-0.00379901,-0.02647449,0.99387151,0.05702572,-0.09467462,0.00204981
1761620391361,-0.02168280,-0.13872897,-0.00948941,0.01422621,-0.00452181,-0.04855456,0.99386522,0.05710325,-0.09469927,0.00178519
1761620391372,0.24517390,-0.07624609,0.19338036,0.01472418,0.00057953,-0.02062453,0.99386118,0.05718202,-0.09469617,0.00167485
1761620391382,0.01796688,0.01026006,0.12794960,-0.01506874,0.00289636,-0.03448882,0.99386753,0.05710216,-0.09468082,0.00149206
1761620391394,-0.08279214,-0.11682612,-0.22681101,-0.00995288,-0.01190612,-0.06781939,0.99386480,0.05704493,-0.09474928,0.00110210
1761620391396,13.29389839,-0.76243760,19.07066561,-0.19649553,-0.02786826,-0.24734513,0.99387408,0.05683861,-0.09477854,0.00084238
1761620391406,-2.92437616,0.07545743,-4.15072745,0.00412531,-0.02095431,-0.03989823,0.99386328,0.05685882,-0.09488121,0.00064688
1761620391417,-0.01584364,0.06754154,0.08251559,-0.01862679,0.00665031,-0.01575664,0.99387268,0.05675638,-0.09484464,0.00056022
1761620391428,0.10472781,-0.12470622,0.04513216,-0.01364128,-0.00078469,0.02504160,0.99387636,0.05668339,-0.09484883,0.00069419
1761620391439,-0.03103854,-0.11484144,0.09996099,-0.01862510,0.02584103,0.00892978,0.99389553,0.05658189,-0.09470800,0.00074286
1761620391450,-0.13154748,0.00906019,-0.01533202,-0.03844092,0.01141237,-0.01369772,0.99391489,0.05635509,-0.09464067,0.00066205
1761620391462,0.07269204,-0.13363922,-0.03709463,-0.04528172,0.00327924,-0.01821731,0.99393148,0.05609472,-0.09462181,0.00055730
1761620391472,0.15303633,-0.26643665,-0.02830453,-0.01578456,0.00762585,-0.02883094,0.99394012,0.05601106,-0.09458140,0.00040449
1761620391484,-0.07522086,0.07645421,-0.11123749,-0.01536015,-0.00349607,-0.00991946,0.99394325,0.05592120,-0.09460185,0.00034646
1761620391495,0.16101717,0.18591506,0.18397150,-0.01909141,0.02032571,-0.00324439,0.99395979,0.05581620,-0.09449006,0.00032862
1761620391506,-0.05223774,0.29818478,0.33503138,0.00019707,0.00693282,0.00131580,0.99396323,0.05581724,-0.09445331,0.00033559
1761620391517,0.05966076,0.09242046,-0.09332776,-0.00409038,0.00752586,0.00555927,0.99396874,0.05579331,-0.09440929,0.00036811
1761620391528,0.09367691,-0.17297130,0.04283361,0.02533774,-0.01182251,-0.00401355,0.99395563,0.05592380,-0.09447017,0.00034744
1761620391539,-0.02260541,-0.11770914,0.17011162,-0.01041602,-0.00952667,0.00474233,0.99395381,0.05586495,-0.09452400,0.00037424
1761620391551,-0.03318404,-0.05378846,0.05950792,-0.02884166,-0.01286400,-0.00459409,0.99395609,0.05569911,-0.09459797,0.00034782
1761620391562,-0.04146410,0.01870391,0.03966131,-0.00148800,-0.00320448,0.00234629,0.99395481,0.05569056,-0.09461639,0.00036131
1761620391573,-0.09626610,0.14830619,0.14884276,0.01870831,-0.00473370,0.01552721,0.99394668,0.05579158,-0.09464195,0.00044516
1761620391583,0.06123917,0.14254713,-0.03821663,0.01607728,-0.00041346,0.01415750,0.99394160,0.05587760,-0.09464416,0.00052090
1761620391595,0.11662798,0.01688712,-0.18558479,0.01366354,-0.02205278,0.03180357,0.99392556,0.05595343,-0.09476656,0.00069741
1761620391606,0.22059669,0.21914539,0.02709082,-0.01030961,-0.03243953,0.07532202,0.99391122,0.05589621,-0.09494660,0.00111545
1761620391617,0.01145356,-0.13153160,0.11334566,-0.00761914,-0.04035350,0.06387730,0.99389119,0.05585278,-0.09517661,0.00147955
1761620391628,0.38890137,-0.68014183,0.82975406,-0.04375525,-0.04953506,0.06103122,0.99387776,0.05560775,-0.09545401,0.00182133
1761620391639,-0.57941660,0.48405322,-0.30923633,-0.06455200,-0.05544401,0.00976717,0.99386830,0.05525917,-0.09575341,0.00187407
1761620391651,-0.20180630,0.69944310,-0.30460461,-0.02342127,-0.04863065,-0.01498168,0.99384744,0.05511396,-0.09605492,0.00178118
1761620391674,-0.20991132,-0.11896944,-0.50372360,0.03657431,-0.01411019,-0.01687370,0.99381035,0.05551628,-0.09621013,0.00159557
1761620391675,62.97192013,46.43125108,114.63112197,0.99971848,0.01256037,0.06111338,0.99377179,0.05621608,-0.09620134,0.00163835
1761620391685,-8.38588866,-6.23233547,-14.72061280,0.05471504,0.02557164,0.02103994,0.99376837,0.05649786,-0.09606964,0.00174671
1761620391731,-0.07639854,-0.10194206,-0.25512064,0.00841515,0.01334039,0.01377867,0.99378623,0.05669015,-0.09576481,0.00206155
1761620391740,5.28796197,2.19382439,14.64605350,-0.01995156,0.35574145,0.09764463,0.99393811,0.05660336,-0.09421734,0.00248630
1761620391788,-0.91473005,-0.35054449,-2.51971642,0.01075436,0.02375384,-0.03749536,0.99397910,0.05686146,-0.09364725,0.00158641
1761620391806,0.73527849,0.22010038,1.94356413,0.11725599,0.04416835,-0.14153574,0.99395583,0.05795781,-0.09323427,0.00026306
1761620391817,0.09974348,-0.49446020,0.25387556,0.02598897,-0.00079988,-0.02883375,0.99394702,0.05810205,-0.09323871,0.00010303
1761620391840,-0.35492647,-0.03822171,-1.21085576,0.01014986,-0.00784280,0.04565857,0.99393215,0.05821420,-0.09332537,0.00060756
1761620391862,-0.23022715,-0.02287353,-0.52102854,0.00403988,-0.02514011,0.02245639,0.99390336,0.05825864,-0.09360192,0.00085458
1761620391873,0.37329829,-0.52398862,1.10270010,0.03862902,-0.06805342,-0.02087013,0.99385391,0.05847883,-0.09398982,0.00073562
1761620391884,-0.12082537,-0.12660704,-0.30107252,0.03642263,-0.06352985,-0.03837906,0.99380791,0.05868461,-0.09434876,0.00051877
1761620391895,-0.39157707,0.29034085,-0.22613798,0.02727625,-0.05365996,-0.04418844,0.99377141,0.05883327,-0.09464121,0.00027795
1761620391907,-0.20449561,0.36512165,-0.51614448,0.02428573,-0.05439818,-0.03141057,0.99373266,0.05897534,-0.09495944,0.00009420
1761620391918,0.10772118,-0.17147916,0.04302464,0.02010706,-0.03418519,0.02260954,0.99370742,0.05908895,-0.09515259,0.00022194
1761620391929,0.41127474,0.04830582,0.51572471,-0.02271554,-0.03106332,0.04530667,0.99369796,0.05895833,-0.09533120,0.00048245
1761620391941,-0.53805264,-0.18132122,-0.36801054,-0.04862260,-0.05763088,0.06081553,0.99368271,0.05868361,-0.09565682,0.00082606
1761620391943,7.94095870,-17.11438765,67.64525778,-0.67088277,-0.29504722,0.49379826,0.99369161,0.05811336,-0.09590761,0.00124579
1761620391952,-1.45537689,2.60173866,-11.16275867,-0.11762494,-0.06704435,0.09229078,0.99369271,0.05754288,-0.09623277,0.00169340
1761620391963,-0.35375758,-0.33311303,-0.02449302,-0.07677949,-0.04817876,0.04263495,0.99369092,0.05711292,-0.09650257,0.00193216
1761620391975,0.06062219,0.15843914,-0.35019121,-0.02883884,-0.05407804,0.03759530,0.99366956,0.05694565,-0.09681622,0.00215021
1761620391984,0.06492275,0.46463313,0.69262023,-0.05325715,-0.06947851,0.04217744,0.99365174,0.05669801,-0.09713930,0.00234633
1761620391996,0.26961585,-0.05099594,-0.50277119,-0.01372561,-0.03341428,0.00990303,0.99363680,0.05661634,-0.09733811,0.00240526
1761620392008,-0.32067688,0.70647607,-0.18438034,0.05975118,-0.01136694,0.02578000,0.99361062,0.05695692,-0.09740291,0.00255220
1761620392020,0.03171943,0.10772298,-0.01010839,0.01869578,-0.00837801,0.04694141,0.99359849,0.05706909,-0.09745317,0.00283385
1761620392030,-0.15223014,-0.23312553,0.54308921,-0.03338004,-0.01205208,-0.01169627,0.99360236,0.05690053,-0.09751404,0.00277478
1761620392041,-0.29467731,-0.11930924,0.55890646,-0.05600579,-0.01256062,-0.00880729,0.99361350,0.05658689,-0.09758438,0.00272546
1761620392052,0.36183697,0.05135561,-0.51436572,-0.02254692,-0.00160589,0.01227734,0.99361944,0.05646401,-0.09759313,0.00279238
1761620392063,-0.11623455,0.65269216,-0.35176045,0.01048586,0.01038898,0.02367614,0.99362135,0.05652011,-0.09753755,0.00291904
1761620392075,0.28740827,0.29397250,-0.65815783,0.01921391,0.01197043,0.02084797,0.99362146,0.05663540,-0.09746572,0.00304413
1761620392085,-0.12505807,-0.19387399,0.07582839,0.12784239,0.04349916,0.02592661,0.99360508,0.05730018,-0.09723953,0.00317895
1761620392096,-0.13990102,-0.64328142,0.83427078,0.07742718,0.02431406,0.01464846,0.99359314,0.05772990,-0.09710459,0.00326025
1761620392107,0.03676611,0.54199784,-0.58051760,0.05700596,0.01120848,-0.00664115,0.99358091,0.05804628,-0.09704238,0.00322339
1761620392119,0.00716717,-0.22628502,0.04463117,0.02832957,0.00289692,-0.01152749,0.99357315,0.05821059,-0.09702558,0.00315653
1761620392131,0.05550040,-0.28478540,-0.01400877,0.00966694,-0.00025063,-0.00836566,0.99356965,0.05827053,-0.09702713,0.00310466
1761620392142,-0.14097386,-0.08079993,0.30436639,-0.02375182,-0.01679800,-0.02254531,0.99356867,0.05814227,-0.09711784,0.00298292
1761620392153,0.11034894,-0.22143936,-0.24857044,0.03113464,-0.01511191,-0.00834534,0.99355146,0.05830572,-0.09719718,0.00293911
1761620392164,-0.02618946,0.04040319,-0.26310957,0.03722185,-0.01685337,0.00055396,0.99352919,0.05852161,-0.09729493,0.00294232
1761620392175,-0.09959482,-0.11005959,-0.00310132,0.06029231,-0.02545317,0.01164187,0.99349631,0.05884719,-0.09743237,0.00300518
1761620392186,-0.00375581,0.09285344,-0.09568125,-0.02720984,-0.02147787,0.03450297,0.99349282,0.05869073,-0.09755587,0.00320358
1761620392198,0.07518758,-0.10536228,-0.19992500,0.02541484,-0.01563597,0.03181815,0.99347458,0.05883814,-0.09764656,0.00338812
1761620392209,0.02988621,-0.05500644,-0.22152500,0.03489793,-0.01864341,0.05731097,0.99345157,0.05903357,-0.09775096,0.00370906
1761620392230,0.02460078,0.02669526,-0.15156185,-0.00165920,-0.01522896,0.00909826,0.99343657,0.05901623,-0.09791011,0.00380414
1761620392231,-21.75502990,-32.88655380,31.11178668,-0.26198785,-0.19578857,0.03067433,0.99343365,0.05881974,-0.09805695,0.00382715
1761620392241,3.29691287,4.78050715,-4.90134002,-0.02487733,-0.02156893,0.01962672,0.99343016,0.05870157,-0.09815940,0.00392037
1761620392253,-0.10831663,-0.10196348,0.07546436,-0.04057619,-0.02314696,0.00746830,0.99343061,0.05845811,-0.09829828,0.00396518
1761620392264,0.18751363,-0.50336883,-0.10433752,-0.06619120,-0.00125067,0.02590551,0.99344961,0.05811392,-0.09830479,0.00409989
1761620392275,0.08946244,0.08208803,0.01278291,-0.07743951,0.00979151,0.04946453,0.99347939,0.05767639,-0.09824946,0.00437937
1761620392286,0.00256327,0.06328280,0.04446481,-0.05098247,0.01373533,0.04437197,0.99350199,0.05739598,-0.09817392,0.00462341
1761620392317,0.00593057,0.26879020,-0.08652292,-0.01849131,0.01247859,0.00848104,0.99353754,0.05710474,-0.09797738,0.00475699
1761620392320,-9.75759860,-14.76469588,13.12748905,-0.35609358,0.13074319,0.25679438,0.99358391,0.05658841,-0.09778780,0.00512934
1761620392330,2.63240269,3.82879090,-3.30010792,-0.05194673,0.01685250,0.02138125,0.99360618,0.05633127,-0.09770438,0.00523518
1761620392341,0.09669430,0.04254014,-0.05840359,-0.05166128,0.00713088,0.01914968,0.99362572,0.05604455,-0.09766481,0.00534146
1761620392352,0.10449317,-0.10667011,-0.01548047,-0.02682605,0.01809070,0.02426843,0.99364323,0.05589567,-0.09756440,0.00547615
1761620392364,0.02017661,0.17048258,0.20106376,-0.02594000,0.03093347,-0.00685169,0.99366950,0.05574521,-0.09738499,0.00543641
1761620392375,-0.01653632,-0.03159781,-0.00673160,-0.03319561,0.01303389,-0.00151821,0.99368617,0.05556928,-0.09731591,0.00542836
1761620392386,0.12541727,0.14031938,0.11918163,-0.02784498,0.02864645,-0.01201320,0.99371116,0.05541195,-0.09715406,0.00536049
1761620392396,-0.06059571,0.04913198,0.07836072,-0.02831571,-0.00048400,-0.01979669,0.99371950,0.05526754,-0.09715653,0.00525952
1761620392407,0.06863389,0.08762691,-0.11417398,-0.00855556,0.01563395,-0.04295231,0.99373219,0.05521878,-0.09706741,0.00501470
1761620392419,0.03102230,-0.09847238,-0.16365135,-0.00560420,-0.00220625,-0.03296629,0.99373374,0.05518515,-0.09708065,0.00481690
1761620392431,-0.09404539,0.01904428,0.03410272,-0.01330597,0.00060734,-0.03493388,0.99373928,0.05510864,-0.09707716,0.00461603
1761620392442,0.02475852,0.09844244,0.04283481,-0.04352616,0.01367938,-0.01396396,0.99376023,0.05486925,-0.09700192,0.00453923
1761620392454,-0.02328656,0.08201694,-0.00455961,-0.00500011,0.01061699,0.00343058,0.99376807,0.05483900,-0.09693769,0.00455998
1761620392465,0.29305613,-0.09512697,0.30093842,-0.00474327,0.01571440,0.02646593,0.99377701,0.05481362,-0.09685362,0.00470157
1761620392476,0.04470528,0.02977809,0.02188244,-0.02076172,0.01062699,-0.00285539,0.99378918,0.05469839,-0.09679464,0.00468573
1761620392487,0.01354541,-0.13424470,-0.00387012,0.00583016,0.00583828,0.00166356,0.99379051,0.05473075,-0.09676223,0.00469496
1761620392497,-0.40215104,0.14395103,-0.08533547,0.00253076,0.00015557,-0.01988628,0.99379034,0.05474416,-0.09676141,0.00458956
1761620392508,-0.08487667,-0.03216030,-0.18248485,0.02006100,-0.00992344,-0.02354530,0.99377992,0.05485049,-0.09681400,0.00446477
1761620392519,-0.02970684,0.13182409,0.14429035,0.00835898,-0.00951913,-0.01574185,0.99377293,0.05489479,-0.09686446,0.00438134
1761620392530,0.02996497,-0.13435327,-0.08439267,0.02137043,0.00822827,0.00369696,0.99377075,0.05501233,-0.09681920,0.00440167
1761620392541,-0.09317131,0.01391526,-0.01278340,0.00000351,0.00459280,0.01269835,0.99377300,0.05501235,-0.09679279,0.00447469
1761620392552,-0.08021239,-0.11488254,0.02907636,-0.00930888,0.00702967,0.00969277,0.99377941,0.05496068,-0.09675378,0.00452848
1761620392564,-0.01933719,0.02922115,0.17304302,-0.00782364,0.01777547,0.00493902,0.99379161,0.05491609,-0.09665246,0.00455664
1761620392575,-0.02161983,0.19686381,-0.10321831,0.00226243,0.01583028,0.00285954,0.99379952,0.05492887,-0.09656302,0.00457279
1761620392587,-0.02137797,0.30424732,-0.31510537,0.02965777,0.02120406,0.01268281,0.99380162,0.05510237,-0.09643897,0.00464699
1761620392598,-0.10889722,0.07737318,-0.30444181,0.12830905,0.05293679,0.03121834,0.99378919,0.05583373,-0.09613723,0.00482493
1761620392610,-0.02935286,0.24858201,0.01467643,0.03040898,0.04912129,0.01365516,0.99380610,0.05600706,-0.09585724,0.00490277
1761620392619,-0.09472669,-0.05596496,-0.05766351,0.05709456,0.07102762,0.00323108,0.99382372,0.05628683,-0.09550921,0.00491860
1761620392631,0.09448987,-0.20281891,0.00217218,0.02559927,0.04410876,0.01704080,0.99383882,0.05643018,-0.09526220,0.00501403
1761620392642,0.03801317,-0.24969899,-0.04181448,0.00432631,0.05706137,-0.03369096,0.99386896,0.05645441,-0.09494265,0.00482536
1761620392653,0.02098959,-0.01206067,0.07459031,-0.00886829,0.04954252,-0.06799714,0.99390085,0.05640342,-0.09465778,0.00443437
1761620392664,0.40514948,-0.07932489,0.09534184,-0.00618616,0.03288207,-0.05617152,0.99392094,0.05637001,-0.09448022,0.00413105
1761620392675,0.27824062,0.24680478,-0.06237482,0.01557986,0.05125535,-0.04404472,0.99394464,0.05645882,-0.09418806,0.00387999
1761620392687,-0.00936976,0.16516267,-0.14686077,0.04080356,0.02769218,-0.04930808,0.99394734,0.05668528,-0.09403437,0.00360633
1761620392699,-0.19855671,0.01842954,-0.07566160,0.00845645,0.02779905,-0.01178411,0.99396101,0.05673813,-0.09386063,0.00353268
1761620392710,-0.16054831,-0.03744255,0.00851213,0.01002029,0.00017892,-0.03240224,0.99395857,0.05679324,-0.09385964,0.00335447
1761620392720,0.03164465,-0.17151237,0.08886511,-0.00719992,-0.01908946,-0.06911687,0.99395272,0.05675724,-0.09395509,0.00300889
1761620392732,0.08308007,-0.15948010,-0.02842393,0.00509827,-0.02430512,-0.05836951,0.99393842,0.05678732,-0.09409849,0.00266450
1761620392743,0.01259589,-0.00368655,-0.10005839,0.02334901,-0.03803850,-0.06527447,0.99391166,0.05691807,-0.09431151,0.00229897
1761620392755,-0.01810657,0.07810602,-0.09113353,0.03593574,-0.04729207,-0.04435876,0.99387225,0.05713728,-0.09459999,0.00202838
1761620392777,0.13074140,0.07717591,0.00556455,0.02102971,-0.01708469,-0.00813141,0.99384205,0.05736230,-0.09478280,0.00194137
1761620392786,0.81848010,0.48486327,-0.68502872,0.07519442,-0.08324797,0.02360052,0.99378149,0.05773075,-0.09519071,0.00205702
1761620392788,11.81666426,0.58540276,-15.32690865,0.19132203,-0.29716593,0.15703416,0.99375352,0.05786468,-0.09539873,0.00216694
1761620392798,-2.59827594,-0.78462554,2.32471630,-0.02573984,-0.05059039,0.01892342,0.99373563,0.05772954,-0.09566433,0.00226629
1761620392810,0.03476803,-0.23702357,-0.16036219,-0.01529575,-0.04029162,-0.00069131,0.99371841,0.05764159,-0.09589600,0.00226231
1761620392821,-0.08014679,-0.05090831,-0.07793759,-0.00496264,-0.04834220,0.00802437,0.99369486,0.05761504,-0.09615463,0.00230524
1761620392850,0.01428236,0.08532334,0.12579972,0.00361516,-0.01994762,0.00074670,0.99366312,0.05766855,-0.09644986,0.00231629
1761620392852,-10.97530932,-6.99332638,-46.17426846,-0.12921863,-0.33211178,-0.30235960,0.99363898,0.05753933,-0.09678197,0.00201393
1761620392865,1.67675693,1.08738111,6.73275239,-0.01838766,-0.01254959,0.01548256,0.99363772,0.05741797,-0.09686480,0.00211612
1761620392876,0.02044055,-0.04366845,-0.20477715,-0.01620843,-0.02813450,0.01547442,0.99362777,0.05733045,-0.09701672,0.00219968
1761620392887,-0.09826832,-0.03848655,0.06956927,-0.00334611,-0.02418482,0.00192199,0.99361548,0.05731154,-0.09715337,0.00221054
1761620392898,0.00074980,-0.07702766,-0.22574175,-0.01074271,-0.02094349,0.00314822,0.99360758,0.05725246,-0.09726856,0.00222786
1761620392900,-8.92932433,-11.34273546,-36.63511519,-0.14004824,-0.21742089,0.04172937,0.99359557,0.05712641,-0.09746424,0.00226541
1761620392909,1.54599476,2.16644575,6.90437123,-0.01269441,-0.01797824,-0.02386307,0.99359101,0.05706738,-0.09754783,0.00215445
1761620392922,-0.03431962,0.00292253,0.14025518,-0.00808381,-0.02661973,-0.00370744,0.99357804,0.05701848,-0.09770888,0.00213202
1761620392933,-0.06627714,0.20756388,-0.16623023,-0.00663488,-0.01751869,0.00206958,0.99357063,0.05698198,-0.09780524,0.00214340
1761620392944,0.02023610,0.18120549,0.19993264,-0.00506532,-0.00046945,0.00853659,0.99357196,0.05695210,-0.09780801,0.00219377
1761620392966,0.07244593,-0.00221794,0.18897557,0.00739493,-0.00725355,0.00376562,0.99355952,0.05703233,-0.09788671,0.00223462
1761620392976,-0.31612622,0.83548115,-0.78943775,0.05385422,0.02178010,-0.03213371,0.99355505,0.05730430,-0.09777672,0.00207235
1761620392979,-6.02808526,8.16059879,-12.68565851,0.26437723,0.16575131,-0.17367772,0.99355667,0.05762155,-0.09757782,0.00186394
1761620392987,1.66198445,-2.65234369,3.60746304,0.01531568,0.03851689,-0.02244209,0.99356942,0.05768817,-0.09741027,0.00176631
1761620392999,-0.17165061,-0.17023146,0.01352087,0.00219623,0.04191431,-0.01344272,0.99359202,0.05770058,-0.09717345,0.00169036
1761620393010,0.07389019,-0.15671706,0.04652408,-0.00922881,0.04879499,-0.00600768,0.99362176,0.05764890,-0.09690020,0.00165672
1761620393021,-0.06414361,0.00005058,-0.05242675,-0.01112219,0.03143958,-0.01091004,0.99364226,0.05758773,-0.09672728,0.00159671
1761620393032,0.11423718,-0.10843080,-0.11547770,-0.00274500,0.04565482,0.01029035,0.99366722,0.05757277,-0.09647846,0.00165280
1761620393043,-0.01513086,0.04389885,0.07038627,-0.00129406,0.04031789,-0.00676632,0.99369000,0.05756539,-0.09624865,0.00161423
1761620393054,-0.03603536,-0.02293159,-0.13557932,0.02181015,0.03312616,0.00003654,0.99370029,0.05768099,-0.09607308,0.00161442
1761620393066,0.40392456,-0.18839269,-0.04510959,-0.00399491,0.03538249,-0.00396490,0.99372222,0.05765702,-0.09586079,0.00159063
1761620393077,0.04765964,-0.01142368,-0.31351679,-0.02951258,0.03562733,-0.01373848,0.99375037,0.05749617,-0.09566662,0.00151576
1761620393089,0.05273887,-0.12921840,0.08278423,-0.00938646,0.02616142,0.02487718,0.99376848,0.05743985,-0.09550965,0.00166502
1761620393100,-0.39932482,0.02321025,0.17349095,-0.03790855,0.01984511,0.02091171,0.99379140,0.05722567,-0.09539753,0.00178317
1761620393110,-0.14937447,-0.27488176,-0.11950785,-0.03499591,0.02844898,0.01564404,0.99381520,0.05704894,-0.09525386,0.00186217
1761620393120,-0.02573032,-0.01177634,0.01128357,-0.05875407,0.02220791,0.00222960,0.99384264,0.05675517,-0.09514282,0.00187332
1761620393131,0.11978013,-0.06802699,-0.01660280,-0.04019852,0.01276558,0.00822480,0.99386204,0.05653207,-0.09507197,0.00191897
1761620393143,0.01543575,0.14999021,0.06110448,-0.04607317,0.01176624,0.01286704,0.99388359,0.05626485,-0.09500373,0.00199360
1761620393154,-0.01063103,-0.06406303,-0.09213560,-0.02716683,0.00656651,0.03326364,0.99389573,0.05610728,-0.09496564,0.00218653
1761620393166,-0.13355383,0.48252138,0.15579028,-0.04665952,0.02008287,0.02404721,0.99392200,0.05583432,-0.09484816,0.00232720
1761620393178,0.04354200,-0.12507440,-0.02786688,-0.05100494,0.02050337,0.05354075,0.99394937,0.05553594,-0.09472821,0.00264042
1761620393199,0.16810249,-0.02747209,0.35559316,-0.04119947,0.02229941,0.02715718,0.99399472,0.05510541,-0.09449518,0.00292421
1761620393201,-11.24024749,-22.16253409,-38.52659306,-0.37930635,0.19737001,0.09480699,0.99404003,0.05466920,-0.09426821,0.00303324
1761620393210,2.64839989,4.54888217,8.84786127,-0.01842562,0.04333414,0.01701108,0.99406308,0.05458537,-0.09407104,0.00311064
1761620393222,0.00271096,0.04106177,0.13885917,-0.05531970,0.03941316,-0.01849916,0.99410394,0.05425345,-0.09383456,0.00299964
1761620393233,-0.03678280,0.19832957,-0.07411596,-0.06582181,0.04038039,-0.04161544,0.99414673,0.05387826,-0.09360439,0.00276244
1761620393245,0.05567106,0.14793922,-0.03501757,-0.02690702,0.04823208,-0.00343847,0.99418063,0.05372624,-0.09333188,0.00274301
1761620393266,0.14314473,0.14872041,0.37637803,-0.02310800,0.03306397,0.00913218,0.99422684,0.05347898,-0.09297809,0.00284072
1761620393277,-0.06618554,-0.42594785,-0.77411859,-0.12670724,0.06304280,-0.00882562,0.99429784,0.05276942,-0.09262505,0.00279130
1761620393288,0.16715301,0.06759622,0.62079030,-0.07805510,0.01628730,-0.00239774,0.99432806,0.05235183,-0.09253792,0.00277847
1761620393290,2.61470935,-20.89966513,-29.35599244,-0.35970673,0.14166206,-0.05443069,0.99435705,0.05202809,-0.09241042,0.00272948
1761620393300,-0.49747162,3.69615815,5.10721813,-0.06632124,0.01389432,0.00245132,0.99438218,0.05167659,-0.09233678,0.00274248
1761620393311,0.12665063,-0.09020516,-0.22025131,-0.06458302,0.02011351,0.00767264,0.99440943,0.05133753,-0.09223118,0.00278276
1761620393321,0.06703833,0.08501433,0.10812634,-0.06065386,-0.00224841,0.01217533,0.99442455,0.05101910,-0.09224299,0.00284668
1761620393332,0.07101631,0.13641695,0.24738906,-0.05498400,-0.02803057,0.00725603,0.99442557,0.05072218,-0.09239435,0.00288586
1761620393343,0.07523992,0.13897807,0.23173620,-0.03636139,-0.00951580,0.00642168,0.99443093,0.05051674,-0.09244812,0.00292214
1761620393354,-0.02613901,0.11651765,0.10425560,-0.02494222,-0.01174164,-0.00744142,0.99443196,0.05038455,-0.09251035,0.00288270
1761620393387,-0.02622316,0.04730454,0.05526099,0.00084785,-0.01257717,-0.00591910,0.99441196,0.05039871,-0.09272039,0.00278385
1761620393399,0.95373480,0.32718804,-0.47143591,-0.01608123,-0.02380539,0.01570197,0.99440391,0.05030946,-0.09285251,0.00287100
1761620393400,-6.76163682,-8.78363042,7.65230563,-0.00808975,-0.08057931,0.15058100,0.99439824,0.05030339,-0.09291294,0.00298394
1761620393411,-0.08862569,0.66971171,-0.38004552,-0.01625449,0.00353357,0.03121088,0.99440409,0.05021318,-0.09289333,0.00315716
1761620393422,-0.06493032,0.10167020,0.12710194,-0.02484800,-0.00197400,0.01830144,0.99440980,0.05007278,-0.09290448,0.00326056
1761620393433,0.03301177,0.20929811,-0.04675728,0.01258051,0.00068552,-0.00404649,0.99440685,0.05013946,-0.09290085,0.00323911
1761620393444,0.01384522,0.17488344,-0.04576321,0.05507392,0.00390927,0.01232508,0.99439294,0.05045063,-0.09287876,0.00330875
1761620393456,-0.03344541,0.08396927,-0.01847102,0.08474745,0.00037455,-0.01385517,0.99436835,0.05094216,-0.09287659,0.00322839
1761620393468,0.21296198,0.15743789,0.08662702,0.05378012,-0.00350119,-0.04271491,0.99435134,0.05125140,-0.09289672,0.00298278
1761620393478,0.02284757,-0.03712142,0.19613178,0.01408388,-0.00000723,-0.00578586,0.99434762,0.05132534,-0.09289676,0.00295240
1761620393488,0.01191596,-0.12013195,0.07281978,0.00979785,-0.00955559,0.01835202,0.99434049,0.05137335,-0.09294358,0.00304233
1761620393499,-0.17661877,-0.26050198,-0.11294456,0.01665441,-0.00080714,0.01802546,0.99433488,0.05146745,-0.09294814,0.00314417
1761620393511,0.04745447,-0.06592270,-0.03465592,0.00015547,-0.00914028,0.03384032,0.99432909,0.05146837,-0.09300253,0.00334552
1761620393522,0.03995327,0.06986690,0.04140050,0.01108778,-0.01702851,-0.00611884,0.99431717,0.05152991,-0.09309704,0.00331156
1761620393534,0.00300807,0.07226643,0.01400680,0.00301300,-0.02821106,0.00215277,0.99430061,0.05154769,-0.09326348,0.00332426
1761620393545,0.08553995,0.04693076,0.00870636,0.03669021,-0.03755503,-0.00225744,0.99426969,0.05175682,-0.09347755,0.00331140
1761620393556,-0.02492559,0.11734095,-0.01577213,0.05265478,-0.02793402,0.01372349,0.99424013,0.05204379,-0.09362979,0.00338619
1761620393567,0.35050612,0.74643576,-0.02252849,0.05274485,-0.01831653,0.01169632,0.99421655,0.05231806,-0.09372503,0.00344701
1761620393578,-0.05274627,-0.12111112,0.00231702,0.03446070,-0.02752061,0.00945516,0.99419076,0.05251793,-0.09388465,0.00350185
1761620393588,0.18256415,0.04178074,0.14966190,0.01638689,-0.02842735,0.01342470,0.99417258,0.05260069,-0.09402821,0.00356964
1761620393599,-0.33568478,-0.76465053,-0.14131676,0.01161629,-0.03591750,-0.01192701,0.99415053,0.05266516,-0.09422755,0.00350345
1761620393611,-0.04279589,-0.06903121,0.00328075,0.01181286,-0.03796060,-0.00494782,0.99412632,0.05273308,-0.09444582,0.00347500
1761620393621,0.04545152,-0.06179585,-0.03646987,0.02782197,-0.02773684,-0.01680937,0.99410461,0.05288193,-0.09459422,0.00338507
1761620393634,-0.01715098,-0.00339971,0.04585133,0.00780373,-0.02341616,-0.01186802,0.99408911,0.05292836,-0.09473354,0.00331445
1761620393644,0.06451656,0.07039805,0.00487825,0.01544778,-0.02590637,0.00005072,0.99407132,0.05301178,-0.09487344,0.00331473
1761620393655,0.03725254,0.02695543,-0.08923642,0.03091146,-0.02534450,-0.01296580,0.99404977,0.05317716,-0.09500903,0.00324536
1761620393666,0.05982016,-0.12025434,0.07845717,0.01965557,-0.02161527,-0.00510035,0.99403208,0.05328919,-0.09513224,0.00321629
1761620393678,0.04265014,0.05956610,-0.18230288,0.03337412,-0.01980324,-0.01943925,0.99401122,0.05348109,-0.09524611,0.00310451
1761620393689,0.03669683,0.15716828,-0.05727009,0.02884458,-0.00669971,-0.01707923,0.99399954,0.05363830,-0.09528262,0.00301143
1761620393699,-0.04212686,0.12006168,-0.09772498,0.05369094,-0.01022218,-0.00758169,0.99397907,0.05392286,-0.09533680,0.00297125
1761620393710,0.01751055,-0.10829889,-0.07918783,0.02861295,-0.00992809,-0.00045580,0.99396529,0.05408023,-0.09539140,0.00296874
1761620393722,0.00769944,-0.12002997,0.05476592,-0.01728787,-0.01769023,0.00016664,0.99396088,0.05397996,-0.09549401,0.00296971
1761620393734,0.04059297,-0.26586179,0.05668254,-0.01877431,-0.03266113,-0.00788531,0.99394850,0.05386919,-0.09568671,0.00292319
1761620393745,0.11384913,-0.09831343,0.06665968,-0.03566878,-0.06029917,-0.00216809,0.99392716,0.05367301,-0.09601835,0.00291126
1761620393755,0.10289368,0.13073781,0.03425931,-0.03675914,-0.05186102,-0.01383807,0.99391129,0.05347819,-0.09629321,0.00283792
1761620393767,-0.10450035,0.06043331,-0.11619119,0.01387821,-0.05152521,0.00069880,0.99387909,0.05355591,-0.09658176,0.00284183
1761620393778,-0.03610139,0.20457115,-0.40962960,0.03425559,-0.07038271,-0.00759528,0.99382961,0.05375117,-0.09698294,0.00279854
1761620393789,-0.01462614,0.00657245,-0.00805830,0.03821015,-0.07409182,-0.01040089,0.99377713,0.05396705,-0.09740156,0.00273977
1761620393800,0.31189298,0.03543761,0.05254563,-0.00821082,-0.05870547,0.02112440,0.99374702,0.05392107,-0.09773031,0.00285807
1761620393811,0.05621000,0.16158407,0.00251922,-0.00656739,-0.05762971,0.00798545,0.99371923,0.05388692,-0.09802998,0.00289959
1761620393823,-0.17235523,-0.16469665,-0.03586883,0.06725236,-0.03185838,-0.01802839,0.99367667,0.05431061,-0.09823069,0.00278602
1761620393878,-0.12761361,-0.04134463,0.07117784,0.01140262,-0.01006308,-0.00061474,0.99363246,0.05462190,-0.09850541,0.00276923
1761620393919,0.38899595,0.03019149,-0.22879061,0.01998419,-0.05791328,-0.03965875,0.99349474,0.05502758,-0.09968105,0.00196416
1761620393946,0.10024887,-0.16562985,-0.13390824,-0.01010162,-0.09658660,-0.11315878,0.99337198,0.05489071,-0.10098980,0.00043086
1761620393968,-0.02904007,-0.33618057,-0.05413705,-0.05827684,-0.09612908,-0.05758957,0.99329987,0.05425549,-0.10203761,-0.00019687
1761620393989,-0.42774664,-0.18735965,0.25390351,-0.04246769,-0.05400066,-0.02433149,0.99326465,0.05379684,-0.10262081,-0.00045965
1761620394011,-0.19851320,0.32159513,-0.04744606,-0.03263230,-0.03389732,-0.01352580,0.99324500,0.05343135,-0.10300046,-0.00061114
1761620394024,-0.14631522,-0.14383355,-0.13493837,-0.05075969,-0.02001549,0.01106119,0.99324914,0.05310903,-0.10312756,-0.00054090
1761620394045,-0.13764535,0.19504132,0.29688013,-0.05154267,-0.00359919,0.00321522,0.99327414,0.05256526,-0.10316553,-0.00050698
1761620394056,0.01873480,-0.31243093,-0.63152993,-0.07351878,0.01026815,-0.00341354,0.99329958,0.05218663,-0.10311265,-0.00052456
1761620394067,-0.06546581,0.17124981,0.12843801,-0.03755076,0.02407007,0.01873948,0.99332598,0.05196508,-0.10297064,-0.00041399
1761620394080,-0.14412594,0.02886165,0.07968451,-0.04115275,0.02274768,0.00918014,0.99335393,0.05170994,-0.10282960,-0.00035708
1761620394091,-0.04589566,-0.18214234,-0.02660524,-0.05816061,0.04000677,-0.01894532,0.99339288,0.05139296,-0.10261157,-0.00046033
1761620394093,-4.06416160,-18.06063269,-26.45226584,-0.39738004,0.15683443,-0.08734923,0.99343133,0.05097571,-0.10244689,-0.00055205
1761620394112,0.44112812,2.08827212,3.02983363,-0.05134345,0.01780510,-0.00986603,0.99347428,0.05048025,-0.10227507,-0.00064725
1761620394114,-8.04411779,-41.25897741,-49.35527097,-0.59344413,0.33594817,-0.01905019,0.99352591,0.05000549,-0.10200631,-0.00066249
1761620394124,1.03920879,5.78431222,6.95776541,-0.08400046,0.04109223,-0.00199198,0.99357054,0.04956029,-0.10178852,-0.00067305
1761620394135,-0.09170744,-0.01992588,-0.03268780,-0.06424191,0.02949773,-0.00488087,0.99360221,0.04923266,-0.10163808,-0.00069794
1761620394146,-0.02301828,0.12214503,0.06409704,-0.10411693,0.03721228,-0.00493208,0.99365087,0.04866522,-0.10143528,-0.00072482
1761620394156,0.01352631,0.03674599,0.18570017,-0.08287740,0.03512173,0.02365246,0.99369174,0.04822183,-0.10124738,-0.00059828
1761620394167,0.11837141,0.02384048,-0.08721328,-0.06406917,0.03952386,0.03154847,0.99373099,0.04786945,-0.10103000,-0.00042477
1761620394178,0.02350217,0.07279889,-0.00584036,-0.04752875,0.03918351,0.03334940,0.99376581,0.04760566,-0.10081253,-0.00023968
1761620394190,-0.05667283,-0.07028168,0.06058985,-0.03685224,0.01680948,0.03976878,0.99378559,0.04739560,-0.10071671,-0.00001299
1761620394201,-0.08896318,0.14098585,0.23366013,-0.04849715,0.02940545,0.01709590,0.99381650,0.04711189,-0.10054469,0.00008702
1761620394212,-0.09162328,-0.03070489,0.00573099,-0.05573187,0.02392083,0.00105925,0.99384327,0.04681652,-0.10041791,0.00009263
1761620394223,0.03571581,0.03807022,0.14066294,-0.03512485,0.01227572,0.00982189,0.99385873,0.04662860,-0.10035224,0.00014518
1761620394235,0.08589444,0.17571194,0.04289306,-0.00727934,0.00335302,0.00972673,0.99386280,0.04658492,-0.10033212,0.00020354
1761620394246,-0.02449129,0.19730337,0.08035345,-0.02195702,-0.00591857,0.00369359,0.99386525,0.04645977,-0.10036585,0.00022459
1761620394258,0.02365560,0.01373758,-0.09810390,-0.00062667,-0.00555362,0.01324019,0.99386215,0.04645613,-0.10039806,0.00030139
1761620394269,-0.05573303,-0.01968735,-0.23214031,-0.00853327,-0.01130875,0.02073309,0.99385797,0.04640877,-0.10046083,0.00041645
1761620394280,-0.02723059,-0.09881852,-0.14950199,0.00670099,0.00805160,0.01474639,0.99386069,0.04644563,-0.10041654,0.00049756
1761620394291,-0.00590003,0.01533393,0.06637534,0.00258907,0.00746459,0.03477023,0.99386421,0.04646052,-0.10037362,0.00069749
1761620394302,-0.00959500,0.01143154,0.49020162,-0.01512935,0.03409227,0.05274877,0.99388677,0.04637730,-0.10018612,0.00098761
1761620394314,-0.06310549,-0.00994974,-0.08928789,-0.01253876,0.02065520,0.05382539,0.99390213,0.04630333,-0.10006425,0.00130518
1761620394325,0.20562308,-0.17743841,0.16671600,-0.00914818,0.05494367,0.05134366,0.99393444,0.04625301,-0.09976206,0.00158757
1761620394335,-0.04137389,-0.29033463,0.20799440,-0.05693943,0.02404679,0.02821980,0.99395997,0.04596262,-0.09963942,0.00173149
