UnixTime(ms),Ax,Ay,Az,Gx,Gy,Gz,QuatW,QuatX,QuatY,QuatZ
1757988353885,0.00000000,0.00000000,0.00000000,0.00000000,0.00000000,0.00000000,0.99192513,0.07254681,-0.09223435,0.04810742
1757988353889,-4.18734603,-0.53933713,1.50644318,-0.01517970,0.11980107,0.07581091,0.99194095,0.07251872,-0.09201272,0.04824767
1757988353900,0.87925439,0.22190509,-0.39803463,0.00065389,0.04013314,0.03305013,0.99195259,0.07252242,-0.09178597,0.04843441
1757988353911,0.14554146,-0.03233705,-0.12596718,0.00855373,0.04860070,0.05136001,0.99196008,0.07256989,-0.09151623,0.04871945
1757988353923,-0.04038800,-0.07580163,-0.15913816,0.02110065,0.03364884,-0.00533145,0.99197035,0.07268911,-0.09132612,0.04868933
1757988353934,0.01275501,0.01273601,0.01977870,0.00498071,0.03583398,-0.03301621,0.99199559,0.07271675,-0.09112724,0.04850609
1757988353945,0.05801465,0.10141577,0.17709072,0.00010375,0.03396562,0.00688810,0.99201126,0.07271734,-0.09093533,0.04854501
1757988353956,0.00151707,0.04206961,0.06208331,0.01023723,0.03511103,0.01312968,0.99202155,0.07277518,-0.09073696,0.04861919
1757988353968,0.02695723,-0.07906286,0.06255010,-0.00125445,0.03994613,0.01744333,0.99203785,0.07276809,-0.09051126,0.04871775
1757988353979,-0.00548480,0.10686615,0.06908519,-0.01522698,0.05038451,0.01625473,0.99206558,0.07268206,-0.09022659,0.04880959
1757988353990,0.02789513,0.01390021,0.09805011,-0.01712943,0.04483212,0.02270964,0.99208892,0.07258699,-0.08997777,0.04893563
1757988354001,0.02243333,-0.12781954,-0.05591103,-0.00141400,0.02700269,0.02068819,0.99209749,0.07257907,-0.08982656,0.04905148
1757988354013,-0.00850020,-0.15356226,-0.02922867,0.00350270,0.03933347,-0.00464687,0.99211743,0.07259886,-0.08960432,0.04902522
1757988354024,-0.02559244,0.11208223,-0.05992688,0.05143565,0.05111795,0.00972589,0.99211942,0.07288433,-0.08932062,0.04907920
1757988354035,-0.10825298,0.28449302,-0.04606528,0.06356170,0.05667627,0.00588191,0.99212010,0.07324028,-0.08900323,0.04911214
1757988354046,-0.20853785,0.21008214,-0.16535727,0.07380272,0.07733082,0.00791873,0.99212606,0.07365357,-0.08857018,0.04915649
1757988354057,-0.11042199,-0.01765471,0.00627598,0.07018271,0.08601375,0.02037404,0.99213396,0.07404308,-0.08809280,0.04926956
1757988354068,-0.07819454,-0.16238241,-0.01002126,0.05056650,0.08944569,0.00709868,0.99215516,0.07432626,-0.08759190,0.04930932
1757988354079,0.10364527,-0.04674432,0.17533573,0.02098545,0.10160875,0.01938265,0.99219102,0.07444378,-0.08702290,0.04941786
1757988354091,-0.02713132,0.07585900,0.01702679,0.05887456,0.12125762,0.02658998,0.99221788,0.07477053,-0.08634992,0.04956543
1757988354102,-0.13884046,0.16097269,-0.11368470,0.10749730,0.13181120,0.00846806,0.99223379,0.07536714,-0.08561836,0.04961243
1757988354113,0.11725028,0.57282308,0.22831515,0.12395085,0.15861969,-0.02858779,0.99226561,0.07607366,-0.08471423,0.04944948
1757988354124,0.00746138,0.12355843,0.00002593,0.13336791,0.15260558,-0.01530883,0.99228460,0.07680718,-0.08387490,0.04936528
1757988354135,-0.02561809,0.05012104,0.10557504,0.11983137,0.15677990,-0.02375311,0.99231262,0.07747225,-0.08300477,0.04923345
1757988354146,-0.21727161,-0.37475996,-0.08610416,0.09819811,0.16173612,-0.00042346,0.99234528,0.07802707,-0.08209096,0.04923106
1757988354157,-0.30649556,0.05869642,0.01459269,0.12040672,0.19951400,-0.00809176,0.99238286,0.07864716,-0.08106347,0.04918939
1757988354168,-0.04789505,-0.06368433,-0.08601148,0.14480278,0.21442395,0.00078316,0.99241513,0.07945082,-0.07987341,0.04919373
1757988354179,0.32221828,0.22634671,-0.01796938,0.14861079,0.22417273,-0.01013687,0.99245152,0.08029047,-0.07860684,0.04913646
1757988354190,-0.08622250,0.10099561,-0.10629270,0.17236151,0.21373572,-0.01720404,0.99247146,0.08123846,-0.07743129,0.04904184
1757988354201,0.05743444,0.12150606,0.06514938,0.17960565,0.23369003,-0.02873989,0.99249780,0.08224425,-0.07612263,0.04888089
1757988354213,-0.42646021,-0.06212777,-0.00190066,0.17945988,0.22065486,-0.02063251,0.99251370,0.08324922,-0.07488696,0.04876535
1757988354224,-0.15577006,-0.01493191,0.04142667,0.18540024,0.22602755,-0.02187703,0.99252668,0.08427819,-0.07363251,0.04864393
1757988354234,0.00862642,0.11491121,0.34468526,0.17361765,0.24510061,-0.02537865,0.99254938,0.08516364,-0.07238249,0.04851450
1757988354245,0.03395281,-0.46762985,-0.19294519,0.13993915,0.21937928,-0.00319775,0.99257172,0.08595430,-0.07114300,0.04849644
1757988354256,-0.07411767,0.15497460,0.09882927,0.14401175,0.22504828,-0.00450894,0.99259215,0.08675357,-0.06989398,0.04847141
1757988354267,-0.03930588,0.06025894,-0.13497034,0.16129868,0.21787834,0.00326270,0.99259703,0.08764877,-0.06868476,0.04848952
1757988354279,0.24655228,0.03585886,0.21381588,0.16364540,0.21347669,-0.00360182,0.99259868,0.08857337,-0.06747861,0.04846917
1757988354290,0.07844908,0.01819068,-0.15768160,0.16268665,0.19294489,0.00648846,0.99258816,0.08947628,-0.06640777,0.04850518
1757988354301,0.14700399,0.06561058,0.04450635,0.16269481,0.20033094,-0.01195066,0.99258335,0.09037924,-0.06529593,0.04843885
1757988354312,0.13347407,-0.08975754,0.02248170,0.14905134,0.17261862,-0.00668961,0.99257184,0.09122138,-0.06432064,0.04840106
1757988354323,0.39152248,-0.03413764,0.05371088,0.12581161,0.15768155,-0.01083599,0.99256673,0.09191334,-0.06345339,0.04834146
1757988354334,0.08115919,-0.19030233,0.06572822,0.10133331,0.15495338,-0.01003961,0.99257185,0.09248081,-0.06258565,0.04828524
1757988354346,-0.20042395,-0.20015368,-0.07436494,0.09641805,0.14167626,-0.01962721,0.99257652,0.09303039,-0.06177810,0.04817336
1757988354357,-0.16136734,-0.13821904,0.02827477,0.07462084,0.13062304,-0.01362739,0.99258614,0.09344454,-0.06105314,0.04809773
1757988354368,-0.02181088,-0.07298695,-0.04498640,0.06394929,0.12897072,-0.01041373,0.99259911,0.09379626,-0.06034380,0.04804045
1757988354379,0.36462186,0.16801334,-0.08395726,0.05868072,0.12266268,-0.01022953,0.99261230,0.09412487,-0.05965689,0.04798317
1757988354390,0.14682585,-0.09019218,0.03943866,0.01371203,0.10377309,-0.01802825,0.99264465,0.09420166,-0.05907576,0.04788221
1757988354401,0.07905551,-0.11994936,0.02423339,-0.02104828,0.07653101,-0.04790743,0.99269414,0.09408379,-0.05864719,0.04761393
1757988354413,-0.17052469,-0.40605783,0.06177140,-0.04684450,0.05091875,-0.04862050,0.99274880,0.09382146,-0.05836204,0.04734165
1757988354424,0.09183646,-0.09291197,0.03997106,-0.03076704,0.03006866,-0.06148316,0.99279093,0.09365070,-0.05819516,0.04700042
1757988354435,0.12161346,0.09117895,-0.07176398,-0.02122091,0.00681535,-0.03845058,0.99281475,0.09353080,-0.05815665,0.04678318
1757988354446,0.44456983,-0.05825652,-0.12941578,-0.00462816,0.01279538,-0.01088498,0.99282400,0.09350558,-0.05808692,0.04672385
1757988354457,0.13722829,0.11160755,-0.14346483,0.01543941,-0.00066486,-0.01946161,0.99282076,0.09359204,-0.05809064,0.04661487
1757988354469,0.06549725,0.10183303,-0.02844929,0.02519404,0.00399793,-0.03209789,0.99281715,0.09373438,-0.05806805,0.04643352
1757988354479,-0.22884783,0.29334594,-0.00369823,0.01155618,-0.00839676,-0.04488791,0.99281994,0.09379737,-0.05811382,0.04618888
1757988354491,-0.06370423,0.04312123,0.02270578,0.00936997,-0.01787392,-0.02531316,0.99281566,0.09385031,-0.05821480,0.04604586
1757988354502,-0.02106998,-0.10132943,0.04621879,-0.00025039,-0.01508867,-0.02805480,0.99281809,0.09384892,-0.05829854,0.04589015
1757988354513,-0.23697201,-0.44462655,-0.05286943,-0.00843522,-0.00618408,-0.02098141,0.99282601,0.09380126,-0.05833348,0.04577161
1757988354524,-0.04762620,-0.34034316,0.00641309,-0.01248589,-0.00625678,-0.00625302,0.99283211,0.09373196,-0.05836821,0.04573690
1757988354535,-0.05164188,-0.11731293,0.02709082,-0.02234019,-0.02247944,-0.00416587,0.99283753,0.09360797,-0.05849297,0.04571378
1757988354547,0.16610480,0.26853059,0.13150073,-0.02401511,-0.02844059,-0.01364536,0.99284432,0.09347349,-0.05865224,0.04563737
1757988354558,0.04074536,0.16330813,-0.01045362,-0.00050431,-0.02202622,-0.01236865,0.99284048,0.09347066,-0.05877558,0.04556811
1757988354569,-0.02932088,0.15708352,-0.04645829,-0.00205471,-0.01486759,0.00184408,0.99283612,0.09345906,-0.05885959,0.04557852
1757988354580,-0.74998421,0.11740639,0.00790960,0.01326576,-0.01336032,-0.00675155,0.99282642,0.09353334,-0.05893440,0.04554072
1757988354591,-0.23926266,0.11993341,-0.02815770,0.02879514,-0.00554677,0.00237999,0.99280891,0.09369316,-0.05896519,0.04555392
1757988354603,-0.04007275,-0.03253112,-0.01865984,0.05979692,0.02081861,0.01497800,0.99278032,0.09402802,-0.05884860,0.04563780
1757988354614,0.58037560,0.06686913,-0.06873346,0.02835488,0.01007390,0.01284238,0.99276544,0.09418539,-0.05879269,0.04570908
1757988354625,0.08380320,0.01151535,-0.03405400,0.02562116,0.01187332,0.00916756,0.99275306,0.09433271,-0.05872442,0.04576179
1757988354636,-0.05743517,0.00946322,-0.04068002,0.03896930,0.01969036,0.01415925,0.99273596,0.09454120,-0.05861908,0.04583754
1757988354647,0.36905334,-0.04751944,0.14916463,0.01862475,0.02223173,0.00210035,0.99273277,0.09464736,-0.05849236,0.04584951
1757988354658,0.02026359,-0.14435892,-0.06432324,0.01388402,0.02735214,-0.01246880,0.99273750,0.09472372,-0.05834192,0.04578094
1757988354669,-0.06893018,-0.04419949,-0.02748179,-0.01069107,0.01346477,-0.01333627,0.99275108,0.09466385,-0.05826652,0.04570625
1757988354681,-0.24055207,-0.20262800,-0.20337044,-0.02226443,0.02081853,0.01752258,0.99276527,0.09453917,-0.05814994,0.04580438
1757988354692,-0.06776444,-0.02491040,-0.04031406,-0.00998109,0.01352840,-0.00203130,0.99277537,0.09448427,-0.05807553,0.04579321
1757988354703,0.06548524,0.02116912,-0.00269548,-0.01200315,0.01161393,-0.00005975,0.99278558,0.09441705,-0.05801049,0.04579287
1757988354714,-0.18489842,0.25183723,-0.22142669,-0.01182967,0.00468356,0.00987175,0.99279086,0.09435081,-0.05798426,0.04584815
1757988354725,0.05181033,-0.03651910,-0.04613906,-0.01098553,-0.00485679,0.00568781,0.99279362,0.09428984,-0.05801122,0.04587972
1757988354736,0.07468616,-0.16476515,-0.04506013,-0.01288269,-0.01571402,0.00313891,0.99279452,0.09421705,-0.05810000,0.04589746
1757988354748,0.30348152,-0.26221196,0.18180989,-0.04941202,-0.02925962,0.01085206,0.99280821,0.09394282,-0.05826239,0.04595769
1757988354758,0.00948533,0.01293631,-0.01955757,-0.05833240,-0.02100180,0.00057313,0.99283158,0.09362199,-0.05837790,0.04596084
1757988354770,-0.03604663,-0.03575613,-0.18667920,-0.03882662,-0.03237823,0.00291049,0.99284063,0.09340456,-0.05855922,0.04597714
1757988354781,-0.04396049,-0.00522315,-0.32343124,-0.03575783,-0.01422430,0.00424327,0.99285353,0.09320610,-0.05863817,0.04600069
1757988354792,0.02701820,0.01399245,-0.16562278,-0.01582039,-0.03102948,-0.00272644,0.99285226,0.09311672,-0.05881348,0.04598528
1757988354803,0.01506125,0.09500138,-0.00034901,-0.02406275,-0.03117001,-0.00825287,0.99285667,0.09298197,-0.05898804,0.04593907
1757988354815,0.11782802,0.08339298,0.22905455,-0.02720746,-0.03722146,-0.00441425,0.99285974,0.09282552,-0.05920206,0.04591368
1757988354826,0.04159541,-0.07672538,-0.09108931,-0.04367531,-0.03236604,0.00897808,0.99286909,0.09258968,-0.05937684,0.04596217
1757988354837,0.05659039,-0.14268034,-0.03922525,-0.05586662,-0.02693172,0.01770652,0.99288445,0.09227962,-0.05952631,0.04606044
1757988354848,0.17875104,-0.28037186,0.10062305,-0.07132972,-0.02658123,0.00755388,0.99291036,0.09188374,-0.05967383,0.04610236
1757988354859,0.00818963,-0.07599503,-0.06232789,-0.07017234,-0.03250592,0.01743444,0.99293115,0.09149077,-0.05985587,0.04619999
1757988354870,-0.00723541,-0.04906891,-0.09143152,-0.06246223,-0.04362448,-0.00922840,0.99295079,0.09114411,-0.06009798,0.04614878
1757988354882,-0.07482426,0.15685235,-0.06134392,-0.06084893,-0.06591141,-0.02388723,0.99296634,0.09079118,-0.06048027,0.04601023
1757988354897,0.12922809,0.14056544,0.21241620,-0.03021792,-0.06124399,-0.00931967,0.99296196,0.09055246,-0.06096409,0.04593660
1757988354902,1.74007838,-1.50618485,-3.34670272,-0.09802055,-0.27297091,-0.01845992,0.99294428,0.09030741,-0.06164652,0.04589046
1757988354914,-0.20419707,0.56613830,1.22718518,-0.04613708,-0.13125557,0.01407158,0.99291843,0.09005135,-0.06237499,0.04596855
1757988354925,0.10014103,-0.01703606,-0.01214920,-0.05537138,-0.12134405,0.01215780,0.99290027,0.08973850,-0.06306058,0.04603724
1757988354936,0.11211308,0.09355696,-0.04120476,-0.06139262,-0.11725800,0.01644522,0.99288508,0.08939470,-0.06371723,0.04612934
1757988354947,-0.20018644,0.19836520,-0.11329187,-0.00128197,-0.11921997,-0.00566881,0.99284340,0.08938739,-0.06439678,0.04609702
1757988354959,0.03713948,0.27688840,-0.01607433,0.01190034,-0.10843248,-0.00367121,0.99279958,0.08945285,-0.06499316,0.04607683
1757988354970,0.03657120,0.10813651,0.01459304,0.03996783,-0.09757389,0.00399523,0.99274140,0.08968066,-0.06554933,0.04609961
1757988354981,-0.06539257,-0.05947441,-0.00291532,0.03148209,-0.12095912,-0.01032929,0.99268371,0.08985539,-0.06622066,0.04604228
1757988354992,-0.04733574,-0.06697069,0.05062799,0.00876411,-0.10140183,-0.05410368,0.99265497,0.08990491,-0.06679358,0.04573659
1757988355010,-0.20062396,-0.05480365,0.27936625,-0.02136134,-0.05129934,-0.02812166,0.99265282,0.08971265,-0.06725527,0.04548350
1757988355013,7.89592596,-0.56642786,-14.32842949,-0.07520888,-0.29737755,-0.04543547,0.99263695,0.08960736,-0.06767160,0.04541989
1757988355024,-1.93093372,0.03733735,3.00822148,-0.02246550,-0.06974204,-0.01652939,0.99262593,0.08948268,-0.06805867,0.04532815
1757988355036,-0.10734427,-0.09957805,0.11613946,-0.03838031,-0.03516242,-0.01600932,0.99263629,0.08925815,-0.06826437,0.04523450
1757988355048,-0.17937835,-0.00898340,-0.20216848,-0.04777459,-0.03693777,-0.01434867,0.99265056,0.08897389,-0.06848415,0.04514912
1757988355066,-0.04195808,0.03400020,0.28511407,-0.02728952,-0.02107738,-0.01313917,0.99266536,0.08871874,-0.06868122,0.04502627
1757988355068,6.53654272,-16.21596955,-55.03914278,-0.34118113,-0.25146369,-0.12829753,0.99268136,0.08842873,-0.06889496,0.04491722
1757988355079,-0.93582950,2.28566163,8.49291057,-0.06164385,-0.02642310,-0.01740731,0.99270463,0.08810510,-0.06903369,0.04482583
1757988355090,-0.08256936,0.01921515,0.10894921,-0.05290981,-0.02117696,-0.00864408,0.99272499,0.08780616,-0.06915334,0.04477699
1757988355101,-0.05473134,0.01094043,-0.04621239,-0.04654087,-0.01143107,-0.01191916,0.99274675,0.08754321,-0.06921792,0.04470965
1757988355113,-0.02922504,-0.11082173,-0.02975277,-0.05647223,-0.00407158,-0.00108454,0.99277422,0.08721567,-0.06924154,0.04470336
1757988355124,-0.04925915,-0.05980585,-0.12171314,-0.04173632,-0.00389365,-0.00541995,0.99279493,0.08697777,-0.06926373,0.04467246
1757988355136,-0.02602773,-0.07782520,-0.04494656,-0.03225587,0.00743339,-0.00977928,0.99281648,0.08679391,-0.06922136,0.04461672
1757988355147,-0.01605243,0.31611470,0.15026871,-0.03718564,0.00496469,0.00104214,0.99283634,0.08658567,-0.06919356,0.04462256
1757988355158,0.07629389,0.05596448,0.09641751,-0.01099932,0.01782086,-0.00508032,0.99285006,0.08652353,-0.06909287,0.04459385
1757988355170,-0.01712947,0.07176174,0.05113214,-0.02874107,-0.00298544,-0.01192286,0.99286633,0.08635826,-0.06911004,0.04452530
1757988355181,0.20992591,0.42839006,0.24951036,-0.02601059,-0.00655058,-0.02329700,0.99288242,0.08621130,-0.06914705,0.04439367
1757988355192,0.08993804,0.09666051,0.07744762,-0.02746517,0.00601299,-0.02165413,0.99290352,0.08605750,-0.06911337,0.04427240
1757988355203,-0.00158789,-0.00236240,-0.06605979,-0.00873602,-0.00508838,0.00125216,0.99290545,0.08600901,-0.06914161,0.04427935
1757988355215,-0.24092344,-0.28670715,-0.10196247,-0.02364140,-0.00561919,-0.00535257,0.99291614,0.08587544,-0.06917336,0.04424911
1757988355226,-0.00504299,-0.01124222,0.05719992,-0.02810361,0.00297438,0.00021673,0.99293111,0.08571525,-0.06915641,0.04425035
1757988355237,-0.00585724,-0.04073025,0.00843626,-0.01731315,-0.00072122,0.01235673,0.99293611,0.08561830,-0.06916045,0.04431955
1757988355249,-0.38553666,-0.04811041,0.29745303,-0.00596316,-0.00643674,-0.00497794,0.99293772,0.08558490,-0.06919649,0.04429167
1757988355261,-0.02485190,0.09252763,0.17761224,-0.00397266,-0.00696297,0.00006055,0.99293678,0.08555928,-0.06924141,0.04429206
1757988355271,-0.00924212,0.00568455,-0.21840996,0.00373759,-0.01197223,0.01714409,0.99292794,0.08557647,-0.06929648,0.04437092
1757988355282,0.39466808,0.10388931,-0.10261489,0.01880840,-0.01168650,0.01179836,0.99291133,0.08568180,-0.06936192,0.04443699
1757988355293,0.05133303,0.03154570,0.02349380,0.01465668,-0.01069100,0.01663634,0.99289575,0.08576461,-0.06942233,0.04453099
1757988355305,0.02556757,0.02054436,0.06690844,0.00367230,-0.01054158,0.02579429,0.99288313,0.08578554,-0.06948241,0.04467802
1757988355315,-0.03650302,-0.21638143,-0.29114933,0.01998593,-0.02046924,0.01660505,0.99286241,0.08589147,-0.06959090,0.04476602
1757988355326,0.05676089,0.04667725,0.09498332,0.00456059,-0.01029043,0.01153746,0.99285316,0.08591723,-0.06964904,0.04483121
1757988355337,0.04890304,-0.02378501,0.00243595,0.01672889,-0.00836398,0.01763339,0.99283744,0.08601008,-0.06969546,0.04492907
1757988355349,-0.03262388,0.24425331,0.20229287,0.01236820,-0.00988120,0.00554952,0.99282574,0.08608182,-0.06975277,0.04496126
1757988355360,-0.01523570,0.12449903,-0.04854631,0.02854176,-0.01970470,0.01318362,0.99280166,0.08623594,-0.06985918,0.04503245
1757988355371,0.06685522,-0.00973867,0.02115362,0.04407596,-0.00770906,0.02116388,0.99277177,0.08648277,-0.06990235,0.04515097
1757988355383,-0.06944998,0.01089862,0.07289397,0.03568641,-0.01058877,0.00500592,0.99274786,0.08669153,-0.06996429,0.04518026
1757988355394,-0.00280899,-0.04788316,-0.02009740,0.03561576,-0.00909937,0.01255710,0.99272233,0.08690166,-0.07001798,0.04525434
1757988355404,0.08401817,0.01668648,-0.04032998,0.03789398,-0.00983248,0.02634970,0.99269677,0.08708735,-0.07006616,0.04538346
1757988355416,-0.01041968,-0.03282454,0.05919193,0.02814167,-0.00621838,0.01635590,0.99267628,0.08724494,-0.07010098,0.04547505
1757988355427,0.04901357,-0.02049710,0.07449976,0.03031270,-0.00345457,0.00486512,0.99265889,0.08741317,-0.07012015,0.04550205
1757988355438,-0.03325189,-0.00323626,0.00884405,0.02213862,-0.01824681,0.00202486,0.99264022,0.08753715,-0.07022234,0.04551339
1757988355449,0.10801333,-0.21049393,-0.05207229,0.02291757,-0.01428568,-0.00044371,0.99262319,0.08766663,-0.07030305,0.04551088
1757988355460,0.04943026,0.07151674,0.06726733,0.00728081,-0.00981125,0.02198947,0.99261004,0.08770741,-0.07035799,0.04563402
1757988355471,0.03323776,-0.00064547,-0.07796818,0.03242009,-0.01178399,0.02476277,0.99258316,0.08788734,-0.07042339,0.04577146
1757988355483,-0.06909728,0.25265343,0.05379460,0.03327063,-0.00647225,0.02765493,0.99255669,0.08807532,-0.07045996,0.04592771
1757988355494,0.01016400,0.04781633,-0.11955225,0.06311170,-0.01695802,0.03066178,0.99251056,0.08842874,-0.07055493,0.04609941
1757988355505,0.07399494,0.05897313,0.01410260,0.06649794,-0.01608936,0.01915794,0.99246631,0.08879781,-0.07064422,0.04620574
1757988355518,0.19494612,0.04347471,0.09991488,0.04460154,-0.01636041,-0.02239209,0.99244014,0.08908103,-0.07074811,0.04606355
1757988355527,0.23792130,0.09001443,-0.07767702,0.03030396,-0.02709980,-0.03677626,0.99242611,0.08922497,-0.07087684,0.04588886
1757988355540,-0.20619697,-0.16332412,0.10799404,0.00443751,-0.02675405,0.00663513,0.99240948,0.08925315,-0.07104672,0.04593100
1757988355554,-0.19338842,-0.15863653,-0.00175846,0.00685448,-0.01318529,0.00204943,0.99239822,0.08929976,-0.07113638,0.04594493
1757988355560,0.56897180,0.15755657,-0.84499100,-0.00542911,-0.03925988,-0.00535298,0.99239167,0.08928266,-0.07126005,0.04592807
1757988355571,-0.23670778,-0.20810663,0.34469384,-0.00961149,-0.01198195,0.02464417,0.99238535,0.08922931,-0.07132655,0.04606485
1757988355582,-0.49704470,-0.41829525,-0.09730571,0.00049993,-0.02391294,0.00920113,0.99237285,0.08923216,-0.07146286,0.04611729
1757988355593,-0.03315220,-0.08566931,-0.06599569,0.00583110,-0.03656895,-0.01444697,0.99235903,0.08926453,-0.07166581,0.04603711
1757988355605,0.02168847,0.01086263,0.04857999,-0.00211976,-0.03047434,-0.01103444,0.99235055,0.08925255,-0.07183799,0.04597477
1757988355616,0.47834490,0.34358794,0.08822365,-0.00164019,-0.03248210,-0.00203131,0.99233861,0.08924328,-0.07202152,0.04596329
1757988355627,-0.00427031,0.05237508,0.00203749,-0.00415742,-0.03010233,-0.00029189,0.99232835,0.08921958,-0.07219310,0.04596163
1757988355638,-0.00767636,-0.04028520,-0.03478450,-0.01244320,-0.03279390,0.01389566,0.99231782,0.08915115,-0.07237347,0.04603805
1757988355650,-0.11191374,0.03873430,0.09668600,-0.01471140,-0.03103010,0.01452909,0.99230842,0.08906582,-0.07255344,0.04612232
1757988355661,0.08854226,-0.08170173,-0.02917098,-0.02637772,-0.01957936,0.02335248,0.99230759,0.08892206,-0.07266015,0.04624959
1757988355672,-0.02883124,0.00969383,-0.04645357,-0.00783268,-0.01994581,0.01040706,0.99230074,0.08887898,-0.07276985,0.04630683
1757988355683,-0.00676786,-0.01306703,-0.13251908,0.00218911,-0.02296417,0.00017389,0.99229015,0.08889124,-0.07289845,0.04630780
1757988355697,-0.02466896,-0.00442460,0.09354289,-0.00085323,-0.01464408,0.00290958,0.99228198,0.08888510,-0.07300389,0.04632875
1757988355705,0.49126645,-0.23233118,-0.65077234,-0.04256850,-0.03408918,-0.02585495,0.99229137,0.08872547,-0.07313172,0.04623180
1757988355716,0.06644081,0.20009925,0.34355254,-0.03002163,-0.02027161,-0.01166990,0.99230114,0.08855584,-0.07324626,0.04616586
1757988355727,-0.03256742,-0.03844217,-0.03382500,-0.04541231,-0.01978609,-0.01081338,0.99231828,0.08830381,-0.07335607,0.04610585
1757988355739,-0.01515496,-0.09051845,0.00148448,-0.05567509,-0.01440676,0.00911400,0.99233781,0.08798924,-0.07343747,0.04615734
1757988355750,-0.29496748,-0.20566821,-0.07988111,-0.06561194,-0.02040956,0.00173717,0.99236119,0.08762510,-0.07355074,0.04616698
1757988355761,0.03245641,-0.03546623,0.05304091,-0.04875356,-0.01365736,-0.00181000,0.99238040,0.08734720,-0.07362859,0.04615667
1757988355772,0.01059546,0.01926207,0.01888869,-0.05928901,-0.02730249,0.00386137,0.99239736,0.08701222,-0.07378285,0.04617848
1757988355783,0.03605737,0.11385962,-0.12439685,-0.05517509,-0.03835004,0.00185579,0.99240774,0.08670875,-0.07399377,0.04618869
1757988355795,0.05113743,0.02472638,0.03371077,-0.04005394,-0.04218171,-0.00996799,0.99241227,0.08648445,-0.07422999,0.04613287
1757988355806,0.05446574,-0.01009725,-0.00285099,-0.04421341,-0.04753928,-0.00461916,0.99241507,0.08623686,-0.07449621,0.04610700
1757988355817,0.07531359,-0.10628838,0.07792699,-0.05967962,-0.05307700,0.00908546,0.99241933,0.08590265,-0.07479344,0.04615788
1757988355828,0.00475165,-0.10631807,-0.07127469,-0.06561210,-0.06046906,0.00613585,0.99242389,0.08553522,-0.07513207,0.04619224
1757988355839,0.03801317,-0.00463285,0.02565889,-0.06865817,-0.05790454,0.00874526,0.99243007,0.08515074,-0.07545633,0.04624121
1757988355850,0.52346763,0.16023537,0.13201361,-0.04858040,-0.05218698,-0.00042783,0.99243119,0.08488597,-0.07574075,0.04623888
1757988355863,-0.14638326,0.14015127,0.06677582,-0.03077503,-0.04765926,0.01041177,0.99242151,0.08468748,-0.07604815,0.04630604
1757988355873,0.20538693,-0.07661377,-0.22964201,-0.03758998,-0.05376193,0.00757462,0.99241539,0.08450704,-0.07630621,0.04634240
1757988355884,-0.64401307,0.01176929,-0.04931283,-0.04213925,-0.06333758,0.00535920,0.99240703,0.08427949,-0.07664823,0.04637134
1757988355895,0.00677330,-0.04658043,0.07748702,-0.04169385,-0.03894005,0.00236763,0.99240935,0.08404601,-0.07686630,0.04638460
1757988355906,-0.04538263,-0.01941511,-0.02107400,-0.04965050,-0.04562431,0.00762169,0.99241102,0.08377045,-0.07711951,0.04642690
1757988355917,0.04456166,0.11290858,0.12922336,-0.04612103,-0.04115182,0.00481069,0.99241359,0.08351217,-0.07734996,0.04645384
1757988355929,-0.07395420,0.00078693,-0.00722277,-0.03253681,-0.03673782,-0.00170027,0.99241330,0.08332834,-0.07755753,0.04644423
1757988355940,-0.03486370,0.04984381,-0.00064217,-0.03717248,-0.03519347,-0.00810375,0.99241742,0.08312203,-0.07775286,0.04639925
1757988355951,-0.05203266,-0.14721540,-0.11134262,-0.02514926,-0.02307859,-0.00176860,0.99241953,0.08298119,-0.07788210,0.04638935
1757988355962,-0.06916539,-0.02573455,-0.01246558,-0.03061270,-0.03313740,-0.00293970,0.99242004,0.08281129,-0.07806601,0.04637303
1757988355973,0.03843429,0.09333452,0.15822980,-0.05655722,-0.01915003,-0.01045181,0.99244071,0.08249457,-0.07817325,0.04631450
1757988355984,0.39703095,0.10589155,0.28976208,-0.03654712,-0.01166682,0.01978891,0.99244731,0.08229173,-0.07823800,0.04642433
1757988355996,-0.07911707,0.03957097,-0.02455282,-0.03948515,-0.00828931,0.00269851,0.99246163,0.08206470,-0.07828566,0.04643985
1757988356007,-0.10605796,0.04283423,-0.08610144,-0.03375017,0.00468062,0.00185938,0.99247836,0.08188076,-0.07826015,0.04644998
1757988356018,-0.42172818,-0.05445539,-0.44426144,-0.00315017,-0.00664201,0.01877035,0.99247195,0.08186312,-0.07829735,0.04655510
1757988356029,0.04110174,0.06129623,-0.01425494,0.00044881,0.00153620,0.00835744,0.99247023,0.08186563,-0.07828875,0.04660190
1757988356040,-0.14658717,-0.06516893,0.00130876,0.01003045,0.00500225,-0.01458116,0.99247162,0.08192130,-0.07826098,0.04652097
1757988356053,-0.27612480,-0.19828436,0.08536674,-0.01500249,0.00589848,-0.02006054,0.99248813,0.08182753,-0.07822412,0.04639559
1757988356062,-0.04409093,-0.14287086,-0.13651226,-0.05468205,0.01706273,0.00394994,0.99251587,0.08155959,-0.07814051,0.04641495
1757988356074,0.08633280,0.03265572,0.13847669,-0.03407929,0.02091450,0.00624722,0.99254035,0.08135852,-0.07801712,0.04645181
1757988356086,0.12107951,0.16604239,0.05530572,-0.04361825,0.01705088,-0.00697545,0.99257098,0.08110336,-0.07791737,0.04641100
1757988356096,-0.00639289,-0.08602421,-0.13895213,-0.03623154,0.03001962,0.01161515,0.99259387,0.08092944,-0.07777327,0.04646675
1757988356107,0.02734026,0.10132035,0.12337511,-0.01342506,0.01867132,0.00946928,0.99260559,0.08085494,-0.07766965,0.04651931
1757988356118,0.08188649,0.03760959,-0.05656916,-0.00542166,0.00816758,-0.01252249,0.99261476,0.08082512,-0.07762473,0.04645043
1757988356144,-0.00813870,0.05114518,0.17467639,-0.00312173,0.00174476,-0.00784207,0.99262483,0.08078360,-0.07760152,0.04634614
1757988356172,0.01434165,-0.01039343,-0.00466141,-0.00730679,-0.00039961,-0.00053750,0.99263303,0.08068167,-0.07760710,0.04633864
1757988356174,11.28148964,-14.69281324,-20.49201747,-0.04142287,-0.13799667,0.19449802,0.99261981,0.08064853,-0.07771749,0.04649424
1757988356198,-0.81055164,0.96471598,1.44129170,-0.01174756,-0.00078886,0.01068329,0.99262460,0.08050462,-0.07772716,0.04662511
1757988356200,-11.67747633,-12.57733347,-0.78002491,-0.14727694,-0.00864183,0.18539185,0.99262675,0.08037944,-0.07773450,0.04678269
1757988356212,1.73671503,1.81681890,0.11953760,0.00087970,0.00238727,0.00951260,0.99262477,0.08038467,-0.07772030,0.04683929
1757988356247,0.01043823,0.02357969,0.00281786,0.00412608,0.00039838,-0.00398802,0.99262278,0.08045626,-0.07771339,0.04677010
1757988356248,-0.04732937,14.72025196,-7.42971307,-0.13488680,-0.04421595,-0.27962225,0.99263926,0.08034835,-0.07774876,0.04654640
1757988356287,-0.01075032,-0.58039735,0.27118448,-0.00981980,0.00519205,-0.00126729,0.99266383,0.08015686,-0.07764751,0.04652169
1757988356298,0.00861112,-0.27042242,0.90181526,-0.09814823,-0.01455002,-0.00675145,0.99270098,0.07964158,-0.07772390,0.04648624
1757988356310,0.21436328,0.13496876,0.11029925,-0.00214633,-0.02901616,-0.00154458,0.99268830,0.07962817,-0.07790525,0.04647659
1757988356331,0.02386242,0.25026115,-0.11750448,0.01331818,-0.01916088,0.00776688,0.99265817,0.07976468,-0.07810165,0.04655620
1757988356338,0.26556858,1.31551651,1.40285750,0.05037814,-0.03375842,0.02518396,0.99262857,0.07995360,-0.07822825,0.04665064
1757988356356,-0.27748669,-0.69073886,-0.69497816,0.03322702,-0.00418291,0.01626245,0.99259439,0.08025430,-0.07826610,0.04679781
1757988356366,0.05562009,0.00303562,0.35876911,0.01470637,0.00212320,0.01377392,0.99258587,0.08032931,-0.07825527,0.04686806
1757988356400,-0.02125687,-0.06285511,-0.20140312,0.00118789,-0.00613355,0.00257439,0.99257422,0.08034903,-0.07835709,0.04691080
1757988356412,-0.00587432,0.35644257,0.78105005,0.03379953,0.00124822,0.01905408,0.99255314,0.08055013,-0.07834966,0.04702417
1757988356422,-0.06548935,0.19229573,-0.16017621,0.08959312,0.01402508,0.01083233,0.99251965,0.08099810,-0.07827954,0.04707833
1757988356433,-0.05367913,-0.18188161,-0.14730150,0.02686278,0.01226687,0.00684203,0.99251104,0.08114719,-0.07821146,0.04711630
1757988356455,-0.02542197,-0.18141357,-0.16035288,0.00000582,0.01311390,-0.00031779,0.99252271,0.08114725,-0.07806524,0.04711276
1757988356465,-0.54459818,-0.11176174,0.90297046,0.01719328,0.00495164,0.02700026,0.99251144,0.08123150,-0.07804097,0.04724506
1757988356476,0.32493166,-0.06279143,-0.50694186,0.00450621,0.01124754,0.02178720,0.99250843,0.08125741,-0.07797630,0.04737034
1757988356487,0.17470598,0.12824974,-0.14821542,0.00663376,0.00899299,-0.00037702,0.99250940,0.08129290,-0.07792819,0.04736832
1757988356498,0.03581038,0.08818966,-0.09916171,0.01183715,0.00466293,-0.00419291,0.99250708,0.08136096,-0.07790138,0.04734421
1757988356510,0.13429854,0.13371403,-0.01835507,0.00083773,0.00633990,0.02629615,0.99250240,0.08136570,-0.07786556,0.04749278
1757988356521,0.05589266,-0.03485916,-0.07232510,0.00392808,0.00578044,0.02443771,0.99249627,0.08138887,-0.07783145,0.04763697
1757988356533,0.04380925,0.04815222,-0.03304600,-0.01318925,0.00031595,0.02608170,0.99249541,0.08131303,-0.07782963,0.04778694
1757988356544,-0.06636510,-0.03506984,-0.10320956,-0.00099724,-0.00798365,0.03597740,0.99248230,0.08130730,-0.07787554,0.04799381
1757988356556,0.12604747,-0.10023818,-0.01735622,0.01639719,-0.00190743,0.02331750,0.99246696,0.08140322,-0.07788670,0.04813021
1757988356576,-0.07770183,-0.02840421,-0.06176857,0.00536611,-0.00748403,-0.02044285,0.99246658,0.08145608,-0.07796042,0.04792885
1757988356587,0.42053611,-0.10806222,0.18130353,-0.00060019,-0.02176949,-0.03402501,0.99246646,0.08145284,-0.07807797,0.04774512
1757988356590,5.82796372,-0.14841373,3.52329678,-0.07837429,-0.09109658,-0.02436290,0.99246710,0.08133528,-0.07821462,0.04770857
1757988356601,-1.42334984,-0.03372712,-0.88590591,-0.01942129,-0.01721727,0.00176847,0.99246794,0.08122458,-0.07831275,0.04771865
1757988356621,-0.22603790,0.04115359,-0.07394101,-0.03754668,-0.00751711,0.00375038,0.99249097,0.08084723,-0.07838830,0.04775634
1757988356623,5.84390077,-6.57485937,6.55348425,-0.25904473,-0.02739609,0.15403709,0.99250360,0.08056228,-0.07841844,0.04792578
1757988356634,-1.08232979,0.98843575,-1.18781949,-0.04925740,-0.01179225,0.00193431,0.99251976,0.08029383,-0.07848271,0.04793633
1757988356646,-0.05207887,-0.36893602,-0.15515474,-0.04545905,-0.01348230,-0.02800624,0.99254211,0.08003699,-0.07855888,0.04777809
1757988356666,-0.05199492,0.18236749,-0.03516051,-0.02002790,-0.00368644,-0.01322058,0.99256246,0.07982870,-0.07859722,0.04764060
1757988356705,-0.01290568,0.07101181,-0.01260786,-0.00382348,-0.00047856,-0.00150043,0.99256905,0.07975490,-0.07860646,0.04761164
1757988356738,0.08166692,0.07556587,0.14628094,0.01096284,-0.00001628,0.00923729,0.99254689,0.07993798,-0.07860673,0.04776590
1757988356773,0.00530164,0.03129630,0.04240646,-0.00236356,0.00398190,0.00936316,0.99254782,0.07989733,-0.07853824,0.04792695
1757988356802,0.12300036,-0.04332776,0.07825382,0.01128849,-0.02582495,-0.03644901,0.99253000,0.08006383,-0.07891916,0.04738932
1757988356823,0.47768079,-0.10323357,0.20578140,0.01026840,-0.02207127,0.00367867,0.99250141,0.08017011,-0.07914759,0.04742740
1757988356834,0.09320051,0.10004016,0.36170952,-0.00593269,-0.05854187,-0.05180522,0.99249163,0.08013659,-0.07947836,0.04713470
1757988356868,-0.48178634,0.04464861,-0.29870036,-0.01077288,-0.02246548,-0.01119462,0.99248476,0.07995345,-0.07986027,0.04694439
1757988356879,0.07306679,-0.09712643,1.21343497,-0.03109401,-0.01318431,-0.00069778,0.99249280,0.07978399,-0.07993212,0.04694059
1757988356902,0.12329959,-0.07445801,-0.69476832,-0.00379211,-0.00249552,-0.00697900,0.99249767,0.07974133,-0.07996020,0.04686207
1757988356923,0.09440683,-0.00747532,-0.02538381,-0.00299330,0.00151761,-0.00640751,0.99250489,0.07970885,-0.07994373,0.04679255
1757988356957,-0.07419175,0.01486299,-0.07579164,0.00219818,-0.00231246,-0.00045459,0.99249910,0.07974611,-0.07998293,0.04678485
1757988356969,1.53403805,-0.52435401,1.04682186,-0.06035803,-0.01248110,0.00547248,0.99252037,0.07938698,-0.08005719,0.04681741
1757988356980,-0.80451181,0.38095443,-0.28677929,-0.09959254,0.01170174,0.03080737,0.99255862,0.07887408,-0.07999693,0.04697607
1757988357001,-0.40682759,0.22012863,-0.33924074,-0.02893663,0.00273346,0.00885997,0.99258115,0.07856301,-0.07996754,0.04707131
1757988357013,0.35279904,0.03894787,0.23321514,0.00543866,0.01073938,0.01124572,0.99258057,0.07859455,-0.07990525,0.04713654
1757988357025,-0.18695292,-0.09038197,-0.12891277,-0.00603539,0.00677442,-0.01367975,0.99259094,0.07855714,-0.07986325,0.04705172
1757988357057,-0.15568789,-0.00461584,-0.11159902,0.00284125,0.00257422,0.00142530,0.99258957,0.07860274,-0.07982194,0.04707460
1757988357080,0.22792742,-0.31923916,0.21795425,0.00967895,0.02234995,0.00601029,0.99259792,0.07871163,-0.07957050,0.04714221
1757988357090,0.84215411,0.41521562,0.13099655,0.11619382,0.02528791,0.08037418,0.99253764,0.07934488,-0.07943268,0.04758025
1757988357140,-0.29840532,0.07240788,-0.14476419,0.01499160,0.00298571,-0.00908702,0.99252460,0.07971517,-0.07935893,0.04735580
1757988357171,0.14336485,0.03877736,-0.15852756,-0.01248187,0.02581102,0.01925313,0.99255806,0.07951983,-0.07895499,0.04765711
1757988357192,-0.12242373,-0.45009134,0.22821191,-0.02172204,0.06490617,0.02680364,0.99261645,0.07929284,-0.07827672,0.04793721
1757988357225,-0.00834630,0.21657720,0.06425612,0.01459949,0.03814028,0.02752800,0.99262459,0.07953446,-0.07764550,0.04839280
1757988357238,0.05332434,-0.21700760,-0.90638950,0.01063795,0.14464158,0.09419069,0.99266097,0.07960148,-0.07673426,0.04898620
1757988357298,-0.06082105,0.04336415,0.11222097,-0.01214697,0.02197801,0.01590595,0.99271731,0.07923646,-0.07607382,0.04946418
1757988357319,0.61638888,-0.16987949,-0.52165474,-0.04327261,0.10262432,0.04348156,0.99281485,0.07877128,-0.07497061,0.04993160
1757988357336,0.51842964,-1.22046307,0.30644096,-0.04810649,0.07132089,-0.03449303,0.99290533,0.07837200,-0.07437864,0.04964531
1757988357373,-0.26714930,0.47522137,0.09429222,-0.02146457,0.01988390,-0.00468557,0.99296875,0.07797276,-0.07400880,0.04955816
1757988357408,0.08015938,-0.03480573,0.00602519,-0.04085563,0.03423251,-0.00919387,0.99307681,0.07725983,-0.07341145,0.04939773
1757988357410,253.25583549,-160.89929945,-58.12151672,-1.21763490,0.59484567,-0.56614184,0.99321785,0.07622484,-0.07290583,0.04891651
1757988357463,-8.12790178,5.09951525,1.85212844,-0.05481204,0.02150974,-0.02218912,0.99340040,0.07475861,-0.07233044,0.04832295
1757988357494,0.62587841,-0.76972996,-0.42212310,-0.25989932,0.16176700,0.06675527,0.99382383,0.07073018,-0.06982305,0.04935765
1757988357525,-0.25312601,-0.70713502,-0.43598846,-0.52101123,0.32786083,0.00238496,0.99470487,0.06268055,-0.06475760,0.04939450
1757988357537,3.14444159,-12.59565929,-7.55940706,-2.04896063,1.11601291,0.16254178,0.99574336,0.05069413,-0.05822893,0.05034537
1757988357558,-1.62668802,4.34546254,2.68409662,-1.10606196,0.59142090,0.05870743,0.99659673,0.03880397,-0.05187115,0.05097648
1757988357604,-0.21085569,1.63556494,0.75218687,-0.35059333,0.23612826,0.01532167,0.99712456,0.03079291,-0.04647562,0.05132658
1757988357637,0.81846110,-1.29149889,-0.76312862,-0.73175120,0.46456031,0.04500142,0.99771052,0.01879219,-0.03885683,0.05206460
1757988357648,8.11126248,-13.13184738,-10.85954464,-2.13434556,1.26147989,-0.09321973,0.99814711,0.00662642,-0.03166640,0.05153325
1757988357696,-2.08837284,3.98719520,2.91325049,-0.31912120,0.23578649,-0.04117461,0.99838058,-0.00095271,-0.02606647,0.05055535
1757988357728,0.88264102,-0.73257979,-0.54320232,-0.41004454,0.32878015,-0.01070203,0.99848597,-0.00761593,-0.02072379,0.05038144
1757988357761,0.29863487,0.88860103,-0.00740643,-0.25842884,0.27299110,-0.05148420,0.99856978,-0.01185417,-0.01624674,0.04953710
1757988357782,2.35120223,-0.96771034,-1.69891773,-0.28722567,0.31852087,-0.02922687,0.99859328,-0.01484131,-0.01293412,0.04923314
1757988357804,-1.69833529,1.04751117,0.78265089,-0.07877868,0.23281207,0.02176813,0.99859810,-0.01572363,-0.01032662,0.04947694
1757988357837,-0.77883728,0.49185758,0.53292490,0.02806558,0.14631574,0.00441377,0.99862351,-0.01526476,-0.00793436,0.04954911
1757988357848,10.44571391,-4.55797451,-10.94137232,0.05284652,0.40889633,-0.00659062,0.99864435,-0.01498468,-0.00576721,0.04951418
1757988357871,-3.71095611,1.66974646,4.01648339,-0.04871182,0.22818256,0.00457427,0.99864487,-0.01554730,-0.00313170,0.04956701
1757988357892,0.26121942,-0.18803717,-1.01436990,-0.04863570,0.24509372,0.02437400,0.99862872,-0.01606040,-0.00054596,0.04982416
1757988357903,1.13164922,-1.16980922,-1.97658864,-0.09990617,0.31957851,-0.00146125,0.99861895,-0.01663986,0.00130759,0.04981568
1757988357925,-2.57157655,0.95027074,2.69683689,-0.06431278,0.15228714,0.00057820,0.99860315,-0.01734087,0.00296752,0.04982198
1757988357936,6.52051786,0.24033478,-9.68840088,-0.12855685,0.32982915,-0.06599756,0.99860157,-0.01806079,0.00481456,0.04945240
1757988357959,-3.31491316,0.72973801,4.90270655,0.00574881,0.09911561,-0.01091954,0.99860280,-0.01799698,0.00591475,0.04933119
1757988357971,8.97109055,-1.42349649,-13.56675773,0.24349571,0.30162676,0.05520209,0.99859929,-0.01653600,0.00772451,0.04966240
1757988357981,-5.83159272,-0.59520117,7.49127106,0.18555234,0.24425606,0.03210820,0.99859562,-0.01552474,0.00905570,0.04983739
1757988357992,-0.22687018,2.07953181,0.48696329,0.05078022,0.30129307,0.05247283,0.99856958,-0.01525053,0.01068269,0.05012075
1757988358004,-1.41120435,0.82878167,0.80452033,0.07493396,0.29280536,0.05300111,0.99854052,-0.01480842,0.01241024,0.05043345
1757988358027,-1.73812427,-0.17569669,2.63126684,0.06205409,0.14934039,-0.00090923,0.99852837,-0.01408549,0.01415005,0.05042286
1757988358059,0.28463115,-0.33458576,-1.09457883,0.15448135,0.20399923,-0.04990817,0.99854849,-0.01163696,0.01738344,0.04963182
1757988358081,1.15419787,-1.07401806,-7.17298436,0.15440132,0.45734971,-0.20300252,0.99857507,-0.00993854,0.02241429,0.04739879
1757988358092,-1.70378026,1.71860721,-12.65645429,-0.08751005,0.81714804,-0.03255467,0.99846979,-0.01041110,0.02682689,0.04722299
1757988358115,-1.75108272,1.52981125,8.41497245,-0.04624444,0.41301796,-0.01013545,0.99833330,-0.01093366,0.03149399,0.04710846
1757988358137,-0.38226928,-0.37450729,3.19991468,0.05708553,0.23584279,-0.02142145,0.99826359,-0.01028574,0.03417081,0.04686533
1757988358149,-1.65830695,0.12786697,-21.30284378,0.06535438,0.61962426,-0.12565165,0.99816933,-0.00989688,0.03785757,0.04611770
1757988358160,-0.68547220,-2.22701458,7.98894345,-0.12567433,0.42210877,-0.05568016,0.99808874,-0.01056295,0.04009475,0.04582260
1757988358194,0.56006647,0.06115806,6.21312512,-0.05412393,0.10389843,0.00107179,0.99800396,-0.01149659,0.04188700,0.04584109
1757988358204,-9.65348919,-4.79517689,-73.78343119,-0.52268531,0.68909373,0.07242191,0.99780526,-0.01408388,0.04529801,0.04619957
1757988358227,2.53238399,0.81787715,22.45170551,-0.15445588,0.18344932,0.10841115,0.99762453,-0.01583696,0.04738016,0.04743004
1757988358238,-3.04857132,-1.08299724,-8.63752723,-0.15583166,0.16558224,0.17427029,0.99752085,-0.01669403,0.04829086,0.04838853
1757988358260,1.77302425,0.94294926,9.70459613,-0.05854736,0.07628359,0.07593967,0.99742631,-0.01734976,0.04914524,0.04923905
1757988358281,-1.13681282,-0.83127011,-4.75784560,-0.11782867,0.12567309,0.10478580,0.99728182,-0.01859875,0.05047737,0.05034978
1757988358324,0.37326509,0.19491620,1.96317754,-0.08595762,0.07828756,0.06353364,0.99709277,-0.02041245,0.05212924,0.05169034
1757988358354,-3.43156714,-2.46138003,-12.61366214,-0.25048949,0.25816722,0.11413002,0.99669914,-0.02425747,0.05609211,0.05344224
1757988358375,-2.80667709,-0.49722699,-7.83588293,-0.33181388,0.31006913,0.12080884,0.99635770,-0.02767515,0.05928582,0.05468657
1757988358394,1.75564962,1.13346312,7.77796965,0.07244248,0.12656453,0.06243054,0.99627065,-0.02697970,0.06050084,0.05528590
1757988358429,2.25243020,1.24326771,8.39463496,-0.01472565,0.05486726,0.03243973,0.99617460,-0.02723372,0.06144730,0.05584549
1757988358460,-0.69270101,0.04333513,-1.63938882,-0.05626508,0.03852032,0.08259490,0.99603641,-0.02813396,0.06206362,0.05716700
1757988358471,-52.23012064,-14.71075928,-148.55721965,0.28933161,-0.10075769,0.45070230,0.99597559,-0.02668730,0.06155983,0.05942052
1757988358494,18.43362852,5.95366832,55.88686146,0.11439320,-0.04457897,0.16936750,0.99592270,-0.02535462,0.06104049,0.06139365
1757988358516,-1.03153559,-0.02857912,-1.17558495,0.18618220,-0.04319609,0.11900770,0.99592008,-0.02326938,0.06055669,0.06272653
1757988358527,-8.65158877,-0.92824885,-20.26731357,0.41970215,-0.16785391,0.04314658,0.99601368,-0.02091905,0.05961671,0.06296815
1757988358573,5.08408340,1.18774654,12.34209005,0.10180385,-0.06168049,0.04152580,0.99608303,-0.01858265,0.05820114,0.06392117
1757988358594,-18.15772972,1.31811087,-39.66372324,0.26967949,-0.13281940,0.33069662,0.99598765,-0.01585889,0.05685967,0.06726121
1757988358605,-11.55547618,5.05723483,-24.63504397,1.17758127,-0.04728204,0.13904830,0.99603280,-0.00932331,0.05659725,0.06803293
1757988358628,13.89183896,0.62348791,29.78621448,0.11077149,-0.05948089,0.16400611,0.99595011,-0.00802175,0.05589835,0.06996000
1757988358671,2.82385630,-0.41813761,6.27774027,0.16777595,-0.06026844,-0.01808595,0.99607095,-0.00443973,0.05461162,0.06957386
1757988358683,-52.51081356,15.10344577,-122.06393065,0.62157166,-0.35067914,-0.33392160,0.99633162,-0.00071030,0.05250755,0.06757033
1757988358705,23.56137103,-8.54127292,54.39955102,-0.26879611,-0.01013862,0.02409518,0.99631320,-0.00364018,0.05239704,0.06783297
1757988358728,1.81145441,-0.82350167,2.46942090,-0.33382630,0.00081338,-0.00669321,0.99629578,-0.00759602,0.05240667,0.06775366
1757988358738,-11.76623861,1.51962417,-32.89648936,-0.38564841,-0.12872654,-0.31695436,0.99641455,-0.00944713,0.05178879,0.06623227
1757988358773,7.29872755,-1.20743314,18.84725576,-0.02810126,-0.04118616,-0.12227730,0.99658786,-0.00994171,0.05106391,0.06408019
1757988358783,-41.60710843,4.46916244,-134.92763745,-0.27994801,-0.58880236,-0.64371390,0.99693400,-0.01139744,0.04800214,0.06073288
1757988358806,15.85459433,-2.52398902,44.56078971,-0.22686638,-0.42819913,-0.08369437,0.99718181,-0.01398372,0.04312067,0.05977877
1757988358816,-2.09343954,0.02984529,-21.47669196,-0.73867904,-0.76882756,0.11766744,0.99724605,-0.01764018,0.03931497,0.06036122
1757988358828,4.92098827,-0.79139813,16.34354934,-0.57482541,-0.67413231,0.11261978,0.99728848,-0.02100291,0.03537130,0.06102005
1757988358850,2.97735612,0.32434621,15.10356811,-0.28934274,-0.34841076,0.02582996,0.99732799,-0.02424355,0.03146910,0.06130934
1757988358861,-3.49175862,-0.94329048,-31.50694004,-0.58208894,-0.79525026,-0.00808988,0.99737399,-0.02724131,0.02737356,0.06126768
1757988358872,1.96145092,-1.65157135,4.98006414,-0.54909077,-0.76889570,-0.00150633,0.99739447,-0.03023385,0.02318308,0.06125947
1757988358895,1.47060009,0.75623173,13.20578686,-0.30663936,-0.36289866,-0.01192132,0.99737720,-0.03385220,0.01890087,0.06111880
1757988358916,-1.79414731,-0.77116016,-19.24782783,-0.85553939,-0.98323383,-0.02478607,0.99718861,-0.04287814,0.00852776,0.06085730
1757988358927,-1.70590941,1.38786457,-18.62244549,-0.90232529,-1.37074554,-0.20568205,0.99706871,-0.04779581,0.00105719,0.05973634
1757988358939,1.96991920,-0.04293655,9.57542223,-0.67268240,-1.17894820,-0.23098139,0.99694142,-0.05159647,-0.00560386,0.05843129
1757988358951,1.04439264,-0.01739980,10.72691114,-0.61173093,-0.99779907,-0.14433535,0.99674343,-0.05526685,-0.01159066,0.05756528
1757988358961,0.76713618,0.03939915,1.74689912,-0.59385820,-0.87708244,-0.13444150,0.99653370,-0.05850338,-0.01637076,0.05683257
1757988358973,0.67312800,0.28668629,9.36097144,-0.41490563,-0.65477266,-0.09762955,0.99635366,-0.06088909,-0.02013570,0.05627120
1757988358984,-0.09770086,-0.25367714,-2.00683249,-0.29624882,-0.62717615,-0.12133654,0.99621453,-0.06251845,-0.02358517,0.05560385
1757988359006,0.80658600,0.44384870,11.99467597,-0.11253241,-0.28621986,-0.04890295,0.99608461,-0.06377319,-0.02677652,0.05505859
1757988359018,-2.92311352,0.11774300,-39.63154822,-0.22086095,-0.65997516,-0.04623296,0.99590307,-0.06507627,-0.03067037,0.05478581
1757988359040,1.45428518,-0.07961210,21.11831534,-0.08451451,-0.18957522,-0.00542549,0.99577876,-0.06600593,-0.03275570,0.05472613
1757988359072,-0.27996413,-0.26662692,-4.86574408,-0.15688289,-0.31782513,-0.08912187,0.99550445,-0.06853174,-0.03787269,0.05329127
1757988359084,-4.12755246,-0.94121308,-93.80649621,-0.28408955,-1.00447123,-0.25592173,0.99522674,-0.07019367,-0.04374884,0.05179413
1757988359106,2.17028692,0.58707052,43.41605865,-0.11372721,-0.18409366,0.02066313,0.99503299,-0.07145604,-0.04579228,0.05202349
1757988359129,0.80586820,-0.33165347,9.87437598,-0.06097751,-0.05257612,0.01785872,0.99494518,-0.07214509,-0.04638639,0.05222529
1757988359139,-0.81377827,-2.46636774,-63.08111096,-0.20109546,-0.17970707,-0.11497496,0.99485600,-0.07319078,-0.04732087,0.05162742
1757988359151,1.12542685,2.72680498,31.98527325,0.01994569,-0.05561438,-0.01997085,0.99485507,-0.07307011,-0.04765734,0.05150660
1757988359173,0.06991567,0.10436271,12.99236835,0.06244448,0.00325872,-0.03451318,0.99492658,-0.07238322,-0.04762149,0.05112695
1757988359184,0.10542129,-1.85786351,-34.46110189,0.03908845,0.05060987,-0.02487261,0.99496217,-0.07217019,-0.04734567,0.05099140
1757988359195,0.96164156,-1.63342864,-5.91288263,-0.06973343,0.13492736,0.02134391,0.99496331,-0.07256070,-0.04659007,0.05111092
1757988359207,0.44174663,0.85574458,11.26422939,-0.09564264,0.14856463,-0.04161471,0.99497524,-0.07312499,-0.04571354,0.05086540
1757988359241,-0.19321157,0.88280715,12.00838465,-0.02177502,0.04323854,-0.04122056,0.99501728,-0.07349734,-0.04497416,0.05016052
1757988359262,2.21447289,-1.21931946,-35.11250862,0.18276441,0.14136441,-0.18130316,0.99531164,-0.07161487,-0.04351811,0.04829310
1757988359273,3.47512790,-2.14038511,-19.70044051,0.19679680,0.23310286,-0.20455412,0.99550647,-0.07048329,-0.04217777,0.04711692
1757988359296,-1.38927272,1.03515184,25.09806242,0.00942294,0.14988935,-0.07333826,0.99562523,-0.07037492,-0.04045404,0.04627353
1757988359331,-0.94026853,0.64716839,9.76985794,0.00741545,0.06162953,-0.04257176,0.99570977,-0.07024849,-0.03940326,0.04554768
1757988359363,1.44192958,-0.40043945,-10.84172721,0.16026578,0.16120299,-0.07013259,0.99604174,-0.06764417,-0.03678371,0.04440802
1757988359385,2.68804964,-0.80588367,-16.68642640,0.23426005,0.35181077,-0.15037682,0.99642111,-0.06506731,-0.03291379,0.04275388
1757988359396,7.32404388,3.40145174,-32.30547117,0.16159423,0.58099930,-0.16961829,0.99661876,-0.06417854,-0.02971829,0.04182098
1757988359419,-4.57134078,1.77473233,28.64586409,0.11290961,0.27845121,-0.03572199,0.99680820,-0.06288573,-0.02653003,0.04141196
1757988359440,0.66924745,-1.13394817,-2.78038974,0.17667058,0.30387311,-0.07947376,0.99703761,-0.06103068,-0.02333936,0.04057749
1757988359463,-2.14856318,1.19905032,12.67907997,-0.18344612,0.18729958,-0.03720457,0.99697288,-0.06310363,-0.02122288,0.04015707
1757988359475,9.76589043,7.35270748,-56.61015188,-0.12927673,0.50515689,-0.08375225,0.99700394,-0.06389221,-0.01814142,0.03964618
1757988359485,-4.15606426,-2.15795827,18.76368810,0.03019871,0.43622849,-0.04844136,0.99706267,-0.06373518,-0.01587303,0.03939429
1757988359496,-2.12474102,-1.73622858,8.95639010,-0.02840660,0.40452621,-0.02881374,0.99709112,-0.06388716,-0.01370881,0.03924014
1757988359519,-3.45764209,-2.53835498,20.99181604,-0.04911722,0.16839857,-0.01159023,0.99708472,-0.06445446,-0.01176381,0.03910627
1757988359541,0.02112695,-0.27705134,-2.64789535,-0.13462471,0.19903278,-0.01008417,0.99701467,-0.06595553,-0.00954460,0.03899383
1757988359552,11.66604306,3.50046234,-123.36547133,-0.76671451,1.16725940,0.02944779,0.99676890,-0.07005745,-0.00329976,0.03915138
1757988359563,-9.59930693,-1.55524021,74.88371898,-0.49763611,0.73521238,-0.20543091,0.99662314,-0.07276956,0.00070715,0.03803178
1757988359575,-1.76235661,-1.87379112,19.57033600,-0.23109826,0.51073728,-0.10407411,0.99653767,-0.07415615,0.00377157,0.03740733
1757988359585,0.83341379,0.84312709,-3.25754909,-0.20794060,0.55266441,-0.07159771,0.99645383,-0.07525824,0.00670069,0.03702787
1757988359597,-1.60822521,-0.67968097,4.55143451,-0.18823696,0.52318856,-0.06048858,0.99635612,-0.07637825,0.00981367,0.03666796
1757988359621,-0.99803475,-0.65899013,14.25276329,-0.07654123,0.27440740,-0.00316641,0.99624880,-0.07729674,0.01310656,0.03662996
1757988359654,-0.35821687,-0.26761265,-3.59914119,-0.05649045,0.40411398,0.01523797,0.99605737,-0.07822601,0.01975423,0.03688063
1757988359686,-0.69903064,-0.34158542,-9.71727505,-0.17693267,0.68938022,0.04352332,0.99552315,-0.08106578,0.03081878,0.03757918
1757988359708,-2.25411681,-0.32907070,-14.41475434,-0.49214857,0.88976412,-0.05840053,0.99474792,-0.08643020,0.04051721,0.03694261
1757988359731,0.13667779,0.63938041,17.50090618,-0.38182496,0.51019841,0.02852170,0.99409693,-0.09076391,0.04630796,0.03726633
1757988359742,-8.84116214,0.40598778,-58.64792663,-0.68844639,1.02706623,0.07293609,0.99344338,-0.09458479,0.05200818,0.03767113
1757988359787,2.62939073,0.09975469,21.92668445,-0.09289901,0.22391787,0.00331758,0.99296159,-0.09667966,0.05705753,0.03774594
1757988359809,-6.98137103,0.25475977,-43.93517542,-0.07526540,0.64738342,0.12974212,0.99239861,-0.09749629,0.06408164,0.03915364
1757988359830,2.78794731,-1.15937190,25.85856108,0.04782928,0.26488926,0.11094468,0.99221325,-0.09698213,0.06692920,0.04034629
1757988359853,-0.03303863,-0.49080074,3.50443778,0.08816227,0.18350952,0.09832497,0.99212144,-0.09597708,0.06902121,0.04146720
1757988359886,0.99536144,-0.03649530,5.76414285,0.04134733,0.10999049,0.05415439,0.99202184,-0.09529692,0.07083055,0.04235804
1757988359898,-17.99154237,-5.92490898,-64.69293473,-0.03273722,0.24099381,0.10170607,0.99187114,-0.09549498,0.07228856,0.04297336
1757988359920,8.77093699,2.65900411,35.31664997,-0.05154275,0.07133931,0.03551965,0.99174306,-0.09605679,0.07306616,0.04336053
1757988359954,0.60259712,0.27169442,2.49135778,-0.00137648,0.05543382,0.01982324,0.99165663,-0.09608005,0.07400299,0.04369554
1757988359964,-63.33766869,-24.62174369,-195.53439152,-0.02136302,0.22408155,0.16802438,0.99152465,-0.09618687,0.07512340,0.04453566
1757988359987,22.16641247,7.75691777,72.32238304,-0.10900510,0.06907441,0.03173615,0.99132527,-0.09744043,0.07591776,0.04490063
1757988359997,-14.32120338,-3.98450190,-39.33730249,-0.15947664,0.07992061,-0.03848249,0.99122357,-0.09824579,0.07632136,0.04470629
1757988360031,6.81333432,2.59615314,19.99253862,0.00523033,0.01413210,-0.00164186,0.99121496,-0.09815530,0.07656584,0.04467788
1757988360042,-41.94580990,-16.44613730,-98.35228236,0.23366547,-0.01901823,-0.01128441,0.99135225,-0.09687014,0.07646124,0.04461582
1757988360076,14.24850011,5.50615057,34.53556484,0.01808720,-0.02472641,0.00587749,0.99140889,-0.09656899,0.07604955,0.04471368
1757988360098,-14.01257806,-5.10122383,-30.74475944,0.09860641,-0.12183362,0.01524386,0.99161095,-0.09546953,0.07469110,0.04488365
1757988360146,5.72376602,2.22277785,13.34750203,0.07955847,-0.07992014,0.02349278,0.99191291,-0.09354023,0.07275304,0.04545335
1757988360180,-11.01104860,-3.73431991,-22.14737682,0.16258850,-0.32000731,0.11947917,0.99245232,-0.09080875,0.06737692,0.04746060
1757988360212,4.49450970,5.88732853,8.21333577,-0.37767045,-0.36902857,0.18439827,0.99211994,-0.09683259,0.06149091,0.05040175
1757988360248,1.32418005,1.10898952,2.17189576,0.07809212,-0.44602759,-0.00339378,0.99272100,-0.09543474,0.05350702,0.05034100
1757988360280,-3.50975230,4.64883884,-10.02186122,0.26023406,-0.68508703,-0.14536050,0.99376655,-0.09123196,0.04244286,0.04799343
1757988360320,4.68047704,-2.74561428,9.84424823,0.23092129,-0.27817363,0.10561252,0.99429369,-0.08664817,0.03692111,0.05008984
1757988360332,-32.04985294,5.78631601,-98.49712191,0.00226937,-0.50717278,0.09596687,0.99437655,-0.08663410,0.03377664,0.05068483
1757988360376,12.40872094,-2.85190626,34.50190817,0.03378730,-0.15290947,-0.09670770,0.99465758,-0.08588572,0.03038970,0.04854276
1757988360388,-22.54866128,7.19231315,-84.54336647,0.24690128,-0.54109798,-0.45717863,0.99498842,-0.08449072,0.02733249,0.04595970
1757988360452,4.98932120,-1.46423956,17.24038726,-0.00115750,-0.09295355,-0.06636176,0.99515860,-0.08452782,0.02435333,0.04383281
1757988360487,-4.60091487,2.09368715,-21.84391478,-0.19919812,-0.48046882,-0.32347132,0.99525950,-0.08798391,0.01601720,0.03822058
1757988360517,1.76879946,0.22829042,1.34653437,-0.05949017,-0.48176137,-0.22197765,0.99539457,-0.08889411,0.00864625,0.03482432
1757988360548,1.93851374,-1.19454793,5.61111334,0.13190700,-0.26436409,-0.16834581,0.99568732,-0.08686934,0.00458826,0.03224021
1757988360591,1.37356069,-1.09659914,9.00056524,0.16035689,-0.15726477,-0.13113462,0.99607921,-0.08342166,0.00120707,0.02942082
1757988360622,-0.17904798,0.18018013,-8.32820290,0.19858402,-0.21878930,-0.13097544,0.99638938,-0.08033368,-0.00219510,0.02738415
1757988360645,0.09022576,-1.03416270,-10.55320417,0.27328367,-0.30242752,-0.18015605,0.99667882,-0.07719092,-0.00567302,0.02531235
1757988360665,1.04885089,-0.85607485,10.13422951,0.15934799,-0.19018673,-0.06503075,0.99680767,-0.07555760,-0.00762244,0.02464579
1757988360700,0.34256403,0.18392772,8.22221284,0.09260113,-0.05071767,-0.02033736,0.99692865,-0.07396486,-0.00849478,0.02429599
1757988360721,0.20100161,-0.90079643,-12.46365998,0.21539753,-0.02029502,-0.09766715,0.99711914,-0.07167088,-0.00871092,0.02325583
1757988360732,3.20394518,-6.40857104,-55.84469407,0.39874482,0.05046444,-0.14626162,0.99729359,-0.06949772,-0.00843589,0.02245871
1757988360778,-0.35595472,1.64344776,20.89731663,0.06557105,0.04487634,-0.02841632,0.99742078,-0.06798303,-0.00739925,0.02180229
1757988360789,12.64854550,-15.21059144,-163.19464222,0.94017829,0.46909722,-0.27637235,0.99779082,-0.06304709,-0.00493649,0.02035133
1757988360821,-3.01723707,4.38132373,49.21789791,0.19767412,0.12109893,-0.09000952,0.99802166,-0.05988431,-0.00299890,0.01891118
1757988360832,9.97812196,-9.06401356,-67.24008348,0.59981199,0.33940474,-0.20315105,0.99824993,-0.05640540,-0.00103036,0.01773291
1757988360856,-2.99924271,3.15190952,26.19548232,0.22389841,0.13228266,-0.07478539,0.99840939,-0.05379698,0.00051074,0.01686166
1757988360866,7.73254705,-2.04141804,-34.19753466,0.18233545,0.28161129,-0.10857800,0.99846595,-0.05287619,0.00193287,0.01631334
1757988360888,-3.24991143,4.67712567,18.58394398,-0.09610367,0.14530935,-0.07034873,0.99841737,-0.05393333,0.00353128,0.01553950
1757988360899,3.45826508,2.77302592,-15.41929793,0.19813625,0.17173854,-0.05644282,0.99847770,-0.05282376,0.00449301,0.01522342
1757988360910,-0.82029791,-2.36587890,7.11839253,0.39906377,0.14077996,-0.07923255,0.99860035,-0.05050919,0.00530954,0.01476387
1757988360934,-3.00603087,0.45867639,14.61922298,0.05102098,0.05463889,-0.05568730,0.99863618,-0.04991225,0.00594881,0.01411233
1757988360955,2.32832398,2.72811852,-10.39543265,-0.03507958,0.09531347,-0.10416370,0.99862610,-0.05028058,0.00694960,0.01301861
1757988360966,12.45105879,12.09877407,-53.35211382,0.26396201,0.09452472,-0.26859651,0.99871713,-0.04874960,0.00749785,0.01146075
1757988360989,-6.28616644,-5.33828760,29.39554553,0.20252210,0.00893814,-0.06987116,0.99883419,-0.04646110,0.00759885,0.01067121
1757988361000,21.60736969,19.52603812,-91.45939646,0.57173663,-0.05009918,-0.12394014,0.99897800,-0.04345949,0.00733583,0.01002052
1757988361024,-10.57084384,-9.78738812,44.66333323,0.15409314,-0.03659848,-0.11158221,0.99907239,-0.04161037,0.00689665,0.00868154
1757988361060,-0.16090364,-0.36280929,0.43992442,0.14236483,-0.09596024,-0.15951662,0.99920917,-0.03900509,0.00514057,0.00576238
1757988361102,1.32899122,0.48800934,-6.99245557,0.23122830,-0.28657327,-0.17577108,0.99941301,-0.03418398,-0.00083448,0.00209755
1757988361123,3.60181998,0.05503058,-23.91122508,0.55449518,-0.65493611,0.01270062,0.99956442,-0.02841723,-0.00764582,0.00222964
1757988361168,-3.62471796,-1.53129605,18.23077948,0.01957974,-0.23127524,0.02272213,0.99952210,-0.02797571,-0.01286107,0.00274203
1757988361179,17.51242421,16.90575735,-159.99663115,-0.22046309,-1.42101570,0.08964565,0.99935662,-0.02917723,-0.02060561,0.00323059
1757988361237,-3.65484041,-3.12199333,31.44101992,-0.09690333,-0.16610862,0.02745443,0.99915417,-0.03202135,-0.02548090,0.00403638
1757988361269,0.78821767,0.58620166,-12.15961652,-0.26670814,-0.51709459,0.11312156,0.99875541,-0.03627534,-0.03372855,0.00584067
1757988361300,-0.35599265,0.58196706,2.21571234,0.12425423,-0.54374265,0.04518960,0.99849705,-0.03433698,-0.04221094,0.00654563
1757988361311,6.36437989,3.74158526,-91.42585762,0.89782198,-2.10472440,0.06919738,0.99809990,-0.02944385,-0.05368169,0.00692275
1757988361356,-1.91836316,-1.88684207,25.98100052,0.17718097,-0.65070480,0.02443351,0.99732850,-0.02553701,-0.06802973,0.00746151
1757988361390,0.09302950,-0.29972491,1.13973414,0.09012684,-0.72110035,-0.01152291,0.99643091,-0.02396429,-0.08061293,0.00726044
1757988361401,4.27067911,-2.72837473,-57.39821882,0.23470534,-2.25978399,0.10250156,0.99540421,-0.02270862,-0.09270277,0.00780882
1757988361424,-1.88534535,0.56448571,21.55073470,0.09580157,-1.13635215,0.08988249,0.99414033,-0.02162606,-0.10554355,0.00882449
1757988361457,-0.36898585,0.38322931,7.29021886,0.04420544,-0.56338278,0.03257390,0.99310076,-0.02088341,-0.11500838,0.00937174
1757988361468,6.92496685,-7.57190860,-115.89645340,0.17621077,-3.95995427,0.05315382,0.99054237,-0.01997592,-0.13540215,0.00964548
1757988361500,-2.01071421,1.84991946,32.74237624,-0.00347114,-1.01417610,0.00258779,0.98812464,-0.02003285,-0.15203464,0.00968792
1757988361513,0.59893572,-5.96236700,-43.62958244,-0.21617518,-2.85285668,0.02381339,0.98516135,-0.02139475,-0.17000763,0.00983794
1757988361556,-0.47646245,1.69038304,14.47368036,-0.07546245,-0.86748666,-0.00716110,0.98169993,-0.02302852,-0.18878872,0.00968290
1757988361568,0.65016704,-10.25983280,-100.23193591,-0.35664014,-5.14679181,-0.02556016,0.97537801,-0.02511486,-0.21889745,0.00953338
1757988361613,-0.50941473,2.69150787,26.21607864,-0.05537673,-0.94053821,0.01005040,0.97033939,-0.02636361,-0.24010659,0.00976001
1757988361623,-8.46842266,-13.10221071,-137.16903776,-0.31975139,-6.33987859,-0.11390912,0.96181180,-0.02797835,-0.27212298,0.00918477
1757988361673,1.68640596,2.93920357,28.36271662,-0.01104055,-0.99037988,-0.05325186,0.95454058,-0.02825160,-0.29663488,0.00786679
1757988361685,-6.49599840,-9.37252359,-107.95472234,0.23377770,-7.11340752,-0.22865423,0.93975404,-0.02680218,-0.34073800,0.00644913
1757988361737,1.48918403,2.12816352,24.40845484,-0.14070123,-1.64297406,-0.12823989,0.92325758,-0.03041820,-0.38296244,0.00315337
1757988361757,0.58449602,0.77233189,-18.42194490,0.00497133,-3.98096533,-0.13079879,0.90526007,-0.03036725,-0.42376733,0.00181268
1757988361805,0.05131926,0.11045996,10.56388381,-0.00470188,-1.12559485,-0.08676189,0.89208524,-0.03048033,-0.45083789,-0.00027394
1757988361825,1.26678616,1.85909474,-23.39359525,-0.09490023,-4.59920112,-0.38971226,0.86766426,-0.03141510,-0.49614002,-0.00411261
1757988361846,0.22725118,0.76782556,15.58520503,-0.15426076,-2.28961287,-0.18096170,0.85290424,-0.03308882,-0.52098232,-0.00607604
1757988361869,-0.16908484,-0.87799568,4.08761834,-0.16663683,-2.08657391,-0.20195810,0.83795039,-0.03497182,-0.54456060,-0.00835817
1757988361890,-0.28107126,-0.22729812,2.67499119,-0.18613760,-2.01107849,-0.20581927,0.82345405,-0.03696349,-0.56607914,-0.01056044
1757988361924,-0.37727129,-0.54553774,2.95005080,-0.09010960,-0.89079495,-0.05930449,0.81300793,-0.03845931,-0.58086634,-0.01154489
1757988361935,1.36638044,5.85077350,-14.40643218,-0.47036628,-5.13110493,-0.55721731,0.79130768,-0.04111688,-0.60985708,-0.01469317
1757988361969,-0.62106076,-1.74364744,5.95484811,-0.04111509,-1.29395450,-0.13509160,0.77355944,-0.04182406,-0.63211310,-0.01701674
1757988361980,-1.57118038,0.38861569,2.90563192,-0.12461686,-4.09068775,-0.18294664,0.75455378,-0.04250945,-0.65461188,-0.01802295
1757988362024,0.33605153,-0.23041604,-0.32753024,-0.07282474,-0.99107050,-0.01876488,0.73519613,-0.04409339,-0.67616767,-0.01843109
1757988362036,-14.35759748,-7.00911261,33.34404464,-0.25775989,-5.36423099,-0.55957847,0.70377252,-0.04565284,-0.70862126,-0.02181654
1757988362069,3.71337728,1.66816171,-9.20488754,-0.03168184,-1.26174773,-0.08532890,0.68195366,-0.04617876,-0.72956628,-0.02323300
1757988362119,0.16109217,0.08113491,-0.33503038,-0.06446687,-0.79869712,-0.08605810,0.65984218,-0.04778398,-0.74945383,-0.02537584
1757988362161,-3.02360669,0.31593449,5.26453877,-0.08650099,-2.28117087,-0.23931112,0.60039066,-0.04960915,-0.79758654,-0.03042531
1757988362192,-0.15267875,0.62879773,-0.86420147,-0.02651819,-1.56476429,-0.03593971,0.56735288,-0.05001223,-0.82137096,-0.03097159
1757988362226,-0.33707390,0.11032225,-0.83378701,0.07449434,-1.26457483,-0.01097371,0.53460287,-0.04873093,-0.84312164,-0.03116034
1757988362237,-39.97167147,4.28721083,58.13843935,0.22210906,-3.51899822,0.12462753,0.50354054,-0.04753154,-0.86212423,-0.03048735
1757988362270,11.71267895,-1.60225088,-17.19471475,0.13629010,-1.07837430,-0.03779691,0.47183953,-0.04527594,-0.87997133,-0.03111289
1757988362314,2.44810248,-0.15153088,-2.87517346,0.08616821,-0.51004334,-0.00841750,0.45026044,-0.04336300,-0.89129429,-0.03129976
1757988362326,-22.55563091,0.74809568,33.40887557,0.22013507,-1.46760520,-0.06184393,0.43309922,-0.04208622,-0.89980640,-0.03165845
1757988362347,7.91375510,-1.13809289,-12.33280605,0.11624643,-0.74737810,-0.11641122,0.41594085,-0.04083076,-0.90787808,-0.03291569
1757988362359,-7.46330294,0.60677737,10.31182017,0.10019420,-0.94471317,-0.23642704,0.40424745,-0.04027468,-0.91312124,-0.03422786
1757988362382,6.16779615,0.68173745,-7.55242284,0.01507936,-0.49094643,-0.03101679,0.39123237,-0.04010127,-0.91876713,-0.03458456
1757988362391,-9.13359616,1.94990852,15.93401170,0.02318956,-0.74023537,0.01949983,0.38253388,-0.03998648,-0.92243129,-0.03448803
1757988362404,4.66892948,-1.65970911,-7.91937536,0.01951574,-0.53150781,0.05230956,0.37453140,-0.03986548,-0.92572664,-0.03416371
1757988362414,-4.29095760,-0.32218113,5.78280418,0.00856361,-0.61185668,-0.02584505,0.36687172,-0.03982266,-0.92878592,-0.03429294
1757988362437,5.19893497,-0.15821940,-8.34906388,-0.00866398,-0.26614948,-0.04619403,0.35885977,-0.03992360,-0.93188656,-0.03483110
1757988362448,-24.64457011,-0.20373027,37.74750848,-0.03228785,-0.84816088,-0.20227998,0.34694775,-0.04009311,-0.93633941,-0.03589307
1757988362459,13.10512672,0.42744688,-19.32046965,-0.05350032,-0.48489564,-0.10217736,0.33929707,-0.04039806,-0.93910331,-0.03647548
1757988362495,4.22197752,-0.15800096,-6.53335935,-0.01292848,-0.14738213,-0.01083033,0.33189694,-0.04062819,-0.94172672,-0.03666826
1757988362526,-6.57168673,-0.07947384,10.07099733,-0.06138241,-0.50964166,-0.04935094,0.30779563,-0.04160110,-0.94980454,-0.03745047
1757988362575,0.85752241,-0.26684703,-1.55229796,-0.01349872,-0.35675912,-0.08618771,0.27910998,-0.04193114,-0.95852730,-0.03955776
1757988362607,-3.59146871,0.36122072,5.40534554,-0.07866479,-0.41357308,-0.13968951,0.25512418,-0.04317012,-0.96504107,-0.04175787
1757988362637,1.49259684,0.49725394,-1.16022216,-0.01701870,-0.31039432,-0.03390027,0.23654790,-0.04342710,-0.96972803,-0.04226977
1757988362676,1.46949928,-0.05961800,-2.51936589,0.00358799,-0.20118338,-0.10973159,0.21948016,-0.04335731,-0.97364104,-0.04440405
1757988362687,-48.90337914,2.18548557,90.86783244,0.19970139,-0.58925870,0.06889648,0.20488434,-0.04225895,-0.97688197,-0.04402511
1757988362738,11.76282488,-0.70419744,-20.79065258,0.06509752,-0.11579825,-0.01425668,0.19053895,-0.04059897,-0.97983482,-0.04438866
1757988362760,-10.23635707,-0.90072356,20.87067061,0.04518960,-0.22401150,-0.10749838,0.17746305,-0.04011092,-0.98225415,-0.04554964
1757988362793,7.16727424,0.23419955,-12.87777965,-0.06825656,-0.08106646,-0.01536481,0.16943206,-0.04125422,-0.98361201,-0.04580700
1757988362816,-1.57691760,-0.71436389,4.80583502,-0.14935828,-0.07646510,-0.04590962,0.16357906,-0.04299424,-0.98450283,-0.04634185
1757988362851,1.87759528,0.03969658,-4.39921830,-0.08179993,-0.04732070,-0.07268837,0.15780905,-0.04440938,-0.98532148,-0.04759936
1757988362882,-5.05555259,-1.66035037,11.51488142,-0.31865546,-0.05685370,-0.34554127,0.14878726,-0.04939634,-0.98621124,-0.05300708
1757988362929,3.21291845,0.96603670,-6.61512621,-0.05434415,-0.02534409,-0.21812790,0.14242634,-0.05065984,-0.98680049,-0.05807855
1757988362949,-10.09047346,-4.66287078,30.62775110,0.07920567,-0.09494784,-0.18405617,0.13502801,-0.04985194,-0.98776895,-0.05995593
1757988362982,7.51950353,3.23965540,-19.29698816,0.01020692,-0.00861609,-0.24486084,0.13215632,-0.04968302,-0.98791155,-0.06400837
1757988363016,0.05120184,0.49902689,3.35896739,0.16977912,-0.03159231,-0.18588510,0.12753123,-0.04678828,-0.98845020,-0.06717771
1757988363038,-0.34685690,-1.93025235,9.98540703,0.18299692,-0.03503328,-0.22705804,0.12389095,-0.04478447,-0.98883381,-0.06966400
1757988363061,2.50911162,0.51962833,-11.37580301,-0.02826354,0.01494914,-0.33183826,0.12293678,-0.04510950,-0.98866190,-0.07348014
1757988363094,0.89993660,0.56792734,-3.76020761,0.07214068,0.00393083,-0.19836630,0.12189167,-0.04392639,-0.98859743,-0.07673335
1757988363129,0.38961767,-0.05229462,-0.47666110,0.03884016,-0.00388084,-0.06845595,0.12083153,-0.04325445,-0.98866457,-0.07791764
1757988363139,6.35020572,-6.34714257,115.06235319,0.16718242,-0.00192030,-0.20649325,0.12037365,-0.04241018,-0.98867427,-0.07896043
1757988363190,-0.77531802,1.36124748,-24.22550145,0.03317179,-0.00375908,-0.00616655,0.11977073,-0.04155601,-0.98877107,-0.07911921
1757988363210,6.11567960,-2.29017149,35.12456868,0.09340204,-0.01719297,-0.12938885,0.11779363,-0.04062199,-0.98894300,-0.08041310
1757988363230,2.16694699,0.10350495,-2.32395561,-0.07122510,-0.03972009,0.10839688,0.11489552,-0.04133780,-0.98934218,-0.07932371
1757988363273,-2.50384772,0.69453907,-13.07044065,-0.05506846,-0.01570131,0.05577985,0.11237370,-0.04251076,-0.98967662,-0.07813560
1757988363294,3.40780022,-1.47077900,10.41350385,-0.08767101,-0.03175125,0.14084110,0.11004685,-0.04344446,-0.99001477,-0.07663565
1757988363317,0.45533007,-0.33941841,-0.33639865,-0.09242961,-0.02885405,0.10531228,0.10743081,-0.04451202,-0.99034804,-0.07541929
1757988363328,21.75560933,-9.32617940,59.20703474,-0.21984982,-0.04990939,0.05387911,0.10469395,-0.04566623,-0.99061006,-0.07513642
1757988363360,-7.56521153,3.33365665,-23.17376014,-0.07252892,-0.01460644,0.00599678,0.10196988,-0.04684120,-0.99084668,-0.07503928
1757988363373,21.33116428,-7.21778340,51.29934005,-0.07124274,-0.05124829,0.07514353,0.09895133,-0.04728647,-0.99116699,-0.07456963
1757988363395,-7.22203436,3.11680071,-18.87529681,-0.03166961,-0.03718025,0.10583233,0.09551292,-0.04763325,-0.99157411,-0.07341077
1757988363405,13.32436099,-1.26196459,26.46696052,-0.06077561,-0.05561699,0.20728695,0.09326049,-0.04793409,-0.99184941,-0.07238469
1757988363418,-7.11791599,1.90055451,-19.43846469,-0.05914872,-0.03905601,0.19117287,0.09131270,-0.04831560,-0.99210133,-0.07115163
1757988363439,-6.12484885,1.56196215,-13.47371224,-0.04238626,-0.01777154,0.08299449,0.08963200,-0.04878185,-0.99229681,-0.07023869
1757988363450,16.92179322,-3.53166022,34.06410280,-0.11150300,-0.03081873,0.13664796,0.08802042,-0.04938396,-0.99246323,-0.06950079
1757988363461,-2.62168199,2.04270135,-5.66655057,-0.11795839,-0.02218956,0.04646102,0.08645125,-0.05003863,-0.99258639,-0.06924293
1757988363472,2.65969250,0.90956064,3.89291143,-0.10948414,-0.02329671,0.03061386,0.08485689,-0.05060247,-0.99270636,-0.06908527
1757988363495,-7.90996282,1.42909456,-16.03788193,-0.04072341,-0.00758005,-0.01822657,0.08332045,-0.05108708,-0.99279657,-0.06930217
1757988363506,63.03937744,9.22375203,114.66088266,-0.15627346,-0.04199648,-0.05112639,0.07972452,-0.05194659,-0.99302755,-0.06958336
1757988363518,-33.55101670,-5.27614865,-59.41796557,-0.04731793,-0.06383366,0.61241361,0.07799893,-0.05221157,-0.99338502,-0.06615385
1757988363529,-2.67375109,1.41901962,-5.04054585,-0.08851613,-0.03652065,0.25774885,0.07625186,-0.05270726,-0.99358953,-0.06471045
1757988363540,-3.01091187,2.56218130,-6.20295314,-0.21113355,-0.00398620,-0.10899213,0.07456604,-0.05391072,-0.99361225,-0.06533171
1757988363562,-8.97826145,-1.46741890,-17.33178627,-0.13531455,0.00186588,-0.05650273,0.07322065,-0.05536535,-0.99359219,-0.06593911
1757988363583,3.92966059,1.67527840,7.11600587,-0.20939564,0.00671630,-0.05242310,0.07192433,-0.05764776,-0.99351899,-0.06651052
1757988363606,2.44767475,0.70659583,5.55608703,-0.19292280,0.00227254,0.07125111,0.07125479,-0.05976991,-0.99349399,-0.06572676
1757988363617,23.43793764,6.72377540,46.86864476,-0.35411727,0.01289477,0.09612352,0.07105293,-0.06185920,-0.99341791,-0.06515963
1757988363629,-12.40832164,-6.88816070,-24.78895395,-0.29310471,0.01216045,0.15274611,0.07134037,-0.06352990,-0.99334859,-0.06428898
1757988363640,-3.93481451,-2.15126488,-5.93584341,-0.23060831,0.02526866,-0.04846356,0.07189666,-0.06480978,-0.99320835,-0.06455795
1757988363675,-9.43631056,-1.60297077,-18.30426513,-0.03116924,0.00843663,-0.06378071,0.07243687,-0.06536303,-0.99305860,-0.06569006
1757988363707,5.19999310,2.08691837,11.87700088,-0.00593684,0.00744110,-0.06161910,0.07306570,-0.06545594,-0.99294215,-0.06665440
1757988363749,-1.42343393,-0.56936562,-2.05528080,0.01024664,-0.01048837,0.16717039,0.07338486,-0.06523820,-0.99316503,-0.06310203
1757988363791,1.59687261,0.39018521,5.05675412,-0.08662565,0.02559432,-0.28946977,0.07353908,-0.06704435,-0.99263139,-0.06913747
1757988363831,-1.39569973,-0.67952796,-2.05430622,0.00771524,0.01961139,-0.22153240,0.07467758,-0.06688811,-0.99223426,-0.07362350
1757988363851,5.73032176,-0.99852632,17.50308652,0.04224829,0.04322331,-0.40879378,0.07660172,-0.06647197,-0.99180851,-0.07765012
1757988363874,-2.41466116,0.85801339,-2.91755717,0.24756658,0.00162019,-0.10256706,0.07806603,-0.06357544,-0.99178955,-0.07885016
1757988363907,-4.23663517,-1.61353735,-13.73270904,0.06492811,-0.00610937,0.10609028,0.07936040,-0.06252685,-0.99188822,-0.07713680
1757988363952,-1.31488033,-0.16818785,-4.00616699,-0.00921407,0.00850630,-0.00639827,0.08142184,-0.06273417,-0.99169682,-0.07728076
1757988363962,43.43980720,-7.47219693,164.70738874,-0.05604348,0.10888171,-0.55297619,0.08511629,-0.06301719,-0.99114697,-0.08007329
1757988363985,-15.35904602,2.40293465,-58.71448893,0.01868007,0.03330932,-0.15388742,0.08802709,-0.06280050,-0.99076058,-0.08185838
1757988364018,-1.55409786,0.10044556,-4.79559389,-0.03873498,0.02928469,-0.04960807,0.09212031,-0.06343575,-0.99028031,-0.08267196
1757988364029,21.55154553,-7.08172279,75.42490815,-0.19001674,0.11913817,-0.07997442,0.09786163,-0.06448084,-0.98962505,-0.08311182
1757988364052,-7.78214659,1.66112194,-28.22309110,-0.09174576,0.07706656,-0.04504917,0.10548278,-0.06554968,-0.98872723,-0.08363664
1757988364063,4.02014858,-3.67501847,17.67065808,-0.02016673,0.10865432,-0.07328530,0.11043496,-0.06565757,-0.98814593,-0.08402872
1757988364085,-5.29207645,2.74863252,-19.63267829,0.00445915,0.05618315,-0.07905762,0.11524460,-0.06560830,-0.98752511,-0.08490230
1757988364096,8.39351783,-3.74693031,30.43125968,-0.09417230,0.12323096,-0.06028345,0.12048608,-0.06613566,-0.98683501,-0.08523989
1757988364119,-2.92731078,1.48485219,-10.89029698,-0.05161447,0.07907847,0.03751423,0.12751001,-0.06671375,-0.98594933,-0.08481973
1757988364140,3.05738421,-1.24963400,12.21533859,-0.16542622,0.15269512,0.17962414,0.13986042,-0.06848381,-0.98431549,-0.08289775
1757988364177,-1.93527044,0.99321003,-7.98834240,-0.07001343,0.12121774,0.12032496,0.15542085,-0.06977906,-0.98207297,-0.08067174
1757988364197,14.28764716,-5.73663846,53.31898058,-0.01501759,0.51395399,0.47141503,0.18692626,-0.06992923,-0.97693343,-0.07595759
1757988364229,-8.68533680,3.24252032,-31.70289565,-0.07093029,0.21100277,0.07886197,0.20385400,-0.07106412,-0.97355738,-0.07469580
1757988364268,-0.51752374,0.32034785,-2.11225803,-0.10448598,0.20326880,0.05871119,0.22183799,-0.07312249,-0.96955299,-0.07353919
1757988364298,5.36248939,2.24102399,20.49234878,-0.47942257,0.66773172,-0.17335976,0.25869551,-0.08026589,-0.95960378,-0.07612225
1757988364330,-1.15222550,2.11538833,-7.52973125,-0.36656876,0.59620400,-0.19324990,0.28901226,-0.08607600,-0.95015395,-0.07918526
1757988364341,18.81651168,10.51000851,53.22250691,-0.50180391,1.19318553,-0.00813446,0.30915054,-0.08886101,-0.94353177,-0.07923041
1757988364364,-9.88004004,-4.85074668,-31.78052892,-0.21386483,0.60318959,-0.09153510,0.32847713,-0.09129907,-0.93665541,-0.08027391
1757988364397,-1.66391732,-1.46239764,-6.32846536,-0.10464791,0.42012487,-0.02723733,0.34716016,-0.09303623,-0.92968134,-0.08072605
1757988364407,36.19749313,6.84495743,88.71087147,-0.12431773,1.40981995,-0.12156900,0.36501348,-0.09365160,-0.92270273,-0.08132781
1757988364454,-8.42071267,-2.07126011,-21.73230860,-0.00785904,0.29626976,-0.02039578,0.38206762,-0.09383707,-0.91571076,-0.08180915
1757988364476,13.60456849,1.99603155,25.17914366,-0.10741365,0.96587430,0.23409873,0.40650671,-0.09500251,-0.90523103,-0.07926918
1757988364497,-5.09303348,-0.76184802,-14.94084630,-0.16198299,0.71613053,0.06475374,0.42274393,-0.09671953,-0.89764004,-0.07858279
1757988364508,22.78768019,0.73769659,35.06554744,-0.29662198,1.35472224,-0.21312098,0.43803830,-0.09839545,-0.88998586,-0.07978692
1757988364555,-8.90652822,-1.05304243,-14.57583038,-0.07737696,0.31005023,-0.04882365,0.45182221,-0.10019833,-0.88276169,-0.08092452
1757988364575,25.04633786,1.18187887,30.61340152,-0.43400510,1.44980688,0.00183978,0.47829443,-0.10456008,-0.86819113,-0.08090603
1757988364597,-14.53256757,-1.30219152,-20.03115747,-0.13164585,0.70655379,0.08492588,0.49216467,-0.10602793,-0.86031306,-0.07995910
1757988364631,-3.69475651,-0.20513256,-4.57173761,-0.05078355,0.40554416,0.02059102,0.50396573,-0.10689633,-0.85337825,-0.07960700
1757988364642,45.09031363,-0.70874953,45.29547105,-0.22601001,1.33257009,0.22048907,0.51534133,-0.10806028,-0.84651552,-0.07847148
1757988364664,-14.49299705,0.32982001,-17.26545334,-0.07650517,0.59250413,0.21951017,0.52631945,-0.10892096,-0.83984984,-0.07600199
1757988364728,-4.04351683,0.01282575,-3.61978845,-0.00578675,0.13222276,0.05318484,0.53314953,-0.10910440,-0.83565838,-0.07431603
1757988364759,19.40072930,-1.44739065,14.09203220,0.00965262,1.05044834,0.17365164,0.55885618,-0.10895093,-0.81895625,-0.07155497
1757988364790,-7.66024730,-0.29099742,-7.47258522,-0.04180584,0.64595040,0.11544026,0.57321251,-0.10959265,-0.80904092,-0.06978296
1757988364819,2.54955033,-0.42342566,0.17993807,0.07212427,0.55500863,0.23313057,0.58503403,-0.10854324,-0.80096554,-0.06639091
1757988364852,-5.28665631,0.59776694,-3.57874578,0.00774859,0.34439434,0.22615450,0.59314072,-0.10841577,-0.79530025,-0.06267067
1757988364893,0.19482623,-0.10702351,-0.14655211,0.00552321,0.31202436,0.16836669,0.60201345,-0.10830227,-0.78888815,-0.05921073
1757988364924,4.58989848,-0.62056768,1.14609613,0.05944983,0.33159220,0.17613796,0.60902146,-0.10739269,-0.78381479,-0.05651582
1757988364956,0.23993076,0.93065822,-0.85288966,-0.00485511,0.32066943,0.20074755,0.61590412,-0.10747110,-0.77863598,-0.05327375
1757988364998,-2.32814584,0.59928985,-1.06576303,0.07640377,0.21896373,0.21999183,0.62235704,-0.10585898,-0.77401585,-0.04863192
1757988365010,138.50118005,2.47944093,35.79583235,1.01605441,0.73166922,1.88932420,0.62937422,-0.09991506,-0.76973558,-0.03757937
1757988365055,-35.29033039,-0.05731562,-9.76121455,0.25902781,0.16028883,0.39116620,0.63506087,-0.09413874,-0.76616114,-0.02885637
1757988365076,11.46422583,3.66580420,3.31878400,0.21988755,0.18010494,0.55973480,0.63800468,-0.09175296,-0.76420700,-0.02278325
1757988365099,-5.37454192,-1.17491596,-1.85821094,0.20492010,0.17637272,0.55170467,0.64092846,-0.08941687,-0.76219635,-0.01649381
1757988365110,18.34375947,3.93373717,4.36588065,-0.06270642,0.28339472,0.24278187,0.64277891,-0.08976489,-0.76062351,-0.01514637
1757988365121,-5.68633259,0.97102445,-1.54841568,0.04749119,0.20654854,0.19590908,0.64421973,-0.08949657,-0.75945651,-0.01403949
1757988365144,-18.20949955,-2.94300020,-4.05337109,0.06202696,0.07423042,0.09430005,0.64531176,-0.08880497,-0.75862884,-0.01298804
1757988365155,27.70397199,4.34223628,6.64815222,0.07334410,0.13771436,0.09992581,0.64627593,-0.08839791,-0.75786453,-0.01243345
1757988365165,22.04095448,1.13704347,4.68682761,0.04506439,0.22544341,0.11678406,0.64766428,-0.08816808,-0.75671477,-0.01183785
1757988365188,-22.86250035,-3.34721353,-5.49182739,-0.05007251,0.11693733,0.01162094,0.64912379,-0.08873140,-0.75539922,-0.01170712
1757988365198,63.86480140,0.69490151,13.89261058,-0.49073702,0.46458610,-0.18914741,0.65150735,-0.09123415,-0.75302983,-0.01267177
1757988365210,-37.35273866,-3.06978039,-7.87838955,-0.24568611,0.26450234,-0.20635280,0.65317067,-0.09276969,-0.75137669,-0.01396148
1757988365233,-7.53239270,-0.09607451,-1.67285048,-0.13744348,0.16253328,-0.19333047,0.65497320,-0.09429532,-0.74957257,-0.01610744
1757988365255,9.15651552,0.18997817,2.21569444,-0.13423400,0.19144597,-0.31941952,0.65714191,-0.09582558,-0.74739009,-0.01974883
1757988365266,58.25579003,0.64418401,12.30457828,-0.07025165,0.48378594,-0.36158088,0.65990620,-0.09619440,-0.74485021,-0.02164713
1757988365289,-38.42985193,-0.35177685,-8.86619456,-0.00630955,0.16735496,-0.05803989,0.66201171,-0.09626602,-0.74295074,-0.02230588
1757988365299,60.96242066,1.06842430,13.46691290,0.08911158,0.56190785,-0.22370539,0.66549218,-0.09577590,-0.73986024,-0.02353626
1757988365321,-31.49107664,-0.38249555,-6.74242013,-0.00776326,0.17806874,-0.12241594,0.66751629,-0.09585781,-0.73798162,-0.02482775
1757988365352,0.44975002,-0.11014559,-0.10907572,-0.04668056,0.19354051,-0.12524688,0.67067955,-0.09659069,-0.73494303,-0.02679412
1757988365383,6.55208842,0.57110118,1.47533680,-0.10220508,0.39798788,-0.17531520,0.67697596,-0.09815954,-0.72883392,-0.02948521
1757988365425,-3.80129220,0.15985126,-0.81801093,-0.01498420,0.31019349,-0.08470031,0.68381388,-0.09847496,-0.72230434,-0.03126815
1757988365445,29.22899352,4.03506783,7.08320156,0.32210792,0.71640100,-0.00227355,0.69190970,-0.09518946,-0.71499705,-0.03129134
1757988365467,-20.16842799,-2.84552046,-4.34334641,0.24960428,0.36405204,0.13804333,0.69637848,-0.09249373,-0.71106529,-0.02980047
1757988365489,-3.07644427,-1.23983225,-0.94859569,0.16386827,0.31821960,0.07696697,0.70027539,-0.09065841,-0.70750123,-0.02893844
1757988365535,-4.94144633,-0.23583184,-1.05862654,0.05017119,0.14624038,0.01515176,0.70383467,-0.08949945,-0.70412308,-0.02858844
1757988365568,13.67471483,-0.05736399,3.42849047,0.09524738,0.38691347,-0.06264644,0.71018162,-0.08796121,-0.69787443,-0.02960018
1757988365588,7.99131137,-1.02000981,2.40121302,-0.02654782,0.54004725,0.05198350,0.71556744,-0.08823332,-0.69233894,-0.02906735
1757988365611,-14.88975606,-0.06398082,-3.68497179,-0.01676654,0.32478871,0.06406105,0.71919934,-0.08842781,-0.68857139,-0.02832424
1757988365633,2.28871667,-0.05963692,0.82612377,-0.00486899,0.36523420,0.12357006,0.72303487,-0.08848088,-0.68459034,-0.02697733
1757988365666,-9.47797853,0.20311619,-2.46348010,0.04242797,0.16328087,0.06962592,0.72572725,-0.08777446,-0.68187171,-0.02581806
1757988365677,122.29356956,-2.09378038,39.23040314,0.38385794,1.06808283,0.65348115,0.73141284,-0.08572082,-0.67615747,-0.02232193
1757988365700,-43.74740885,0.28708305,-13.58441667,0.13639996,0.37837499,0.23574146,0.73557810,-0.08418632,-0.67190075,-0.01966984
1757988365733,-9.43727648,0.28502610,-2.97473157,0.07509760,0.16529585,0.07785543,0.73822552,-0.08295096,-0.66918164,-0.01838912
1757988365745,93.44323423,-3.83017886,36.82206662,0.35015109,0.90573008,0.34097156,0.74356555,-0.08078003,-0.66356611,-0.01627509
1757988365767,-36.41329143,1.85138032,-13.86703058,0.21249074,0.29317259,0.12668745,0.74669509,-0.07845325,-0.66035587,-0.01488787
1757988365791,-11.09278986,0.05454818,-3.92895721,0.08687491,0.15701068,0.07026863,0.74851910,-0.07738904,-0.65843249,-0.01402708
1757988365824,0.81101473,-0.39798786,0.51115607,0.04613091,0.17516812,0.06006546,0.75110789,-0.07663941,-0.65558601,-0.01305101
1757988365856,8.00767341,-0.83408618,4.01044736,0.01168911,0.27285151,-0.02825778,0.75489528,-0.07645297,-0.65123403,-0.01350172
1757988365902,-0.82938066,1.12008048,-0.29651110,-0.08201851,0.24629216,-0.07839867,0.75949898,-0.07833119,-0.64559393,-0.01529705
1757988365923,30.65883442,5.76651375,15.51028498,-0.22171880,0.55022631,-0.26455204,0.76404792,-0.08064815,-0.63984407,-0.01806162
1757988365945,-23.49353897,1.62591014,-12.28386034,-0.02503005,0.28699736,0.07151821,0.76671721,-0.08092849,-0.63662970,-0.01726062
1757988365967,-3.21900995,-0.76457276,-1.18189996,0.05913601,0.20536568,0.10806661,0.76870801,-0.08026912,-0.63433987,-0.01605568
1757988365990,-3.01688637,-1.04009805,-1.57250826,0.02620923,0.13481319,0.03929865,0.76999682,-0.07997427,-0.63282322,-0.01561357
1757988366011,-8.18525997,-2.04274652,-4.02832657,0.00384065,0.09978160,0.04795595,0.77089584,-0.07993279,-0.63174558,-0.01509564
1757988366023,44.24864596,4.77866100,20.22152831,0.08751533,0.26927164,0.22166068,0.77227277,-0.07941645,-0.63015688,-0.01378784
1757988366045,-25.66246296,-4.15151055,-11.90354809,0.04588271,0.09300492,0.10877637,0.77317852,-0.07891174,-0.62913383,-0.01259130
1757988366067,7.76050443,0.20951360,3.17805571,0.00843515,0.13326306,0.13175318,0.77441174,-0.07881811,-0.62765461,-0.01112884
1757988366079,44.88340079,1.01805136,18.29185980,-0.01783127,0.24977304,0.24233942,0.77561232,-0.07892331,-0.62618094,-0.00969904
1757988366089,-32.21365795,-2.73793431,-14.76370306,0.01621648,0.14324839,0.15687127,0.77622549,-0.07883980,-0.62544322,-0.00889115
1757988366101,-8.79053006,-1.42821039,-5.81444270,-0.01520663,0.08829941,0.04375362,0.77661428,-0.07892420,-0.62495315,-0.00864832
1757988366123,-15.24348826,-0.26632074,-5.55301385,-0.05218594,0.03417885,-0.01874659,0.77686459,-0.07951912,-0.62456352,-0.00886203
1757988366134,28.47365475,0.45674527,9.34717443,-0.22226826,0.04965562,-0.16918356,0.77694464,-0.08070825,-0.62429786,-0.00976716
1757988366157,-13.84034488,0.02430420,-4.89362788,-0.10550137,0.01744440,-0.07863254,0.77696684,-0.08191624,-0.62409812,-0.01066751
1757988366167,96.67308552,2.04160900,29.51121228,-0.65430291,0.08085791,-0.36727638,0.77690908,-0.08535133,-0.62367362,-0.01259571
1757988366179,-55.90765283,-0.16341281,-18.81802428,-0.31541534,0.04668932,-0.19186537,0.77690411,-0.08725959,-0.62339114,-0.01375649
1757988366190,-2.83122018,-0.64399300,-1.65058389,-0.28200602,0.04454578,-0.11336035,0.77691334,-0.08875423,-0.62315505,-0.01435730
1757988366201,-7.46124855,-0.08745025,-2.56375707,-0.25652543,0.03933913,-0.08027222,0.77691614,-0.09020359,-0.62293279,-0.01481084
1757988366224,-10.34267191,-0.34172329,-2.66994767,-0.10394726,0.02357515,-0.01632456,0.77698826,-0.09136780,-0.62266874,-0.01499368
1757988366234,42.35423611,2.11758573,8.86565028,-0.22741862,0.04396888,0.00932482,0.77703284,-0.09256175,-0.62243791,-0.01494472
1757988366257,-20.39159206,-0.70161605,-4.66001938,-0.04073849,0.00976564,0.03685054,0.77707397,-0.09302006,-0.62232804,-0.01453015
1757988366280,8.32050449,0.58029795,1.33901617,0.04223373,-0.01317046,0.12817151,0.77703714,-0.09253860,-0.62247819,-0.01306900
1757988366290,76.59647335,4.13157527,10.12883358,0.16261610,-0.04433094,0.29050018,0.77697782,-0.09170925,-0.62270428,-0.01158745
1757988366324,-28.97631264,-1.69291101,-4.56309577,0.04389372,-0.00858078,0.07414075,0.77696646,-0.09096745,-0.62284929,-0.01033447
1757988366336,75.49434428,0.99469588,4.71291411,0.38248435,-0.05420598,0.45754746,0.77700287,-0.08865342,-0.62317724,-0.00756630
1757988366357,-29.70144295,-1.11103489,-3.04400387,0.14267505,-0.02685217,0.11282753,0.77695564,-0.08711966,-0.62346590,-0.00635341
1757988366380,-8.84075258,-0.24033952,-0.72974293,0.05331069,-0.01422098,0.03863836,0.77689770,-0.08651992,-0.62362588,-0.00591873
1757988366390,51.34266507,-2.86837772,-1.20686897,0.14420806,0.01124070,0.22226695,0.77703964,-0.08574840,-0.62356575,-0.00472960
1757988366434,-16.19097657,0.72960590,0.23330495,0.02758381,0.00296131,0.04524163,0.77716237,-0.08514984,-0.62350149,-0.00374786
1757988366468,12.60201032,-1.22161562,-1.16856470,0.12499341,0.01893579,0.14443100,0.77766547,-0.08299370,-0.62317484,-0.00125642
1757988366491,16.37061061,-3.14722081,-3.29621511,0.17067565,-0.05498397,0.00063610,0.77737072,-0.08106506,-0.62379616,-0.00124923
1757988366514,-15.46441953,2.05374748,0.82847078,0.11894422,-0.10356595,0.05746030,0.77656655,-0.07971505,-0.62497164,-0.00059706
1757988366535,-3.33116862,-0.11361429,-0.45623783,0.06212055,-0.12266907,0.01162743,0.77557188,-0.07904725,-0.62629033,-0.00047206
1757988366558,0.01373696,0.12320501,-0.45641654,0.03764811,-0.14705686,0.01573295,0.77427621,-0.07862371,-0.62794472,-0.00029507
1757988366569,9.34051982,-1.22334684,-3.25090568,0.06851431,-0.20963200,0.05086678,0.77333709,-0.07822975,-0.62915010,-0.00000258
1757988366580,-2.36522664,0.29943393,-1.01869907,0.08433391,-0.20269923,0.09648069,0.77248327,-0.07777013,-0.63025481,0.00052324
1757988366591,-6.67128017,1.22403186,1.13335035,0.05219779,-0.17986574,0.10569569,0.77168916,-0.07747783,-0.63126206,0.00111513
1757988366602,-2.46728724,0.07864146,0.12174838,0.08684135,-0.17009113,0.13272767,0.77098906,-0.07701322,-0.63217205,0.00182522
1757988366614,-2.91454282,0.63354476,0.98162389,0.06451858,-0.15384258,0.11879832,0.77028593,-0.07663579,-0.63307203,0.00252019
1757988366624,8.96464105,-0.40610894,-2.95996035,0.04061770,-0.18693360,0.14247574,0.76951928,-0.07642864,-0.63402539,0.00324682
1757988366659,-11.03798346,1.31534379,3.38204966,0.01132888,-0.05311560,0.04477239,0.76877491,-0.07623208,-0.63494694,0.00402362
1757988366680,37.51300577,-4.68449616,-13.93085932,0.10814620,-0.33719771,0.32975008,0.76590939,-0.07509114,-0.63850438,0.00750249
1757988366704,-15.59913058,1.63507620,5.18567780,0.01824256,-0.19530705,0.09843411,0.76393397,-0.07486949,-0.64087736,0.00869846
1757988366725,4.34332972,0.67938458,-1.70875788,-0.03007579,-0.21767016,0.03018189,0.76200403,-0.07518078,-0.64313025,0.00901084
1757988366747,-2.31091052,1.06952861,0.27580014,0.06162247,-0.22136176,0.09928264,0.75993109,-0.07448136,-0.64564270,0.01013770
1757988366770,1.70015333,2.97054307,-0.85908696,-0.19412648,-0.15437267,0.13441364,0.75821279,-0.07666529,-0.64737940,0.01164985
1757988366780,78.22350750,-0.77622157,-32.47020534,0.34128415,-0.29471164,0.67221272,0.75702903,-0.07490767,-0.64889716,0.01511175
1757988366857,-16.62693684,0.07639021,6.87283048,-0.05505981,-0.03936593,0.01609864,0.75551148,-0.07701371,-0.65040291,0.01572752
1757988366896,26.90888421,4.80223637,-10.81218467,0.12975187,-0.23218279,0.34218691,0.75167580,-0.07448355,-0.65493047,0.02240017
1757988366928,-15.41248801,-4.52264447,7.15625897,0.05898252,-0.09814657,0.08600346,0.75033058,-0.07352213,-0.65653026,0.02380202
1757988366974,-4.68923552,-0.58164752,2.17229445,-0.00482162,-0.10108902,-0.08622450,0.74836545,-0.07363159,-0.65882498,0.02184473
1757988367014,3.86036417,-0.39598420,-0.46891810,0.11719921,-0.17101672,-0.13653525,0.74559524,-0.07124658,-0.66230517,0.01906624
1757988367058,-4.43936988,-0.37879571,1.77027643,-0.08067470,-0.15140172,-0.19112052,0.74260269,-0.07298916,-0.66557545,0.01493803
1757988367070,116.13732635,9.18399750,-20.87198717,-0.42228836,-0.58655617,-0.96341192,0.73904800,-0.07569180,-0.66932941,0.00877220
1757988367103,-40.05360216,-2.77050179,8.43341055,0.06826037,-0.20283034,-0.25639179,0.73617406,-0.07457233,-0.67265583,0.00456737
1757988367136,-4.47587593,-0.43098136,0.98005052,0.12462797,-0.14058416,-0.16463459,0.73424823,-0.07249727,-0.67499655,0.00182620
1757988367160,1.95233154,-0.76734647,-0.02870616,0.06181488,-0.14140470,-0.16754226,0.73278486,-0.07176786,-0.67666513,-0.00015079
1757988367171,26.08628727,-1.64879975,-3.21517959,0.05569632,-0.16714973,-0.23939465,0.73198586,-0.07146988,-0.67755938,-0.00143156
1757988367192,-17.95743303,0.58265902,2.23846407,0.03472016,-0.08248679,-0.09840633,0.73121598,-0.07110532,-0.67842549,-0.00246482
1757988367204,12.50597693,-0.37199315,-1.51583836,0.03632557,-0.08276182,-0.07163032,0.73077455,-0.07088737,-0.67892206,-0.00289460
1757988367215,-1.03666035,-1.01214182,0.29231318,-0.01253836,-0.05517024,-0.05553872,0.73047400,-0.07095884,-0.67923653,-0.00321117
1757988367225,3.53677231,-1.45004311,-0.40347116,-0.09918283,-0.02251918,-0.02718802,0.73032033,-0.07145475,-0.67934913,-0.00334711
1757988367237,-11.49806199,-0.05047525,1.71864784,-0.13246526,0.02318486,-0.02323161,0.73036919,-0.07222305,-0.67921465,-0.00348186
1757988367248,5.12570352,-0.70852887,-0.38138171,-0.15885514,0.05056138,-0.06782680,0.73054048,-0.07310470,-0.67893404,-0.00385830
1757988367271,-11.35321436,0.81003351,1.29983703,-0.08001018,0.03185771,-0.04500875,0.73078738,-0.07403281,-0.67856449,-0.00438040
1757988367281,78.64600134,-7.11261511,-7.22803992,-0.26422528,0.16255984,-0.12884428,0.73142671,-0.07540679,-0.67771918,-0.00505039
1757988367293,-47.34010747,4.52597756,5.12573379,-0.13199634,0.10111915,-0.02241073,0.73188155,-0.07615916,-0.67714280,-0.00517813
1757988367314,-12.69231632,0.91155319,1.12215063,-0.06299602,0.05989285,0.00619146,0.73240645,-0.07683637,-0.67649895,-0.00511157
1757988367326,62.16104661,-7.80360988,-2.97509795,-0.14387093,0.24568085,0.00339681,0.73368505,-0.07770679,-0.67501258,-0.00509102
1757988367361,-22.01420131,2.57331449,1.52570410,-0.03639631,0.07558336,-0.01716314,0.73481043,-0.07833281,-0.67371255,-0.00538623
1757988367371,169.82014035,-14.61255563,-0.39597189,-0.28794054,0.59821746,-0.04437828,0.73753941,-0.07985889,-0.67054200,-0.00562143
1757988367416,-39.36090676,3.47736597,0.54148198,0.01656484,0.11277780,-0.00746466,0.73986695,-0.07948784,-0.66801577,-0.00578864
1757988367427,158.96226345,-13.09546613,12.88463246,0.45395886,0.54237934,-0.17516035,0.74275125,-0.07703646,-0.66508692,-0.00673451
1757988367462,-46.02477578,3.88176967,-2.98350091,0.15252815,0.08072224,0.02319344,0.74430634,-0.07433671,-0.66365814,-0.00632398
1757988367494,1.08592792,-0.35427145,0.68129316,0.12723593,0.10448395,0.06368702,0.74599109,-0.07231366,-0.66199685,-0.00531136
1757988367527,11.96378422,-1.03499258,2.44069113,0.20666136,0.22959082,0.11792891,0.74970135,-0.06887275,-0.65817416,-0.00334784
1757988367560,-4.38289512,4.32426606,-0.58794800,0.09170862,0.23985275,0.09768589,0.75324544,-0.06738249,-0.65427655,-0.00176045
1757988367600,-8.51692136,-0.02179289,-1.33528497,0.05377466,0.10334733,0.04154218,0.75514194,-0.06630162,-0.65219927,-0.00092545
1757988367631,18.21233327,5.11859737,4.19877649,0.16440769,0.31878455,0.19993772,0.75959709,-0.06375330,-0.64725811,0.00217359
1757988367661,-9.77143569,-2.97886692,-1.94205521,0.33500145,0.08213367,0.02907913,0.76101961,-0.05882878,-0.64605075,0.00260105
1757988367693,-0.11891441,-1.22801415,0.38007604,0.24933018,0.06262484,0.07047950,0.76217607,-0.05478963,-0.64503622,0.00374282
1757988367716,10.83967886,-0.30113872,1.95347796,0.49011289,0.04359261,0.32828153,0.76294643,-0.04922684,-0.64454145,0.00746881
1757988367738,-13.15033358,-2.58089625,-3.09331199,0.32332337,-0.02970633,0.17766838,0.76286826,-0.04560562,-0.64487416,0.00945870
1757988367760,-2.53070199,-1.14695905,-1.26114158,0.14667265,-0.01071221,0.05834339,0.76285530,-0.04400689,-0.64499092,0.01009464
1757988367783,-8.83873879,-0.18998116,-2.15445800,-0.01246162,0.00702434,-0.02683120,0.76291989,-0.04415145,-0.64490944,0.00978340
1757988367805,6.48237157,-0.38728591,1.00533391,-0.07028088,0.03326169,-0.09596120,0.76318919,-0.04490345,-0.64455354,0.00875661
1757988367815,57.64298611,-1.23012021,7.29322621,-0.24490130,0.07198081,-0.43613000,0.76345927,-0.04621367,-0.64416844,0.00642332
1757988367828,-42.54189858,1.82347801,-6.69900138,-0.12396287,0.04475056,-0.24662327,0.76366405,-0.04700704,-0.64388204,0.00484493
1757988367838,6.36303502,0.48123089,-0.05455094,-0.09371389,0.04124527,-0.24930780,0.76381881,-0.04748498,-0.64367169,0.00357346
1757988367850,-13.23692470,-0.33378594,-1.48446650,-0.01625041,0.03939650,-0.12135887,0.76401656,-0.04758329,-0.64343334,0.00283924
1757988367861,-1.37176364,-0.25215573,-0.49134184,-0.01082212,0.03819234,-0.09566383,0.76418831,-0.04764173,-0.64322710,0.00232265
1757988367883,-10.74106877,0.13258866,-1.24951376,-0.00482999,0.02313056,-0.06401047,0.76440379,-0.04769559,-0.64296919,0.00160894
1757988367894,44.50583670,-0.22949390,3.32176249,-0.10139146,0.04094261,-0.21822392,0.76455130,-0.04822282,-0.64275629,0.00047417
1757988367929,-15.10629240,0.15742399,-1.28780305,-0.02947898,0.00866064,-0.02843955,0.76464640,-0.04874018,-0.64260430,-0.00002494
1757988367952,25.04905794,0.20592759,1.75572947,-0.07141697,-0.01744698,-0.11850402,0.76441781,-0.04958290,-0.64281017,-0.00142329
1757988367972,-9.87227894,0.03688732,-1.48070204,0.03150717,-0.09684061,-0.00898103,0.76362662,-0.04926940,-0.64377374,-0.00151265
1757988367984,35.97202115,-1.52836179,-0.79217801,0.01810176,-0.25285210,0.04418176,0.76244827,-0.04916894,-0.64517706,-0.00126744
1757988368006,-21.66215902,0.24070602,-0.52739780,-0.06845746,-0.12829459,-0.00668532,0.76116299,-0.04994593,-0.64663321,-0.00134332
1757988368017,15.83037167,-0.53870146,-1.33778748,0.00873207,-0.19637916,0.00915137,0.76031402,-0.04990139,-0.64763474,-0.00129665
1757988368039,-10.62466787,0.16958743,-0.17783419,0.00715025,-0.10778836,0.01126792,0.75925744,-0.04981881,-0.64887970,-0.00116650
1757988368061,-3.89769852,0.06887784,0.00296852,0.02114372,-0.08059727,0.01005963,0.75853117,-0.04959151,-0.64974612,-0.00105836
1757988368072,29.18900554,-1.89020539,-2.81465084,0.04784717,-0.19773635,-0.00302628,0.75760706,-0.04932596,-0.65084356,-0.00107516
1757988368095,-13.47731780,0.40183654,0.86307367,-0.01134526,-0.10057660,-0.03831679,0.75662449,-0.04945360,-0.65197504,-0.00150622
1757988368134,-1.14360153,0.03708572,-0.06260310,0.00268440,-0.07953634,-0.00634592,0.75527814,-0.04940085,-0.65353793,-0.00163092
1757988368165,10.91167134,-0.74543789,-2.53464533,0.13516326,-0.21325598,0.10389018,0.75256828,-0.04732609,-0.65681141,-0.00003620
1757988368184,3.51859373,2.31656134,-2.45588338,0.11066869,-0.29497402,0.00620240,0.75011581,-0.04624707,-0.65968741,0.00002427
1757988368206,-12.88153881,1.80958083,1.87748669,0.49302242,-0.18259723,0.32251337,0.74866512,-0.04087313,-0.66167772,0.00353966
1757988368228,-1.45437139,-0.04410084,-0.68780379,0.30454391,-0.14464842,0.20989511,0.74742852,-0.03755360,-0.66325438,0.00582752
1757988368239,2.08730764,2.05120436,-2.83070342,0.35692394,-0.13034497,0.26142723,0.74683976,-0.03546559,-0.66401690,0.00735687
1757988368262,-8.50361534,-0.92200507,3.45578531,0.18616862,-0.04883806,0.24727025,0.74642065,-0.03339912,-0.66455901,0.01010157
1757988368272,18.61359075,8.51917831,-11.77161352,0.77544987,-0.05554304,0.86532876,0.74626030,-0.02940556,-0.66484505,0.01455801
1757988368295,-9.14484869,-2.92466095,5.01238769,0.49465935,0.01133555,0.45293699,0.74645769,-0.02376644,-0.66471583,0.01972149
1757988368307,23.72317147,10.46563531,-17.32806800,1.40665063,0.08644716,1.39596644,0.74687201,-0.01532654,-0.66419714,0.02809729
1757988368318,-6.17792722,-3.41978844,1.86493827,1.13520312,0.10271906,1.13523283,0.74722306,-0.00891264,-0.66361678,0.03451136
1757988368328,-1.75378208,-0.59667472,-2.10269311,1.13872718,0.11985465,1.08793662,0.74752483,-0.00333287,-0.66302949,0.03984225
1757988368340,-10.06526539,-3.26127354,7.72932270,0.66703142,0.12848102,0.66060613,0.74799713,0.00070267,-0.66225218,0.04383892
1757988368352,0.51939551,-0.63996302,0.15051128,0.68979320,0.13426156,0.67520654,0.74843893,0.00477245,-0.66146004,0.04782263
1757988368374,-4.99650468,-2.20985285,4.30318805,0.37015995,0.07272226,0.33724818,0.74887487,0.00897376,-0.66063464,0.05165040
1757988368410,-0.29572314,-0.08905497,0.19903917,0.32646478,0.04113267,0.27650198,0.74907302,0.01480116,-0.65990042,0.05658596
1757988368412,1710.72691885,652.15408363,-1722.50475912,9.09411597,0.49113657,7.55259427,0.74861050,0.02480468,-0.65936017,0.06489382
1757988368455,-87.71713201,-33.70347147,87.99301984,0.09592674,-0.00453166,0.14318767,0.74818223,0.02685752,-0.65945715,0.06795803
1757988368486,2.20658266,0.97117403,-2.40711728,0.16927615,0.00883450,0.26666464,0.74782087,0.02945591,-0.65932154,0.07205133
1757988368529,0.91789611,-0.24336210,-1.31891587,0.22496968,0.00748844,0.28967063,0.74712523,0.03432650,-0.65915942,0.07832270
1757988368564,1.04112933,-0.72287719,-1.26386015,0.06334072,0.02071934,0.19737059,0.74702258,0.03544130,-0.65879476,0.08179643
1757988368596,-0.95614030,-0.50954706,1.00447680,0.18655871,0.02670119,0.22064304,0.74685897,0.03838892,-0.65837288,0.08528259
1757988368608,31.54583120,2.73314691,-36.60995683,0.17625350,0.02601460,0.28860184,0.74674270,0.03943763,-0.65821809,0.08699977
1757988368642,-13.87061500,-1.27756557,16.03363144,0.05948624,0.01075014,0.03127942,0.74678740,0.04044592,-0.65803588,0.08752995
1757988368663,2.24590600,0.12902140,-2.53696058,0.06464643,-0.05005713,0.11269394,0.74613793,0.04113441,-0.65856898,0.08873014
1757988368703,-2.26304671,-0.24646681,2.56959483,-0.01004535,-0.02293801,0.05518405,0.74560508,0.04093099,-0.65903348,0.08984762
1757988368742,1.12261798,0.30004838,-1.29286491,-0.10164792,-0.02637471,0.03599048,0.74517818,0.03897935,-0.65953987,0.09053864
1757988368774,1.69584812,-0.01091598,-1.68536102,-0.05285180,-0.08660734,0.01306195,0.74397536,0.03813901,-0.66091693,0.09074632
1757988368808,-2.32001218,-0.29450095,2.00332286,-0.02856786,-0.05149324,-0.03419335,0.74328826,0.03765050,-0.66179746,0.09016162
1757988368852,-1.04249578,-0.05918125,1.19348626,-0.02353902,-0.00884340,0.00020008,0.74313816,0.03712440,-0.66199511,0.09016609
1757988368865,15.43581529,-1.40627599,-24.71764962,-0.23046390,-0.05602812,-0.03309220,0.74293219,0.03575314,-0.66232848,0.08996919
1757988368896,-6.62889244,0.53120552,9.93943261,-0.02245069,-0.00001944,-0.01998841,0.74298656,0.03540178,-0.66232879,0.08965637
1757988368960,-0.39099758,0.00609488,0.72633202,0.02794741,-0.00082403,-0.01072299,0.74296103,0.03630309,-0.66235536,0.08931055
1757988368994,0.29936059,-0.48236634,-1.88025350,-0.08077109,-0.05722440,-0.14398754,0.74245355,0.03494210,-0.66331959,0.08688436
1757988369028,-1.10373360,0.50050995,1.34542890,0.00474334,-0.09562307,-0.12304436,0.74121850,0.03502392,-0.66496909,0.08476185
1757988369061,-0.78669873,-0.22855457,0.25903753,0.02811294,-0.10041253,-0.07084105,0.73986901,0.03547794,-0.66659075,0.08361777
1757988369107,0.06829863,0.15224677,0.32201598,0.02926525,-0.06167108,-0.01728371,0.73860638,0.03614812,-0.66800302,0.08322197
1757988369113,-43.90054196,8.26775888,-22.62508330,0.55715248,-0.33715702,0.17466648,0.73738774,0.03807029,-0.66916621,0.08382457
1757988369157,6.70239916,-0.95768880,3.54131611,0.06550948,-0.03314270,0.08343434,0.73643832,0.03951150,-0.66989535,0.08566012
1757988369203,0.25018359,-0.05776642,0.09447964,0.07270638,-0.02544970,0.07768801,0.73560537,0.04118011,-0.67047942,0.08744306
1757988369241,-0.16113834,-0.11565246,-0.09460130,0.06018926,-0.02506874,0.07107048,0.73495459,0.04230565,-0.67094821,0.08877208
1757988369257,-4.16064008,2.13901124,-2.40306444,0.31238319,0.03646943,0.19282826,0.73488151,0.04491405,-0.67064369,0.09038220
1757988369279,3.24249496,-2.08492127,1.94486934,0.13289542,0.02886112,0.01631074,0.73505746,0.04636926,-0.67032766,0.09056080
1757988369335,0.40728289,0.00460317,0.21842917,0.00719178,0.01386558,-0.02045814,0.73546817,0.04657027,-0.66994012,0.08998899
1757988369347,-6.14844695,0.58806155,-3.29187936,0.19330961,0.12808283,-0.26370303,0.73625099,0.04768180,-0.66920364,0.08847270
1757988369381,2.04722357,-0.19162124,1.14050419,0.04715863,0.02276294,-0.02622203,0.73660050,0.04847642,-0.66882008,0.08803086
1757988369415,0.03780902,0.02321104,0.08663560,0.00500331,0.02224668,-0.05221568,0.73705142,0.04856298,-0.66843522,0.08712753
1757988369425,-3.42173231,-0.28113265,-0.23147760,0.17433339,0.06466210,-0.12813363,0.73737129,0.04946079,-0.66810221,0.08646764
1757988369494,0.63534190,0.04870546,0.06040945,0.01070335,-0.00035554,-0.02633619,0.73744140,0.04983060,-0.66811449,0.08555773
1757988369526,-0.33965285,0.10510269,0.22354565,-0.02355846,-0.03727964,-0.08797914,0.73708913,0.04945484,-0.66870910,0.08415446
1757988369561,0.21144747,-0.28275947,0.02844421,-0.03979945,-0.06380858,-0.08580499,0.73630941,0.04877427,-0.66980023,0.08268719
1757988369597,0.09122505,-0.02008587,0.03026013,-0.05620805,-0.05137622,-0.05337375,0.73562411,0.04773723,-0.67074812,0.08170245
1757988369634,0.14256043,-0.03683886,-0.02626753,0.00118141,-0.05545639,-0.02767365,0.73474982,0.04775891,-0.67176574,0.08119464
1757988369668,0.09966774,0.00434374,0.10065977,-0.07776240,-0.04775449,-0.06354168,0.73421504,0.04644861,-0.67257041,0.08012396
1757988369701,0.32492505,0.08512120,-0.00384228,-0.06861943,-0.08607136,-0.12540072,0.73319952,0.04530953,-0.67399919,0.07804231
1757988369733,0.71506346,-0.39165528,-0.09979845,-0.15648327,-0.08992759,-0.12214248,0.73222149,0.04278232,-0.67545152,0.07606971
1757988369770,-0.17937765,-0.30912765,-0.17775233,-0.27449252,-0.09687595,-0.19188643,0.73121876,0.03777284,-0.67721951,0.07256778
1757988369801,0.73751826,-0.47002710,-0.04768391,-0.44844421,-0.13458278,-0.39575039,0.73019916,0.03086679,-0.67929208,0.06647322
1757988369821,1.87973224,-0.39375288,0.32169682,-0.47964238,-0.25960576,-0.44940396,0.72829373,0.02590250,-0.68197900,0.06182189
1757988369877,-0.95487421,0.39297467,-0.10648608,-0.23053971,-0.10785031,-0.18598904,0.72608075,0.01944738,-0.68499881,0.05661420
1757988369887,24.55337518,-16.67507122,2.33780561,-1.54379251,-0.75903167,-1.21695731,0.72319082,0.01195999,-0.68868011,0.05071196
1757988369921,-6.01724107,4.37522412,-0.47996901,-0.29872260,-0.16576013,-0.17925864,0.72075682,0.00685183,-0.69151461,0.04764663
1757988369977,-0.70622633,0.35965393,-0.02444772,-0.18402643,-0.05775454,-0.09093236,0.71940154,0.00171750,-0.69312596,0.04510962
1757988369988,14.65935215,-8.44475530,2.95787060,-0.92099598,-0.33385139,-0.56158417,0.71782435,-0.00330193,-0.69494545,0.04204899
1757988370022,-4.27682735,2.64834844,-0.82080270,-0.20418609,-0.08980083,-0.15219117,0.71647006,-0.00676289,-0.69646758,0.03946935
1757988370033,6.63480918,-4.96488122,1.73733625,-0.68886565,-0.24645229,-0.40370349,0.71516571,-0.01072386,-0.69788468,0.03714805
1757988370055,-2.75834654,1.62927567,-0.56975553,-0.41181046,-0.11095409,-0.24939624,0.71406460,-0.01510964,-0.69906634,0.03449198
1757988370078,-0.14610615,0.90457027,-0.10096612,-0.27099742,-0.12073312,-0.20109081,0.71273796,-0.01822612,-0.70045477,0.03217944
1757988370088,3.00683808,-0.19239890,0.65870240,-0.15021832,-0.20315440,-0.18174337,0.71177877,-0.01896219,-0.70145023,0.03128889
1757988370100,-2.40688374,0.32902340,-0.30887876,-0.13072774,-0.13223728,-0.13077765,0.71097014,-0.01978577,-0.70228332,0.03046500
1757988370121,-1.39926760,0.34044385,-0.43293477,-0.07119823,-0.05875797,-0.06713577,0.71035738,-0.02054759,-0.70291203,0.02974664
1757988370132,2.27408012,-1.18646712,0.65149789,-0.15509683,-0.10045064,-0.15735457,0.70984037,-0.02136960,-0.70344442,0.02891266
1757988370144,-0.55124617,0.36235198,-0.14235262,-0.13525319,-0.07685092,-0.13078027,0.70938222,-0.02219465,-0.70391321,0.02811490
1757988370167,-1.06475209,0.61106974,-0.27675397,-0.07385121,-0.03890653,-0.07363086,0.70895159,-0.02302917,-0.70435286,0.02728288
1757988370178,8.98778234,-2.05652484,1.78627346,-0.22695006,-0.21403585,-0.31624990,0.70782425,-0.02425470,-0.70550865,0.02557513
1757988370189,-5.04131617,1.82538808,-1.36715661,-0.03197256,-0.08759866,-0.10573225,0.70732452,-0.02444334,-0.70602548,0.02495131
1757988370200,0.02262448,-0.19406401,-0.18366505,-0.05294351,-0.08780264,-0.10130249,0.70686440,-0.02472658,-0.70649523,0.02440934
1757988370211,-1.02818127,-0.18734337,-0.32878082,-0.07266353,-0.07147138,-0.08956276,0.70647404,-0.02512623,-0.70688832,0.02391674
1757988370222,-0.08944997,0.18171906,-0.01150071,-0.10596545,-0.05748158,-0.09948831,0.70616944,-0.02568255,-0.70719010,0.02339443
1757988370233,-0.47826534,0.25307505,-0.06379525,-0.09212572,-0.03479485,-0.07934932,0.70596095,-0.02622149,-0.70739365,0.02293023
1757988370244,0.74404924,-0.00874058,-0.39881609,-0.09097924,-0.03649379,-0.07084764,0.70576111,-0.02670368,-0.70758706,0.02255474
1757988370255,-0.07660126,0.35464835,-0.47862810,-0.04909313,-0.02033878,-0.04998585,0.70564326,-0.02698351,-0.70770299,0.02226982
1757988370266,0.38456881,0.12998830,-0.15591258,-0.02455385,-0.01953280,-0.02172775,0.70553508,-0.02711733,-0.70780945,0.02215141
1757988370278,-0.28892714,0.39853776,-0.12781375,-0.01456457,0.00236379,0.00965526,0.70554390,-0.02720253,-0.70779562,0.02220789
1757988370289,0.08617942,-0.04531273,0.08477830,-0.01326202,0.01852001,0.02873001,0.70563998,-0.02727680,-0.70769191,0.02236878
1757988370300,0.46435877,-0.29820865,-0.41183186,-0.01074750,0.02646222,0.00475111,0.70577760,-0.02733376,-0.70755166,0.02239396
1757988370312,-0.81147501,-0.25165415,0.12214353,-0.02462151,0.03915567,-0.01180884,0.70600376,-0.02747779,-0.70732260,0.02232488
1757988370322,0.70291294,0.83603236,-0.65121489,-0.00916424,0.05191970,-0.06422364,0.70628009,-0.02752499,-0.70705521,0.02199413
1757988370333,-0.15816756,0.06725077,0.09057202,-0.01874647,0.03248722,-0.03007344,0.70646166,-0.02762903,-0.70687491,0.02182722
1757988370345,0.03360592,0.23906848,-0.08487621,0.00506988,0.02226233,-0.02212053,0.70660056,-0.02759861,-0.70674133,0.02169449
1757988370367,-1.12886731,-0.18166796,0.49433117,0.00931254,0.01846408,0.00360016,0.70680923,-0.02749478,-0.70653546,0.02173464
1757988370405,0.20566667,-0.00177622,-0.09793128,0.00692688,0.01750166,0.01403994,0.70714093,-0.02736213,-0.70620030,0.02200350
1757988370435,1.33880989,0.06959327,-0.47284034,0.03140831,0.03912490,0.01188685,0.70772907,-0.02689886,-0.70562321,0.02217883
1757988370455,1.92768765,0.14999178,-0.69029943,0.05176171,0.03730136,0.03577950,0.70811465,-0.02637348,-0.70524460,0.02254199
1757988370468,1.65927209,-0.71958795,-1.31936193,0.06800817,0.03226398,0.06105110,0.70831561,-0.02595522,-0.70504618,0.02291746
1757988370488,-2.53444654,-0.10568580,0.86736731,-0.03738056,0.01591765,-0.02009512,0.70847198,-0.02634211,-0.70488143,0.02270947
1757988370522,-0.67795656,0.13692179,0.48077933,-0.01883896,0.01804103,-0.00631460,0.70876496,-0.02665861,-0.70457834,0.02260339
1757988370533,12.07101097,-0.14632156,-3.78348920,0.14015600,0.04599404,0.11035315,0.70903710,-0.02585271,-0.70431387,0.02323792
1757988370545,-5.63407866,-0.30431078,1.16319040,0.07251541,0.04285579,-0.04846383,0.70931762,-0.02541762,-0.70405674,0.02294714
1757988370567,-1.91538689,-0.09323712,0.77243946,-0.02319337,0.03207225,-0.03892450,0.70967054,-0.02567159,-0.70370555,0.02252091
1757988370589,-1.39737417,0.08652420,0.49101969,-0.02694874,0.03004174,-0.03839791,0.70999906,-0.02596667,-0.70337659,0.02210046
1757988370601,8.32457573,-0.56051678,-3.54271767,-0.06616854,0.05312135,-0.09214276,0.71030116,-0.02634384,-0.70307380,0.02157524
1757988370624,-3.31115047,0.27467376,1.45207429,-0.02247677,0.01725676,-0.02829657,0.71049686,-0.02660119,-0.70287621,0.02125125
1757988370634,21.13395383,-1.37422730,-7.96173858,0.06070770,0.00420802,-0.09564873,0.71054312,-0.02629766,-0.70285517,0.02077300
1757988370657,-9.23687067,0.58048244,3.51716632,0.01146082,0.00135371,-0.00907141,0.71056703,-0.02616242,-0.70283920,0.02066596
1757988370668,16.73321713,-2.88173840,-6.27412737,0.00899869,0.01785956,-0.04136027,0.71067162,-0.02611338,-0.70274186,0.02044055
1757988370679,-8.35824423,1.11979998,3.04664290,-0.02785045,0.01185600,-0.04336808,0.71073727,-0.02626655,-0.70267665,0.02020202
1757988370701,-3.91124230,0.56839812,1.40582937,-0.03164354,0.00914298,-0.03135581,0.71083390,-0.02661621,-0.70257562,0.01985554
1757988370724,2.10970382,-0.31555067,-0.76048295,-0.02779382,0.01287457,-0.07011628,0.71098684,-0.02692889,-0.70243078,0.01906673
1757988370734,18.65642717,-2.13604179,-6.62424112,0.00647009,-0.01542050,-0.18811985,0.71093189,-0.02689363,-0.70251483,0.01804148
1757988370745,-12.62829828,1.14483460,4.56478969,0.03861571,-0.01466606,-0.09741500,0.71087411,-0.02668318,-0.70259476,0.01751057
1757988370757,-2.63741119,0.10126314,0.92698402,-0.01718637,-0.01306292,-0.08067599,0.71080510,-0.02678544,-0.70267248,0.01703055
1757988370780,-3.54037311,0.64338853,1.40846843,-0.02321971,-0.00324550,-0.04413754,0.71077053,-0.02704898,-0.70270932,0.01652958
1757988370813,-0.19255652,0.03367070,0.09235203,-0.02339863,-0.00993164,-0.05402502,0.71061433,-0.02743389,-0.70287269,0.01564087
1757988370824,45.05926517,-8.50020651,-11.42265608,-0.05346194,-0.23788397,-0.49162229,0.70939525,-0.02771991,-0.70414537,0.01301069
1757988370856,-12.92125656,2.74382046,3.77273204,0.02863620,-0.11428510,-0.08901445,0.70756793,-0.02724884,-0.70602536,0.01154641
1757988370867,24.61166802,-4.25056886,-0.25411591,0.18608460,-0.49300627,-0.12243624,0.70490142,-0.02622538,-0.70873690,0.01087301
1757988370903,-8.92795838,1.33855732,0.69334464,-0.00491821,-0.11343850,-0.03786635,0.70289510,-0.02631194,-0.71073341,0.01020656
1757988370923,9.93282865,-0.72041522,0.81862547,-0.05470847,-0.44793887,-0.14327321,0.69817464,-0.02687817,-0.71536958,0.00872368
1757988370953,-3.99555227,0.42561324,0.50806088,-0.01474532,-0.30191804,-0.05173282,0.69363007,-0.02709345,-0.71977758,0.00796838
1757988370986,1.39431847,0.01792784,0.77533034,-0.13393220,-0.41608604,-0.11037070,0.68616208,-0.02936360,-0.72683024,0.00609760
1757988371016,1.00149635,0.44779206,1.21060902,-0.11351941,-0.50551113,-0.16729960,0.67798207,-0.03106639,-0.73441291,0.00358810
1757988371057,-1.66993706,-0.42352214,-0.04160506,-0.03017701,-0.42840339,-0.13083967,0.66832340,-0.03168502,-0.74319518,0.00090589
1757988371116,-0.28300546,0.04668480,0.16058911,0.01499143,-0.35128072,-0.07599760,0.65665740,-0.03124353,-0.75354040,-0.00133224
1757988371146,9.05075420,-1.94281677,7.55566455,0.16981476,-0.86503684,-0.12896783,0.64178078,-0.02873027,-0.76634294,-0.00324096
1757988371180,-5.32433611,0.68548721,-2.74639343,-0.04603805,-0.48139348,-0.13572751,0.63188740,-0.02950831,-0.77447849,-0.00553476
1757988371203,2.74515157,0.28843652,5.66703089,-0.04273191,-0.60597105,-0.13715570,0.62328559,-0.02999545,-0.78138656,-0.00709833
1757988371235,-3.89185565,-0.13044827,-3.54458863,-0.03930926,-0.37381119,-0.10305345,0.61551614,-0.03063619,-0.78747968,-0.00877810
1757988371258,0.33070711,0.26970850,2.16034546,-0.12026151,-0.41445952,-0.14002414,0.60930004,-0.03201319,-0.79222525,-0.01038138
1757988371280,-0.92925057,0.41218426,1.03058592,-0.06371830,-0.41265858,-0.09163204,0.60326878,-0.03271728,-0.79678512,-0.01139391
1757988371292,2.52690371,-1.47090581,8.24858660,-0.08043072,-0.54722104,-0.15013288,0.59904777,-0.03317975,-0.79993164,-0.01225718
1757988371302,0.62008105,-0.59124393,0.95397989,-0.03641711,-0.57122601,-0.23351961,0.59498493,-0.03337094,-0.80293058,-0.01348316
1757988371326,-5.78795220,1.34739059,-10.36765450,-0.00569130,-0.23742926,-0.08802891,0.59114066,-0.03343838,-0.80574412,-0.01452630
1757988371347,0.45364345,-0.14734462,1.99548363,-0.01727836,-0.28960377,-0.11495363,0.58683111,-0.03362413,-0.80885736,-0.01576205
1757988371358,24.53029074,-6.40062813,73.95183884,-0.03680099,-1.27581658,-0.47715918,0.57749211,-0.03381549,-0.81549160,-0.01824328
1757988371381,-11.32150600,3.31271724,-32.31203415,0.03318834,-0.29905775,-0.07626821,0.57253420,-0.03342885,-0.81897563,-0.01913180
1757988371392,12.03339075,-2.09752341,54.03023074,0.23916505,-1.10071844,-0.33045601,0.56370676,-0.03210148,-0.82508461,-0.02096583
1757988371414,-7.37495313,1.46642422,-26.45654090,0.11104692,-0.37155636,-0.14203341,0.55782350,-0.03090773,-0.82907884,-0.02249269
1757988371425,4.53486800,2.48482467,30.78120131,0.11650005,-0.90013409,-0.48271412,0.54990041,-0.03023203,-0.83429962,-0.02529243
1757988371448,-2.27183913,0.86754200,-12.88484683,0.05531430,-0.44805318,-0.27515768,0.54212713,-0.02961527,-0.83929542,-0.02836044
1757988371458,9.07589188,16.68355047,79.85667711,0.96325124,-1.65981103,-0.26229896,0.52910218,-0.02475085,-0.84767746,-0.02968505
1757988371480,-5.75804795,-6.43776989,-37.39280873,0.41508048,-0.48607434,0.04419702,0.52046812,-0.02008120,-0.85314580,-0.02918784
1757988371491,0.00324643,11.39310797,59.08932315,1.08311100,-1.53391006,0.21191443,0.50677532,-0.01417824,-0.86150561,-0.02803290
1757988371515,-0.59783885,-5.47734566,-28.86907693,0.30736116,-0.44154191,0.03838068,0.49792743,-0.01055138,-0.86671580,-0.02758001
1757988371525,-4.85868120,16.11508076,70.70012359,1.11256507,-1.60050377,0.09310325,0.48327100,-0.00476604,-0.87503842,-0.02709587
1757988371536,0.37662917,-9.19289726,-39.54809581,0.56507343,-0.88416826,0.12490410,0.47417433,-0.00157338,-0.88003397,-0.02639016
1757988371548,0.69903661,-1.20615404,-5.71302413,0.44333325,-0.76319707,0.13079408,0.46576517,0.00104229,-0.88453683,-0.02561848
1757988371559,0.31980944,-0.34476304,-1.63104128,0.34894374,-0.74665303,0.13916870,0.45784310,0.00297893,-0.88868076,-0.02484609
1757988371570,-0.87072219,-1.04576313,1.89952472,0.37789428,-0.75817486,0.22930115,0.44970631,0.00505734,-0.89285072,-0.02358494
1757988371593,1.00561905,-2.38930500,-11.43744402,0.18788955,-0.35940029,0.11399878,0.44155197,0.00718989,-0.89692991,-0.02229105
1757988371625,-0.60211030,0.06178453,0.48652937,0.13339936,-0.37831951,0.03831471,0.42902771,0.00932428,-0.90298303,-0.02167802
1757988371636,-21.81755347,7.67330621,103.00799500,0.48037461,-2.26695710,-0.15471553,0.40031936,0.01208643,-0.91601803,-0.02256763
1757988371659,8.37010525,-4.89204965,-43.05181380,0.15589594,-0.71765475,-0.04467357,0.38087304,0.01387144,-0.92423518,-0.02307914
1757988371670,-7.35795322,-2.16040087,10.46689560,0.54675575,-0.94123482,-0.03961344,0.36888145,0.01665990,-0.92903547,-0.02328117
1757988371692,3.96625081,-0.14177027,-14.29079444,0.41136197,-0.41548591,0.00925136,0.35647849,0.02134942,-0.93377201,-0.02317571
1757988371696,-141.06256912,-0.92520351,328.44761667,1.92323498,-2.79156219,0.52325311,0.34246879,0.02490741,-0.93893640,-0.02220769
1757988371737,13.10961851,0.26187861,-31.61327124,0.01579437,-0.32161462,0.13324918,0.32415858,0.02522803,-0.94546518,-0.01950273
1757988371749,-39.87421586,-2.69061867,65.89444903,0.02224451,-1.89323147,0.75388513,0.28792132,0.02536595,-0.95720322,-0.01482864
1757988371793,10.40191637,0.65936398,-18.18884489,0.06028135,-0.31252793,0.10449232,0.26386023,0.02669817,-0.96411008,-0.01251936
1757988371815,-10.51010090,-0.73065671,12.75356460,0.00072981,-0.80716583,0.09437623,0.22969815,0.02670605,-0.97282747,-0.01150010
1757988371826,-9.82671170,0.18048244,6.88163303,-0.03681390,-0.87569090,-0.12625186,0.20802845,0.02650173,-0.97768756,-0.01220080
1757988371873,7.35371715,0.70868653,-8.83418572,0.02272713,-0.17782084,-0.06392845,0.18732378,0.02703127,-0.98183078,-0.01369033
1757988371884,-60.21218004,11.65737987,56.27486418,0.11226313,-1.18444758,0.00650603,0.14669170,0.02768240,-0.98870058,-0.01365259
1757988371940,12.66955645,-2.36832033,-12.28913342,0.01137971,-0.11417239,-0.00397724,0.12338087,0.02799819,-0.99186886,-0.01376296
1757988371971,-6.16339382,0.81550472,4.81642536,0.04863105,-0.27789246,0.07946835,0.08188238,0.02874711,-0.99614841,-0.01253915
1757988371993,-1.74730726,-1.78487327,0.76771194,0.00477177,-0.20150208,0.16805155,0.04673428,0.02880127,-0.99843546,-0.01063176
1757988372026,5.42373495,-0.40308009,-3.94114484,-0.00604494,-0.04971073,-0.00672984,0.02363914,0.02870213,-0.99925071,-0.01074213
1757988372037,-18.85813586,-0.44024957,18.15448627,-10.42673593,363.41392783,3.88311438,-0.00384493,-0.02864492,0.99952589,0.01061500
1757988372060,9.61194318,0.75556485,-6.27837384,-0.01267070,-0.01020129,-0.03418349,0.01571860,-0.02878936,0.99940960,0.01022530
1757988372082,0.26325017,-0.48536802,0.51559430,0.06373584,-0.04001150,0.03039000,0.03393014,-0.02809464,0.99897347,0.01055655
1757988372093,-3.07545230,-0.74989046,2.26188671,0.01093534,-0.07824394,0.10563001,0.04508375,-0.02803231,0.99852748,0.01115865
1757988372104,1.49689831,-0.33939121,-2.26200744,-0.02020688,-0.08769308,0.17317811,0.05485921,-0.02814850,0.99802325,0.01215442
1757988372138,3.23045895,0.38574119,-3.89247101,-0.00783337,-0.03295309,0.05867147,0.06373992,-0.02827775,0.99747952,0.01312250
1757988372149,-20.96703227,-5.78186900,29.25730135,0.03068834,-0.28778065,0.41403511,0.08611256,-0.02809516,0.99576722,0.01558601
1757988372160,13.14437319,3.37033649,-15.26668633,0.00681926,-0.19492939,0.14495392,0.09740455,-0.02805833,0.99471461,0.01636876
1757988372171,1.54514435,0.93221452,-1.85706506,0.00525164,-0.19812282,0.20547843,0.10787482,-0.02802919,0.99361502,0.01750916
1757988372194,2.98197114,0.60282711,-4.82157449,0.00723466,-0.10732824,0.07571597,0.11840405,-0.02794744,0.99240222,0.01836476
1757988372204,-4.87196923,-2.96046421,10.89816296,0.00603892,-0.22822210,0.16106353,0.12775582,-0.02791633,0.99122687,0.01919423
1757988372216,1.78448213,-0.24418014,-2.42626609,0.00998094,-0.21228814,0.15640076,0.13685231,-0.02785845,0.98999560,0.02010136
1757988372251,1.85628558,0.96361855,-3.69671086,0.00677664,-0.07458420,0.06507153,0.14586964,-0.02773952,0.98868665,0.02124336
1757988372286,-2.29514724,-1.19817305,5.10017130,-0.03960364,-0.32915174,0.23498763,0.18009952,-0.02843456,0.98291003,0.02536740
1757988372330,0.24301626,-0.19826988,0.51881384,-0.03054940,-0.42089574,0.19156647,0.22387820,-0.02910054,0.97373451,0.02954354
1757988372350,-5.25748511,-4.00983267,16.95057531,-0.21614237,-1.06020048,0.37308516,0.26512504,-0.03126196,0.96313250,0.03327440
1757988372400,2.83831201,1.96859545,-7.57786522,0.01944690,-0.41723236,0.26297872,0.29977185,-0.03077481,0.95268083,0.03986201
1757988372431,-0.49825396,-0.86191238,4.45214801,-0.01823088,-0.64406367,0.36703551,0.32897161,-0.03105648,0.94273005,0.04553271
1757988372461,-0.14783495,0.25649014,1.71887804,-0.04335930,-0.73472619,0.33853166,0.35826147,-0.03170687,0.93170916,0.05061069
1757988372495,0.65400114,-0.84030497,-0.87605250,-0.01545072,-0.67789595,0.32834598,0.38610886,-0.03196953,0.92018492,0.05619257
1757988372527,-0.26345605,0.65535381,1.11361357,-0.22896500,-0.81855567,0.45430557,0.41477142,-0.03565587,0.90700618,0.06350689
1757988372539,-6.10252975,1.56224506,33.39165743,-0.38059387,-1.61714138,0.49206504,0.43456887,-0.03792040,0.89738419,0.06643467
1757988372587,2.39044772,0.76628073,-13.30845146,-0.10332662,-0.37881404,0.00141291,0.45279002,-0.04042091,0.88821689,0.06646887
1757988372619,-1.95733755,0.93091553,8.73492804,-0.05010246,-1.09914479,0.12473360,0.48579234,-0.04123257,0.87041074,0.06848955
1757988372641,-1.43592865,1.15628189,4.94180521,0.24943865,-1.29687740,-0.45884814,0.51047992,-0.03858852,0.85666384,0.06362576
1757988372685,1.92529137,-0.71558496,-8.85113378,0.04541350,-0.42965799,-0.04792866,0.52621741,-0.03758942,0.84721136,0.06257133
1757988372718,-2.21271809,0.59996557,6.31055672,0.14020529,-0.96247047,-0.10422941,0.55153017,-0.03525500,0.83118623,0.06083591
1757988372740,-1.86265949,-1.80736434,2.63634514,0.12647700,-1.18305089,-0.05996689,0.57072581,-0.03387008,0.81823182,0.06017927
1757988372762,1.21646723,-0.35260835,-8.09034849,0.05559079,-0.84602471,0.05108210,0.58370129,-0.03326414,0.80901015,0.06073607
1757988372806,0.81052242,0.08046741,-1.93566531,-0.00229016,-0.57109704,0.08731169,0.60060623,-0.03331475,0.79638891,0.06266566
1757988372828,-1.71994651,-1.91786306,1.73045105,-0.01796800,-0.79718518,0.16443584,0.61186183,-0.03351240,0.78761987,0.06447445
1757988372840,-8.77436359,-3.55644087,11.44909780,-0.10565140,-1.46161811,0.61509786,0.62282243,-0.03416216,0.77863092,0.06825730
