UnixTime(ms),Ax,Ay,Az,Gx,Gy,Gz,QuatW,QuatX,QuatY,QuatZ
1757980875102,0.00000000,0.00000000,0.00000000,0.00000000,0.00000000,0.00000000,0.99698551,0.05751936,-0.01476564,0.04993381
1757980875115,-0.11103563,0.02937072,-0.50001853,0.00212923,-0.00791950,0.00027990,0.99698387,0.05753309,-0.01481672,0.04993561
1757980875120,-0.63413242,0.03203937,-2.64015852,-0.01923879,-0.03483015,-0.01765626,0.99698785,0.05748115,-0.01491077,0.04988794
1757980875131,0.09230075,0.06333741,0.93472020,0.01224165,-0.00960999,0.00056897,0.99698337,0.05754358,-0.01495978,0.04989084
1757980875140,-0.08007886,-0.02714024,0.07289341,0.00640977,-0.01021717,0.00163563,0.99698065,0.05757243,-0.01500575,0.04989820
1757980875150,-0.05429296,-0.21893331,0.11400408,-0.00383093,-0.01322913,-0.00013772,0.99698080,0.05755155,-0.01507785,0.04989745
1757980875161,0.00432042,-0.49190892,0.07071753,-0.00983822,-0.00571408,-0.00143066,0.99698384,0.05749744,-0.01510928,0.04988958
1757980875173,-0.02880361,-0.00239310,0.12568535,-0.02980911,-0.00470847,0.00496716,0.99699166,0.05733051,-0.01513565,0.04991740
1757980875184,-0.01510901,0.12213762,0.09873982,-0.03088312,0.00015996,0.01029386,0.99699866,0.05715910,-0.01513476,0.04997453
1757980875195,-0.14899952,0.32799245,-0.05611670,-0.02209999,-0.00982001,0.00364545,0.99700384,0.05703645,-0.01518926,0.04999476
1757980875206,0.08091496,0.07609482,0.07939957,-0.02061536,0.01132086,0.00977568,0.99700865,0.05692100,-0.01512586,0.05004951
1757980875217,-0.11163734,0.03448551,-0.01819301,-0.00650435,-0.00756365,0.00380081,0.99700902,0.05688490,-0.01516784,0.05007060
1757980875228,-0.02612329,0.03192847,0.02322070,-0.00633775,-0.00224169,0.00283594,0.99701004,0.05684973,-0.01518028,0.05008634
1757980875239,0.01354541,0.02080188,0.05031153,-0.00663249,-0.00128487,0.00155637,0.99701160,0.05681292,-0.01518741,0.05009498
1757980875250,-0.11481583,0.01424103,-0.02589924,-0.00787549,-0.00437004,-0.00283006,0.99701448,0.05676960,-0.01521145,0.05007941
1757980875262,-0.12240240,0.03974968,-0.12824260,-0.00680923,-0.00886071,0.00162862,0.99701544,0.05673147,-0.01526107,0.05008853
1757980875273,-0.01428541,0.04425487,0.04584702,0.00175595,-0.01122861,0.00502680,0.99701255,0.05674113,-0.01532283,0.05011618
1757980875284,0.11571553,-0.03871295,0.19065331,0.00529742,-0.01396475,0.01246186,0.99700615,0.05677080,-0.01540103,0.05018597
1757980875295,0.04867947,0.02365361,0.27089502,-0.01032249,-0.02008115,0.00092119,0.99700741,0.05671402,-0.01551148,0.05019103
1757980875306,0.07478227,-0.10353404,0.05895497,-0.00075405,-0.01632884,0.01998580,0.99700058,0.05670980,-0.01560292,0.05030296
1757980875317,-0.03896350,0.06272172,0.07222502,-0.01907952,-0.01945513,0.03767336,0.99699428,0.05660295,-0.01571187,0.05051393
1757980875328,-0.08998887,0.08692214,-0.02107832,0.01620383,-0.01031147,0.00274239,0.99698749,0.05669289,-0.01576909,0.05052915
1757980875339,-0.01955313,0.10457773,-0.04530148,0.04372068,-0.01061505,0.02446771,0.99696603,0.05693335,-0.01582748,0.05066372
1757980875351,0.07417751,0.07533518,-0.02965027,0.05071340,-0.00678693,0.02270976,0.99694270,0.05721734,-0.01586548,0.05079089
1757980875362,0.07816512,-0.05059710,0.11491663,0.04360748,-0.00598715,-0.03102144,0.99693706,0.05745718,-0.01589841,0.05062028
1757980875373,-0.02165023,-0.01255298,0.11901577,-0.00788647,0.00474144,-0.01600175,0.99694457,0.05741302,-0.01587186,0.05053067
1757980875384,-0.14635069,0.03516218,0.02090724,0.01151878,0.00031028,0.02462327,0.99693388,0.05747753,-0.01587012,0.05066856
1757980875395,-0.27548523,0.01174022,-0.02298771,0.01408576,0.01377019,0.01848759,0.99692552,0.05755429,-0.01579508,0.05076931
1757980875406,0.04651645,-0.01698865,0.06540224,-0.00238561,0.03266409,0.02596888,0.99692172,0.05754081,-0.01561052,0.05091604
1757980875417,-0.08855890,-0.10301619,0.08534807,-0.00095263,0.01642739,0.03732048,0.99691285,0.05753553,-0.01551935,0.05112317
1757980875428,0.02088979,-0.15491076,0.12823131,-0.00876243,0.01470571,0.02510766,0.99690982,0.05748777,-0.01543921,0.05126000
1757980875439,0.02889001,-0.10565934,-0.02235126,-0.01126242,0.00750033,0.00359825,0.99691313,0.05742358,-0.01539645,0.05128051
1757980875451,-0.22337197,0.14211224,-0.05652408,-0.01792927,0.00673646,0.00842835,0.99691703,0.05732407,-0.01535907,0.05132729
1757980875462,-0.09816643,0.19391424,-0.11340595,0.00853071,0.02211613,0.02962778,0.99690762,0.05737184,-0.01523522,0.05149321
1757980875473,-0.06428435,0.19609893,0.04584702,0.02280893,0.02154573,0.02263147,0.99689576,0.05749729,-0.01511672,0.05161768
1757980875484,0.14383931,0.00837421,0.21477376,0.04446696,0.01464806,0.01776281,0.99687778,0.05774186,-0.01503615,0.05171537
1757980875495,0.23682470,-0.05412663,0.24458193,0.05572576,0.01774820,0.01798692,0.99685573,0.05805671,-0.01493587,0.05181700
1757980875506,0.07034709,0.06994467,0.07158005,0.03960649,0.02322560,0.02301382,0.99683817,0.05827653,-0.01480697,0.05194473
1757980875517,-0.02186613,0.03963129,0.05164311,0.04585959,0.00001332,0.01397377,0.99681905,0.05853334,-0.01480690,0.05202298
1757980875528,0.09673473,0.03061146,0.09073248,0.04818503,0.01345472,0.01620013,0.99680007,0.05879595,-0.01473357,0.05211127
1757980875540,0.04087352,-0.01306909,-0.03564756,0.03525020,-0.00306269,0.00544586,0.99678631,0.05899687,-0.01475103,0.05214231
1757980875551,0.16083902,-0.14612239,0.04246945,0.02418205,-0.01224309,-0.00729496,0.99677947,0.05913108,-0.01481898,0.05210183
1757980875562,0.23209022,-0.23451328,-0.01278098,0.03490450,-0.01588325,-0.00029339,0.99676685,0.05932306,-0.01490633,0.05210021
1757980875573,0.13242459,0.04210462,0.04039871,0.02379272,-0.02178445,0.00503847,0.99675550,0.05945749,-0.01502942,0.05212868
1757980875584,-0.12451835,0.16174518,0.05064498,0.04256638,-0.03060616,0.00485768,0.99673723,0.05969586,-0.01520081,0.05215588
1757980875595,-0.14324115,0.23687920,0.02712821,0.05057648,-0.03993356,0.01469661,0.99671292,0.05997403,-0.01542044,0.05223671
1757980875606,0.00146889,0.09055635,-0.07354982,0.06802522,-0.04365523,0.00623698,0.99668454,0.06035157,-0.01566273,0.05227133
1757980875618,0.09826813,-0.10184934,0.00240372,0.05883392,-0.03564105,0.01567299,0.99665603,0.06068986,-0.01586767,0.05236145
1757980875629,-0.05357304,-0.10972196,0.00713462,0.04845265,-0.04811094,0.00519348,0.99663462,0.06094909,-0.01612506,0.05238923
1757980875640,0.07778942,-0.08314723,-0.01204666,0.02375206,-0.04140215,0.00848861,0.99661981,0.06108566,-0.01636312,0.05243804
1757980875651,0.02349775,-0.23266679,-0.03563766,0.03713743,-0.03885747,0.00710266,0.99660201,0.06128620,-0.01657295,0.05247640
1757980875662,-0.00576525,-0.10860926,-0.17138844,0.02377411,-0.06191956,-0.00681381,0.99659021,0.06141696,-0.01691351,0.05243892
1757980875673,0.11985516,-0.05097791,-0.03192856,0.02925791,-0.04623190,-0.00597084,0.99657732,0.06158227,-0.01717472,0.05240519
1757980875684,0.01616401,0.13388708,0.06946654,-0.00002231,-0.05374785,0.00116983,0.99657175,0.06158214,-0.01747571,0.05241174
1757980875695,0.08433055,0.02432645,0.02297882,0.00765633,-0.04698172,-0.00241140,0.99656522,0.06162464,-0.01773646,0.05239835
1757980875707,-0.04547388,0.01306165,-0.04257129,-0.01119213,-0.06734381,-0.00727418,0.99656446,0.06156252,-0.01811022,0.05235798
1757980875718,0.10784096,-0.10500281,-0.06041011,0.00308521,-0.04995784,-0.01398744,0.99656238,0.06157980,-0.01838998,0.05227965
1757980875729,-0.00380132,-0.01758109,-0.04561580,-0.00208027,-0.06639130,-0.00636101,0.99655804,0.06156815,-0.01876177,0.05224403
1757980875740,0.09978456,-0.01425494,-0.01900658,0.01062917,-0.05895010,-0.00258632,0.99654885,0.06162767,-0.01909189,0.05222955
1757980875751,0.11652681,-0.05446672,-0.05186648,0.00624058,-0.07285446,0.00184749,0.99653834,0.06166231,-0.01949623,0.05223980
1757980875763,0.13431907,-0.06292023,-0.07313423,0.01268278,-0.07217384,-0.01155119,0.99652918,0.06173460,-0.01990762,0.05217396
1757980875774,0.09909537,-0.05148275,0.05382518,-0.00558427,-0.08010369,-0.00903363,0.99652474,0.06170360,-0.02035220,0.05212382
1757980875785,-0.05011060,0.01271814,-0.03203722,-0.01846323,-0.08835599,-0.02483883,0.99652818,0.06160021,-0.02084699,0.05198473
1757980875796,-0.03945224,0.02498586,0.00615165,-0.01121176,-0.09061083,0.00895958,0.99651861,0.06153686,-0.02135894,0.05203535
1757980875807,0.04621879,-0.08616148,-0.01844299,-0.01127625,-0.08015920,-0.00747459,0.99651500,0.06147428,-0.02180383,0.05199386
1757980875819,-0.03831282,0.03975116,-0.01643813,-0.00982490,-0.07713186,-0.01233336,0.99651245,0.06141926,-0.02223577,0.05192480
1757980875830,-0.00895477,0.10846005,-0.11006100,0.01889179,-0.07867561,-0.00756056,0.99649846,0.06152317,-0.02266848,0.05188321
1757980875841,0.07130881,0.11236952,-0.00782513,0.02172226,-0.08132325,0.00524073,0.99647877,0.06164590,-0.02312796,0.05191282
1757980875852,0.11426265,0.02682111,-0.13728642,0.02714228,-0.08044883,-0.04775351,0.99647275,0.06179654,-0.02357445,0.05164779
1757980875863,0.11707105,0.00096753,-0.04644141,-0.00969272,-0.07689150,-0.03577721,0.99647617,0.06174274,-0.02400120,0.05144923
1757980875874,-0.01064790,-0.02029493,0.08525048,-0.04231794,-0.07555524,0.00246345,0.99647986,0.06150365,-0.02442808,0.05146315
1757980875885,-0.11916959,-0.13145239,0.07331832,-0.02651085,-0.06172962,-0.00365629,0.99648154,0.06135518,-0.02477377,0.05144267
1757980875897,-0.12047468,-0.08084485,0.12175320,-0.02731229,-0.05076589,-0.01272120,0.99648746,0.06120360,-0.02505552,0.05137207
1757980875908,0.02652665,-0.09591740,0.04685549,-0.03227916,-0.06155597,-0.01431861,0.99649406,0.06101961,-0.02540639,0.05129045
1757980875919,0.10843337,-0.10900546,0.10345177,-0.03586696,-0.07928939,-0.02665906,0.99650237,0.06082414,-0.02583852,0.05114516
1757980875930,0.10637886,0.03542876,0.01482791,-0.02098124,-0.07587567,-0.03519028,0.99650863,0.06070454,-0.02627101,0.05094458
1757980875942,0.08308022,0.10821052,0.05565840,-0.01657552,-0.08607383,-0.02623784,0.99650895,0.06061255,-0.02674872,0.05079896
1757980875953,0.08320752,0.19495716,-0.00967529,-0.00276617,-0.07439839,-0.03267320,0.99650794,0.06059720,-0.02716163,0.05061762
1757980875964,0.03676611,0.11416846,-0.06966211,-0.00436342,-0.07790601,-0.02187288,0.99650370,0.06057298,-0.02759401,0.05049623
1757980875975,0.02427065,-0.04953295,-0.01913886,0.01139514,-0.07136133,-0.00827063,0.99649079,0.06063793,-0.02800077,0.05044908
1757980875986,-0.04238092,-0.12698719,0.10287570,0.00607243,-0.06803984,-0.00480195,0.99647951,0.06067133,-0.02837499,0.05042267
1757980875997,-0.04438901,-0.05056615,0.03220752,-0.00530300,-0.05343806,-0.00400850,0.99647388,0.06064163,-0.02867424,0.05040022
1757980876009,-0.04382008,0.03745587,0.02487333,0.00615244,-0.04854324,-0.01282272,0.99646750,0.06067639,-0.02894851,0.05032778
1757980876020,-0.01090776,0.10570940,0.02812302,0.01356981,-0.04239503,-0.01523196,0.99646025,0.06075239,-0.02918592,0.05024248
1757980876031,0.02348648,0.07581647,0.05883056,0.01933709,-0.03548785,-0.02818341,0.99645582,0.06085874,-0.02938110,0.05008747
1757980876042,-0.05406298,0.03427949,-0.02539347,0.00085267,-0.03373076,-0.03560377,0.99645998,0.06086356,-0.02957168,0.04988631
1757980876053,-0.06441727,-0.24133136,-0.14003754,-0.00235915,-0.03039045,-0.02471155,0.99646267,0.06085023,-0.02974339,0.04974669
1757980876064,-0.01720178,-0.15576634,-0.10591344,-0.00259669,-0.02730850,-0.01684156,0.99646367,0.06083595,-0.02989359,0.04965406
1757980876076,-0.04343868,-0.01763293,0.02118370,0.00386754,-0.02689654,-0.01290290,0.99646141,0.06085760,-0.03004421,0.04958180
1757980876087,0.07531498,0.20847572,0.22555181,-0.00644787,-0.01115471,-0.01858896,0.99646700,0.06082085,-0.03010779,0.04947584
1757980876098,-0.04740894,0.09730035,0.03350707,0.00893420,-0.02696483,-0.01959028,0.99646483,0.06087044,-0.03025744,0.04936712
1757980876109,0.03356287,0.03112678,0.06526364,0.01730263,-0.02270694,-0.01604991,0.99645963,0.06096474,-0.03038120,0.04927965
1757980876120,0.00988691,0.06924325,0.00441162,0.01680915,-0.02028726,-0.00919552,0.99645294,0.06105887,-0.03049480,0.04922815
1757980876131,0.02963059,-0.03802736,0.02240867,0.01583246,-0.02356648,-0.00919136,0.99644606,0.06114674,-0.03062560,0.04917714
1757980876143,-0.00111838,0.04974497,-0.03902776,0.01052449,-0.01988022,-0.01069823,0.99644175,0.06120883,-0.03074289,0.04911402
1757980876154,0.39963966,-0.44823696,0.00614996,0.00793446,-0.01277297,-0.00456430,0.99643827,0.06125088,-0.03081059,0.04908983
1757980876165,0.04816653,-0.07086696,-0.10951337,0.00365217,-0.01437729,-0.01185163,0.99643779,0.06127115,-0.03089038,0.04902405
1757980876176,-0.02270516,-0.03534197,-0.03612963,0.01643884,-0.01504768,-0.00939611,0.99643210,0.06136321,-0.03097465,0.04897143
1757980876187,-0.23309582,0.40110752,0.11046294,0.01137737,-0.01870050,-0.01891493,0.99643009,0.06142749,-0.03108031,0.04886457
1757980876198,-0.04491818,0.10046868,0.04943441,0.02849127,-0.01892325,-0.02843257,0.99642483,0.06158419,-0.03118439,0.04870819
1757980876209,-0.02576256,0.00886398,-0.07637191,0.03035782,-0.02906394,-0.02838602,0.99641696,0.06175420,-0.03134714,0.04854922
1757980876221,0.09425196,-0.01127547,-0.04271961,0.03647127,-0.02017602,-0.01495646,0.99640447,0.06196391,-0.03146316,0.04846322
1757980876232,-0.03776169,0.08781883,-0.02211134,0.02924183,-0.03617414,-0.02208930,0.99639424,0.06212181,-0.03165850,0.04834394
1757980876243,0.05501479,-0.00732366,-0.02085563,0.02152273,-0.02073944,0.00119071,0.99638280,0.06224127,-0.03177360,0.04835055
1757980876254,-0.14473456,0.16887323,-0.46749028,0.02105494,-0.01646008,-0.00477012,0.99637354,0.06236233,-0.03186825,0.04832312
1757980876265,-0.03213372,-0.04665191,-0.19777549,0.01414092,-0.02030343,-0.00918058,0.99636759,0.06243940,-0.03197890,0.04827309
1757980876277,-0.05094287,-0.09215577,-0.03612995,-0.01206224,-0.02377687,-0.01391233,0.99637131,0.06237185,-0.03211205,0.04819518
1757980876288,0.17483854,-0.38755389,0.35382818,-0.00556605,-0.02579588,0.01856406,0.99636349,0.06234040,-0.03225780,0.04830007
1757980876299,0.05136994,0.01315635,0.11729992,-0.01142609,-0.02225135,0.00064866,0.99636328,0.06227756,-0.03238018,0.04830363
1757980876310,0.04589226,0.15809158,-0.09586229,0.02350206,-0.01326743,-0.01065755,0.99635552,0.06240917,-0.03245448,0.04824395
1757980876321,0.02850987,0.16773310,-0.11023818,0.03983216,-0.02275530,0.01354007,0.99633369,0.06263223,-0.03258191,0.04831978
1757980876332,0.01311348,0.05189240,-0.02563953,0.03338108,-0.01731209,-0.02656853,0.99632602,0.06281750,-0.03267799,0.04817232
1757980876344,-0.05727662,-0.05156578,-0.04529983,0.00478292,-0.03103796,-0.06379409,0.99633591,0.06284452,-0.03285335,0.04781188
1757980876355,0.08926957,0.00750477,-0.13771453,-0.03311297,-0.01746515,-0.02056105,0.99634975,0.06266074,-0.03295028,0.04769777
1757980876366,0.01451294,-0.15964234,-0.04063623,-0.02269872,-0.01215821,-0.01114413,0.99635839,0.06253476,-0.03301776,0.04763592
1757980876377,-0.06273514,-0.07321482,0.02768790,-0.04785574,-0.00794284,-0.02115316,0.99637955,0.06226438,-0.03306264,0.04751641
1757980876388,-0.03482249,-0.20604950,0.14790356,-0.03618693,-0.01129405,-0.01207794,0.99639319,0.06206354,-0.03312532,0.04744937
1757980876399,-0.00207189,-0.05141195,0.02203736,-0.02988741,-0.01297300,-0.02010240,0.99640654,0.06189617,-0.03319797,0.04733680
1757980876411,0.06652304,-0.10881269,-0.04941712,-0.00788920,-0.01132112,-0.02935163,0.99641496,0.06185199,-0.03326137,0.04717243
1757980876422,-0.04741271,0.08440179,-0.00611831,-0.00972203,-0.01922214,-0.02897140,0.99642247,0.06179706,-0.03336997,0.04700874
1757980876433,-0.00491729,0.08589120,-0.03203210,-0.01308167,0.00137043,-0.02038209,0.99643247,0.06172511,-0.03336244,0.04689664
1757980876444,-0.07277793,0.03005632,-0.01938671,-0.02701229,0.00337801,-0.00209810,0.99644301,0.06157385,-0.03334352,0.04688489
1757980876455,0.16000956,-0.13627403,-0.29876342,-0.01573120,0.01094902,-0.01708155,0.99645511,0.06148496,-0.03328166,0.04678838
1757980876466,0.05947823,-0.15809420,0.01532728,-0.02991696,0.01115835,-0.01080550,0.99647008,0.06132042,-0.03322029,0.04672895
1757980876478,-0.02148940,-0.01788237,0.03549315,-0.03681084,0.01258538,-0.01450796,0.99648907,0.06111244,-0.03314918,0.04664698
1757980876489,-0.21052734,0.13736882,0.26957390,-0.03001197,0.00673086,-0.02081846,0.99650606,0.06094437,-0.03311149,0.04653040
1757980876500,0.08668007,0.13761143,0.04964708,-0.00918438,0.01168280,-0.00771311,0.99651326,0.06089386,-0.03304723,0.04648797
1757980876511,-0.01195687,0.13949104,-0.01264802,-0.01035656,-0.00024902,-0.01614616,0.99652097,0.06083586,-0.03304862,0.04639756
1757980876522,-0.02163913,0.04815458,0.00136703,-0.01217726,-0.00003797,-0.03007568,0.99653306,0.06076706,-0.03304884,0.04622763
1757980876533,0.07676719,0.00455982,0.06467451,-0.02806937,0.00601137,-0.02111551,0.99654894,0.06061268,-0.03301578,0.04611149
1757980876544,-0.03075611,-0.00507130,0.06814724,-0.03805099,-0.00119413,-0.01207480,0.99656478,0.06039959,-0.03302246,0.04604387
1757980876556,0.03046669,-0.18000738,-0.10784554,-0.02622883,0.00196528,-0.01271022,0.99657755,0.06025009,-0.03301126,0.04597143
1757980876567,0.05059050,-0.01881741,0.05194592,-0.03750160,0.00658926,-0.00970823,0.99659351,0.06004571,-0.03297535,0.04591852
1757980876578,0.01035878,-0.04107561,-0.00431394,-0.02009129,0.00605359,-0.00889977,0.99660361,0.05993420,-0.03294175,0.04586912
1757980876589,-0.11046934,0.20898252,0.10530674,-0.01295564,-0.00574212,-0.01739066,0.99661139,0.05986165,-0.03297391,0.04577173
1757980876600,0.07262780,-0.00845643,0.00170046,-0.00599687,-0.00169780,-0.00902946,0.99661544,0.05982776,-0.03298350,0.04572072
1757980876612,-0.01435586,0.12067078,0.06100609,-0.00183940,-0.00658007,-0.01770499,0.99661939,0.05981746,-0.03302035,0.04562157
1757980876623,-0.03022665,0.10169856,0.01428834,0.00198753,-0.01091240,-0.02015733,0.99662183,0.05982849,-0.03308091,0.04550970
1757980876634,-0.00774023,0.01935059,0.01161035,0.01289513,-0.00379390,-0.01917868,0.99662169,0.05990006,-0.03310197,0.04540326
1757980876645,-0.02984547,-0.01400665,0.05416020,0.00967193,0.00067180,-0.01667655,0.99662281,0.05995423,-0.03309821,0.04530987
1757980876656,-0.17391024,-0.39533693,0.07412567,0.00334647,-0.00344077,-0.01314136,0.99662438,0.05997297,-0.03311748,0.04523627
1757980876667,0.00665230,-0.08457930,0.08172831,0.00594142,0.00631726,-0.01139372,0.99662645,0.06000624,-0.03308210,0.04517247
1757980876678,-0.03831727,0.00807513,0.01375762,0.00297208,0.00245599,-0.00813944,0.99662794,0.06002258,-0.03306859,0.04512770
1757980876690,0.12221233,0.43254664,0.01879924,0.00193269,0.00143982,-0.01863945,0.99663228,0.06003341,-0.03306053,0.04502332
1757980876701,0.05475635,0.01845078,-0.02734066,0.01813445,0.00181290,-0.01193767,0.99662948,0.06013587,-0.03305029,0.04495587
1757980876712,0.00348069,0.13158677,0.06632836,0.02596640,-0.00709072,-0.02205415,0.99662507,0.06027738,-0.03308893,0.04483568
1757980876723,-0.01044754,-0.01134850,-0.09023764,0.03322969,-0.00813797,-0.00942122,0.99661474,0.06046181,-0.03313410,0.04478339
1757980876734,-0.01370768,0.05089625,0.02418333,0.02550861,-0.00503258,-0.00276855,0.99660559,0.06060848,-0.03316303,0.04476747
1757980876746,0.00285925,-0.08315380,0.00292536,0.03122860,-0.00486358,-0.00729525,0.99659587,0.06078336,-0.03319027,0.04472662
1757980876756,-0.44071287,0.13375785,-0.16739351,0.01958707,-0.01133296,-0.01898545,0.99659196,0.06088913,-0.03325147,0.04462410
1757980876768,-0.00421841,-0.08789949,-0.00157326,-0.00407451,-0.01039534,0.00943076,0.99658902,0.06086611,-0.03331020,0.04467738
1757980876779,0.00366715,-0.00914124,-0.04205236,0.00979131,-0.00905805,0.00804360,0.99658214,0.06091948,-0.03335957,0.04472122
1757980876790,0.31067045,-0.14448927,0.02526655,0.01444416,-0.00788964,0.01236798,0.99657261,0.06100036,-0.03340375,0.04479048
1757980876801,0.02627723,0.11856141,-0.11368825,0.04640619,0.00718620,0.02158861,0.99655203,0.06126720,-0.03336243,0.04491461
1757980876812,0.01526853,0.12321270,-0.06253991,0.04157811,-0.00381129,0.00723099,0.99653560,0.06149380,-0.03338320,0.04495402
1757980876824,-0.01808241,-0.03875425,-0.02767289,0.02193302,-0.00794306,-0.03990757,0.99653658,0.06161662,-0.03342768,0.04473054
1757980876835,0.01235428,-0.02138241,0.03041053,-0.00646327,-0.00962957,-0.02296216,0.99654277,0.06158043,-0.03348161,0.04460195
1757980876846,0.00385284,-0.03672512,0.04676185,0.00117874,-0.00731830,0.00167092,0.99654061,0.06158691,-0.03352186,0.04461114
1757980876857,-0.36395879,0.01848822,-0.14856237,-0.01108339,0.00483961,0.00203731,0.99654484,0.06152485,-0.03349476,0.04462255
1757980876868,-0.13590310,-0.10661191,-0.00818553,-0.01806465,0.01381023,0.00745900,0.99655187,0.06142278,-0.03341673,0.04466469
1757980876879,0.07472704,-0.13590103,0.00401055,-0.00856068,0.02351844,0.00805429,0.99655711,0.06137570,-0.03328738,0.04470899
1757980876891,0.29821502,-0.20705438,0.11107388,-0.00667487,0.01417182,0.00335991,0.99656129,0.06133765,-0.03320660,0.04472814
1757980876902,0.03767972,-0.07279188,-0.02130738,-0.00681938,0.00581514,-0.00605052,0.99656625,0.06129946,-0.03317403,0.04469426
1757980876913,0.03445693,0.05270742,-0.04869231,-0.00738024,0.00374425,-0.00975150,0.99657173,0.06125961,-0.03315381,0.04464160
1757980876924,0.00984585,0.15056197,-0.02029680,-0.00630152,0.00182024,-0.00633163,0.99657586,0.06122400,-0.03314353,0.04460583
1757980876935,0.01757821,0.04822663,-0.06974773,0.01798528,0.00164019,-0.01082579,0.99657271,0.06132382,-0.03313443,0.04454575
1757980876946,0.05514917,0.08417505,-0.02709082,0.01968548,-0.00314087,-0.00454345,0.99656653,0.06143308,-0.03315186,0.04452053
1757980876957,-0.02089904,-0.08917418,-0.24781348,0.01856705,0.00042965,-0.00141247,0.99656044,0.06153891,-0.03314941,0.04451248
1757980876968,0.05348617,-0.04689391,-0.00559770,0.00440870,-0.00584109,0.00002333,0.99655789,0.06156294,-0.03318124,0.04451261
1757980876979,-0.00106517,0.00266292,0.00264517,-0.00507758,-0.00843740,-0.00303645,0.99655883,0.06153476,-0.03322807,0.04449575
1757980876991,0.09849569,0.08076994,0.18623198,-0.00238620,-0.01321661,-0.00214193,0.99655770,0.06152115,-0.03330340,0.04448355
1757980877002,-0.02296972,0.02621157,-0.00309953,-0.00837013,-0.01257870,-0.01677221,0.99656255,0.06147303,-0.03337573,0.04438711
1757980877013,0.08338815,-0.07872529,0.00756922,-0.00998876,-0.00944097,-0.02611839,0.99657036,0.06141959,-0.03342624,0.04424737
1757980877024,0.00755823,-0.01267402,-0.04693027,-0.02047802,-0.01194246,-0.01908714,0.99657992,0.06130491,-0.03349312,0.04414048
1757980877035,0.01459069,0.02839526,-0.00673815,-0.00532718,-0.01312357,-0.00779718,0.99658120,0.06127534,-0.03356596,0.04409721
1757980877046,-0.01548047,0.02128565,-0.05224658,-0.00152807,-0.00871131,-0.00464263,0.99658124,0.06126686,-0.03361430,0.04407144
1757980877058,-0.22909782,-0.12003685,0.00904097,-0.00111829,-0.00137834,-0.01010687,0.99658386,0.06126060,-0.03362202,0.04401484
1757980877069,0.01637025,-0.06271231,-0.04201842,-0.00788101,-0.00711085,-0.00183122,0.99658567,0.06121686,-0.03366149,0.04400468
1757980877080,0.07256470,-0.04208753,-0.03870117,-0.00625316,-0.00078702,-0.00723802,0.99658942,0.06118216,-0.03366585,0.04396451
1757980877091,0.15704403,0.13474983,-0.07395444,-0.00488336,-0.00836200,-0.00971495,0.99659192,0.06115481,-0.03371268,0.04391011
1757980877102,0.02406478,0.00422613,-0.02719062,-0.00554512,-0.00320929,-0.01393771,0.99659669,0.06112348,-0.03373081,0.04383136
1757980877114,-0.03758426,0.05513171,-0.01057977,-0.00741311,-0.01095610,-0.02542011,0.99660341,0.06108197,-0.03379217,0.04368901
1757980877125,0.03782867,-0.01206388,-0.06311401,-0.00537286,-0.00640266,-0.01792703,0.99660839,0.06105215,-0.03382770,0.04358951
1757980877136,0.00717456,0.02050913,-0.00967452,-0.00780286,-0.00987315,-0.01636892,0.99661319,0.06100845,-0.03388299,0.04349785
1757980877147,0.04338402,-0.00273569,-0.00179447,-0.00627310,-0.00720826,-0.01335868,0.99661716,0.06097395,-0.03392264,0.04342437
1757980877158,-0.20416526,-0.04007797,-0.06666127,-0.00405000,-0.00373057,-0.01486264,0.99662146,0.06095127,-0.03394353,0.04334114
1757980877169,-0.01712648,0.00574236,-0.05799501,0.00065703,0.00001716,-0.01353455,0.99662461,0.06095505,-0.03394343,0.04326332
1757980877180,0.05094141,0.01211769,-0.07541674,-0.00257844,-0.01336331,-0.01489081,0.99662649,0.06094112,-0.03401559,0.04318291
1757980877192,0.15757865,0.05559426,0.05814607,-0.01489887,-0.00620336,-0.02484776,0.99663642,0.06085769,-0.03405033,0.04304376
1757980877203,0.04429038,-0.11281651,-0.05345600,-0.00038138,-0.00973573,-0.01094324,0.99663732,0.06085557,-0.03410436,0.04298303
1757980877214,-0.00774023,0.08078870,-0.00193506,-0.01357691,-0.01465642,-0.01215437,0.99664204,0.06078022,-0.03418571,0.04291557
1757980877225,-0.02196887,-0.06044008,-0.07434827,0.01411830,-0.01898574,-0.01733449,0.99663774,0.06085928,-0.03429203,0.04281850
1757980877236,-0.02090724,-0.01900658,-0.02280790,0.01710065,-0.00708218,-0.02747917,0.99663712,0.06095505,-0.03433169,0.04266461
1757980877247,0.04422991,-0.00401266,0.06126534,-0.00440018,-0.01039842,0.00581661,0.99663524,0.06093063,-0.03438940,0.04269689
1757980877258,0.05708423,-0.27090821,-0.03483106,0.00374081,-0.00127441,0.00645904,0.99663219,0.06095139,-0.03439647,0.04273274
1757980877270,-0.01678059,0.14654761,-0.00148971,0.01076991,0.00788345,-0.01084983,0.99663263,0.06101170,-0.03435233,0.04267198
1757980877281,0.01805625,0.24613525,-0.05321843,0.02299311,0.00771093,-0.00031213,0.99662630,0.06114046,-0.03430914,0.04267023
1757980877292,-0.02644292,0.23557612,-0.11701922,0.07291345,0.00296424,-0.01876420,0.99660641,0.06154513,-0.03429269,0.04256609
1757980877303,-0.01370700,-0.12228425,0.00003425,0.02335917,-0.00446784,-0.07984211,0.99661646,0.06167594,-0.03431771,0.04211898
1757980877314,0.02060319,-0.04593173,0.15283508,-0.03785243,-0.01411367,-0.06810803,0.99664264,0.06146586,-0.03439604,0.04174098
1757980877325,0.05224658,-0.08127246,0.02322070,-0.02660683,-0.01816165,-0.01669746,0.99665213,0.06131819,-0.03449684,0.04164831
1757980877337,-0.00181670,0.01383134,0.01941181,-0.00415140,-0.00762550,-0.02304396,0.99665751,0.06129474,-0.03453992,0.04151811
1757980877348,-0.03855361,0.02307375,0.02892828,0.00959720,-0.00845545,-0.02274764,0.99665786,0.06134752,-0.03458643,0.04139300
1757980877359,-0.04485554,-0.04549485,0.26218718,0.01451161,-0.00152620,-0.01681085,0.99665646,0.06142879,-0.03459498,0.04129886
1757980877370,0.00665230,-0.02423339,-0.00190066,0.00939585,-0.01040998,-0.02010405,0.99665585,0.06148140,-0.03465327,0.04118627
1757980877381,0.02442148,-0.14461540,-0.13497034,0.01667102,-0.02881419,-0.01523822,0.99664805,0.06157393,-0.03481319,0.04110170
1757980877392,0.02999341,0.02950964,-0.14319434,-0.01483739,-0.01306431,-0.01701596,0.99665449,0.06149158,-0.03488570,0.04100726
1757980877403,-0.03777344,-0.06220803,-0.01511965,-0.00630814,-0.01362500,-0.00257872,0.99665459,0.06145625,-0.03496200,0.04099282
1757980877414,0.05262669,0.04632047,0.04234669,-0.00889106,-0.00393335,-0.01434071,0.99666014,0.06140691,-0.03498383,0.04091323
1757980877426,-0.03695154,0.04817570,-0.04767057,-0.00691811,-0.01418287,-0.01254739,0.99666262,0.06136817,-0.03506325,0.04084297
1757980877437,0.06272172,-0.00997846,0.00760263,0.00955686,-0.01478284,-0.02340935,0.99666177,0.06142169,-0.03514604,0.04071187
1757980877448,-0.02600235,0.12835745,-0.00020733,-0.00980581,-0.01443538,-0.02240001,0.99666736,0.06136726,-0.03522615,0.04058755
1757980877459,-0.12818314,0.35365515,-0.08532415,-0.00691623,-0.00959576,-0.01506891,0.99667128,0.06132853,-0.03527989,0.04050317
1757980877470,-0.02740181,0.03355685,-0.00485492,0.00458721,-0.00800198,-0.02292604,0.99667330,0.06135399,-0.03532430,0.04037593
1757980877481,-0.01465733,-0.04703701,0.00671223,-0.00539932,-0.01385391,-0.03382850,0.99668006,0.06132376,-0.03540188,0.04018649
1757980877493,0.15300299,-0.37918133,0.03611251,-0.01563889,-0.01478847,-0.03572841,0.99669055,0.06123618,-0.03548470,0.03998641
1757980877504,-0.00026780,-0.02419687,0.02451650,-0.02977986,-0.01718619,-0.03177283,0.99670435,0.06107090,-0.03558008,0.03981007
1757980877515,0.01745847,0.01701025,0.03701160,-0.02552439,-0.01902740,-0.01866442,0.99671330,0.06093052,-0.03568473,0.03970742
1757980877526,-0.02733492,0.02342993,-0.03213840,-0.00145267,-0.01877546,-0.01302130,0.99671293,0.06092238,-0.03578987,0.03963450
1757980877537,-0.04819625,0.11609779,0.02090560,0.00925085,-0.01014811,-0.01401747,0.99671081,0.06097465,-0.03584721,0.03955530
1757980877548,-0.01902522,0.15479185,0.04412961,0.00579363,-0.01792923,-0.00640865,0.99670667,0.06100680,-0.03594672,0.03951973
1757980877560,0.01257788,0.15625599,0.22833692,0.00897023,-0.01097517,-0.01166721,0.99670399,0.06105659,-0.03600763,0.03945498
1757980877571,-0.09578540,-0.02902588,0.04063623,0.00206277,-0.02124361,-0.01934191,0.99670327,0.06106804,-0.03612553,0.03934763
1757980877582,-0.00600521,-0.17947093,-0.03122038,-0.01377456,-0.01821687,-0.01178788,0.99670692,0.06099021,-0.03622846,0.03928103
1757980877593,0.00145600,-0.21920281,-0.21351828,-0.00550757,-0.01925189,-0.02365937,0.99671004,0.06095992,-0.03633434,0.03915090
1757980877604,-0.00500477,0.02598256,0.03439127,-0.00393328,-0.02188194,-0.01227662,0.99670962,0.06093809,-0.03645579,0.03908277
1757980877615,-0.02482842,0.05760193,-0.00453761,-0.00226318,-0.01910897,-0.00459189,0.99670748,0.06092541,-0.03656280,0.03905705
1757980877626,-0.04944766,0.05749889,0.01231872,0.00446057,-0.02060472,-0.01191470,0.99670435,0.06095017,-0.03667715,0.03899092
1757980877637,-0.00801359,0.00478589,0.01059917,0.00973465,-0.00757758,-0.00996451,0.99670164,0.06100468,-0.03671959,0.03893512
1757980877649,-0.09369178,-0.00934417,-0.01208657,0.01062572,-0.01358192,-0.00367511,0.99669594,0.06106472,-0.03679633,0.03891436
1757980877660,-0.22422471,-0.01156521,0.03004426,0.00587448,-0.01691826,-0.00135124,0.99669081,0.06109703,-0.03688938,0.03890693
1757980877671,-0.00522466,-0.02836180,0.08406950,0.00656008,-0.00907172,-0.01388211,0.99668972,0.06113344,-0.03693972,0.03882988
1757980877682,-0.00508555,-0.02190466,-0.00559924,-0.00045061,-0.02948951,-0.01332140,0.99668665,0.06113091,-0.03710487,0.03875528
1757980877693,0.25088381,0.01387800,0.11014285,0.00307033,-0.01785020,-0.00616015,0.99668324,0.06114795,-0.03720393,0.03872109
1757980877704,-0.03672038,0.02996105,-0.01792783,0.01120008,-0.04002323,-0.02962303,0.99667743,0.06121068,-0.03742806,0.03855520
1757980877715,0.06704460,0.04378502,0.02582958,0.01256756,-0.04295386,-0.02651445,0.99666984,0.06128042,-0.03766646,0.03840805
1757980877727,0.05614647,0.00222172,-0.03510225,0.02344707,-0.05384505,0.00525729,0.99664918,0.06141173,-0.03796799,0.03843749
1757980877738,0.01202288,0.12578977,0.04658456,0.02867135,-0.04413535,-0.00433984,0.99663044,0.06157516,-0.03821956,0.03841275
1757980877749,-0.00984374,0.19604101,-0.02216186,0.04380414,-0.04558253,-0.00635423,0.99660765,0.06181170,-0.03846571,0.03837844
1757980877760,-0.20991715,-0.21776617,-0.05645659,0.07964861,-0.04783824,0.01351302,0.99656659,0.06225773,-0.03873360,0.03845411
1757980877771,-0.04305506,-0.00279029,-0.01903960,0.06809059,-0.05368601,-0.02169508,0.99653592,0.06263563,-0.03903156,0.03833370
1757980877782,-0.05805176,-0.00919153,0.11416846,0.02570274,-0.05416723,-0.05902791,0.99652767,0.06277828,-0.03933219,0.03800610
1757980877793,0.16007481,0.01615131,-0.02015383,0.02749884,-0.05490384,-0.02461580,0.99651102,0.06293228,-0.03963965,0.03786825
1757980877805,-0.01592927,0.04886727,0.12601711,0.00303565,-0.04843868,0.01098270,0.99649666,0.06294943,-0.03991333,0.03793030
1757980877816,-0.09692418,0.04425376,-0.01119937,0.01106098,-0.03527248,-0.00906789,0.99648683,0.06301082,-0.04010909,0.03787998
1757980877827,-0.09259999,0.02761669,-0.04324232,0.02404343,-0.02561289,0.00537373,0.99647166,0.06314306,-0.04024996,0.03790953
1757980877838,-0.06111480,-0.02335218,-0.07927473,0.03443527,-0.02710233,0.02542461,0.99644785,0.06333589,-0.04040173,0.03805191
1757980877849,0.19196649,0.01235428,0.12164213,0.02050769,-0.03855008,0.00727693,0.99643021,0.06345074,-0.04061761,0.03809266
1757980877860,0.60797989,0.06935544,0.22263541,0.01303176,-0.03195783,-0.01010704,0.99642050,0.06352306,-0.04079498,0.03803657
1757980877872,-0.00101769,-0.04495920,0.06128009,0.00417616,-0.02254900,0.00523063,0.99641264,0.06354666,-0.04092238,0.03806612
1757980877883,-0.46589533,-0.07171477,-0.09627068,0.01971450,-0.02156331,0.00409242,0.99639998,0.06365509,-0.04104098,0.03808863
1757980877894,-0.53091853,-0.08102179,-0.08888956,0.01058489,-0.00930967,0.01454456,0.99639101,0.06371383,-0.04109265,0.03816935
1757980877905,0.01161035,-0.05176282,-0.02709082,0.02579869,-0.00725516,0.02844229,0.99637412,0.06385702,-0.04113291,0.03832720
1757980877916,-0.08828643,0.02327878,0.02205449,-0.00056345,-0.01541030,0.01811648,0.99636685,0.06385386,-0.04121921,0.03842866
1757980877927,0.03167516,-0.01561252,0.05134710,0.00050754,0.00720323,0.01964189,0.99636406,0.06385673,-0.04117851,0.03853963
1757980877938,-0.05899870,-0.02637810,-0.01333944,0.00730578,-0.00977593,0.01586441,0.99635588,0.06389691,-0.04123228,0.03862689
1757980877950,-0.06334376,-0.10326622,0.16276547,0.00310857,-0.00313610,0.01426144,0.99635094,0.06391432,-0.04124984,0.03870675
1757980877961,-0.20779420,-0.21540918,0.16921397,0.00386237,-0.01154763,-0.00093910,0.99634711,0.06393575,-0.04131393,0.03870154
1757980877972,0.06675952,0.02757459,0.11610352,-0.00923925,-0.01442311,-0.00756621,0.99634871,0.06388448,-0.04139398,0.03865955
1757980877983,0.10841458,0.04313296,-0.12881669,-0.00037364,-0.02338233,0.00004404,0.99634339,0.06388238,-0.04152492,0.03865979
1757980877994,0.22332735,0.18673968,-0.06652304,-0.00186636,-0.01318970,0.01040570,0.99633871,0.06387193,-0.04159878,0.03871807
1757980878005,-0.06164986,0.03662232,-0.04267811,0.00350918,-0.01867777,0.01054944,0.99633071,0.06389176,-0.04170431,0.03877767
1757980878016,-0.00556246,-0.02969552,0.06101270,0.01138285,-0.01995471,0.01891158,0.99631804,0.06395436,-0.04181407,0.03888168
1757980878028,-0.02844536,0.07077917,0.03688925,0.00095135,-0.02526590,0.00213153,0.99631134,0.06395964,-0.04195429,0.03889351
1757980878039,0.05974231,0.03515790,0.08342349,0.01211930,-0.02682018,0.01001712,0.99629846,0.06402751,-0.04210448,0.03894961
1757980878050,-0.02305618,0.03376322,0.03454259,0.02348753,-0.04087956,0.00301015,0.99627947,0.06416022,-0.04233545,0.03896662
1757980878061,0.13034810,-0.04553304,0.26620137,0.01090273,-0.02831855,0.01367233,0.99626615,0.06421964,-0.04248979,0.03904113
1757980878072,-0.04967242,0.00195725,-0.02082407,0.01991687,-0.03287317,0.01068660,0.99624890,0.06433018,-0.04267224,0.03910044
1757980878083,-0.04676304,0.07910848,0.00041095,0.01981138,-0.01952506,0.01009471,0.99623482,0.06444112,-0.04278158,0.03915697
1757980878094,-0.07569189,0.06530823,-0.09910265,0.02868657,-0.03097349,0.01682008,0.99621344,0.06460033,-0.04295348,0.03925032
1757980878106,-0.01598867,-0.01934032,0.02119487,0.02549394,-0.02095971,0.01417311,0.99619581,0.06474437,-0.04307190,0.03933040
1757980878117,-0.04853639,0.04263391,-0.02901547,0.02534130,-0.02510361,0.02228527,0.99617592,0.06488375,-0.04320997,0.03945297
1757980878128,-0.05076011,-0.00321044,-0.01604340,0.04189706,-0.01765092,0.00298330,0.99615584,0.06511628,-0.04330793,0.03946953
1757980878139,-0.00094177,-0.00550078,0.03570155,0.02367087,-0.01681656,0.00824178,0.99614123,0.06524883,-0.04340211,0.03951568
1757980878150,-0.14597746,-0.09213127,0.00152915,0.03146683,-0.01910445,0.01504286,0.99612114,0.06542977,-0.04351196,0.03960218
1757980878162,-0.28707016,0.00279742,0.15396336,0.02124662,-0.01734557,0.01777718,0.99610525,0.06554769,-0.04360822,0.03970084
1757980878172,-0.02278845,-0.01162902,0.06811675,0.02127418,-0.01403952,0.02966781,0.99608796,0.06566257,-0.04368404,0.03986105
1757980878184,0.18421975,-0.12806203,-0.15501977,0.02289240,-0.00535494,0.01288463,0.99607507,0.06579305,-0.04371456,0.03993449
1757980878195,0.15279248,-0.03790767,-0.12165309,0.00411123,-0.00653492,0.01730953,0.99606824,0.06581546,-0.04375018,0.04002883
1757980878206,0.01847475,-0.03429904,-0.09951428,0.00667288,-0.00999284,0.04520079,0.99605311,0.06585283,-0.04380614,0.04028195
1757980878217,-0.03041053,0.01758109,-0.03611251,0.01236533,0.00162536,0.02127859,0.99604410,0.06592207,-0.04379703,0.04040111
1757980878228,0.00343061,0.04687620,-0.04538961,0.01247311,0.00144689,0.01223979,0.99603717,0.06599068,-0.04378908,0.04046843
1757980878239,0.08185831,0.03835331,-0.09862038,0.02368011,-0.00504032,0.02999711,0.99602015,0.06612447,-0.04381755,0.04063791
1757980878251,0.06588618,-0.19430643,0.02827241,0.02580532,-0.00426124,0.01684671,0.99600577,0.06626769,-0.04384120,0.04073141
1757980878262,-0.03289600,-0.25059010,0.00193506,0.00652804,-0.00440930,-0.01077584,0.99600473,0.06630392,-0.04386568,0.04067161
1757980878273,-0.00580518,-0.06482447,0.05998682,-0.03113915,-0.00847683,-0.01252503,0.99601698,0.06613110,-0.04391272,0.04060209
1757980878284,0.05171717,0.12446520,-0.02137991,-0.03678716,0.00053522,0.00666414,0.99602935,0.06592325,-0.04390970,0.04063975
1757980878295,0.00719223,0.12299160,-0.10335504,-0.02776460,0.00722336,0.02197338,0.99603620,0.06577193,-0.04387033,0.04075950
1757980878306,-0.02467573,0.03446979,-0.00486491,-0.01365592,0.00751888,0.00113300,0.99604290,0.06569478,-0.04382785,0.04076590
1757980878318,0.05125385,-0.06808142,0.04471115,-0.02923178,-0.00235259,0.01102661,0.99605071,0.06552815,-0.04384126,0.04082875
1757980878328,0.12950395,-0.09496721,0.13286609,-0.03544703,0.00075216,0.00024998,0.99606353,0.06533497,-0.04383716,0.04083012
1757980878340,-0.04314826,0.02863532,-0.02883060,-0.03941876,-0.02082328,-0.02094902,0.99607752,0.06511619,-0.04395273,0.04071385
1757980878351,0.11689139,-0.07649498,0.11832121,-0.02014813,-0.00520030,-0.00306721,0.99608436,0.06500236,-0.04398211,0.04069652
1757980878362,0.02119489,0.02534930,0.12931414,-0.03746166,-0.00286296,0.00195129,0.99609665,0.06479632,-0.04399786,0.04070725
1757980878373,0.03098073,0.01857462,0.04952079,-0.02638231,0.00137145,0.00230597,0.99610607,0.06464858,-0.04399018,0.04072017
1757980878384,-0.01045362,0.06842370,-0.09123160,-0.01442579,-0.00600531,-0.00323676,0.99611056,0.06456779,-0.04402381,0.04070204
1757980878395,0.03722651,0.02668838,-0.00482045,-0.00922102,-0.01653425,0.00046673,0.99610972,0.06451708,-0.04411475,0.04070461
1757980878407,0.03014626,0.07737286,0.02098017,-0.00710859,-0.00701020,-0.01605358,0.99611427,0.06447691,-0.04415435,0.04061390
1757980878418,0.07842318,0.04302552,0.07289782,0.00068472,-0.01526231,-0.00822969,0.99611210,0.06448075,-0.04423982,0.04056782
1757980878429,0.04090342,0.10379794,0.08944215,0.00661932,-0.01613127,-0.01224523,0.99610854,0.06451715,-0.04432854,0.04050047
1757980878440,-0.01765322,0.03696142,-0.03048575,0.01516380,-0.02068441,-0.03177824,0.99610507,0.06460283,-0.04444541,0.04032092
1757980878451,0.00768030,-0.04888592,-0.05044852,-0.00221993,-0.01933761,-0.02613513,0.99610693,0.06459051,-0.04455273,0.04017587
1757980878462,0.00000000,-0.01209412,-0.08127246,-0.00199901,-0.00976757,-0.02207728,0.99611016,0.06457941,-0.04460694,0.04005334
1757980878474,-0.01935059,-0.03434729,0.00580518,0.00519394,-0.01080335,-0.01481725,0.99610891,0.06460824,-0.04466690,0.03997111
1757980878485,-0.06971649,0.05692557,0.12662494,-0.00161090,-0.00918038,-0.01711820,0.99611103,0.06459922,-0.04471831,0.03987525
1757980878496,0.01045362,0.01377977,0.12164213,0.00517660,-0.00979736,-0.00937257,0.99610878,0.06462821,-0.04477318,0.03982276
1757980878507,-0.02850987,0.09218193,0.05701975,-0.00027150,-0.01216301,-0.01515799,0.99610921,0.06462669,-0.04484129,0.03973787
1757980878518,0.01615560,-0.02613405,-0.05131777,0.00928988,-0.01390107,-0.01217867,0.99610504,0.06467871,-0.04491914,0.03966967
1757980878529,0.00808960,-0.06606951,-0.00860023,0.03215983,-0.01560198,-0.00978530,0.99609193,0.06485398,-0.04500417,0.03961634
1757980878540,-0.06819443,0.06710667,-0.00957566,0.00619003,-0.01543861,-0.00324456,0.99608644,0.06488896,-0.04509140,0.03959801
1757980878551,0.21501413,-0.25365537,0.00962392,0.02212188,-0.00421037,-0.01284606,0.99608020,0.06501173,-0.04511476,0.03952672
1757980878562,0.16478618,-0.20909224,0.03022737,0.02463568,-0.00021117,-0.00930378,0.99607339,0.06514600,-0.04511591,0.03947601
1757980878574,-0.09205987,0.04378489,-0.04943455,0.01274264,-0.00686216,-0.01567713,0.99607045,0.06521736,-0.04515434,0.03938822
1757980878585,-0.20717176,0.21144824,-0.04751646,0.01030706,-0.00591588,-0.00448899,0.99606616,0.06527508,-0.04518747,0.03936308
1757980878596,-0.18304446,0.16451886,-0.04215664,0.00684686,-0.00085473,-0.00920426,0.99606548,0.06531308,-0.04519222,0.03931200
1757980878607,-0.03381087,-0.06455184,0.01113572,0.00566872,-0.00149319,-0.01153804,0.99606556,0.06534510,-0.04520065,0.03924681
1757980878618,-0.01773809,-0.00746867,0.00746867,0.00087570,-0.00092842,-0.00490414,0.99606609,0.06535005,-0.04520590,0.03921910
1757980878629,-0.01657765,0.01560981,-0.00717447,0.00535628,0.00079012,-0.00854967,0.99606621,0.06537924,-0.04520159,0.03917250
1757980878641,-0.03162193,0.10070712,-0.03042283,-0.00000519,-0.00177369,-0.00576195,0.99606703,0.06537921,-0.04521161,0.03913995
1757980878652,0.18177390,0.11276625,-0.04376732,0.02424217,-0.00120992,0.00082797,0.99605779,0.06551255,-0.04521827,0.03914450
1757980878663,0.16748413,0.14531711,0.00788161,0.01897719,-0.00050953,0.00148273,0.99605047,0.06561692,-0.04522107,0.03915266
1757980878674,-0.03590516,-0.00069979,0.04651429,0.00564387,0.00621014,-0.00848711,0.99605184,0.06564853,-0.04518629,0.03910513
1757980878685,-0.27416849,-0.19432676,-0.10626785,0.00065939,-0.00298361,0.00355364,0.99605000,0.06565232,-0.04520345,0.03912556
1757980878696,-0.15038024,-0.19989970,0.00876278,0.00919630,0.00230281,0.02246633,0.99604252,0.06570198,-0.04519101,0.03924688
1757980878707,-0.02355570,0.12521258,-0.02342603,-0.00063120,0.00609928,0.00958580,0.99604218,0.06569841,-0.04515655,0.03930104
1757980878719,-0.01292037,0.02247151,-0.08360138,0.02802490,0.00706666,0.00366353,0.99603289,0.06585395,-0.04511733,0.03932137
1757980878730,0.06490491,0.08356047,-0.02282502,0.03786605,0.00406935,0.02406925,0.99601455,0.06606600,-0.04509454,0.03945616
1757980878741,-0.04174788,-0.05693053,-0.03782467,0.02793106,-0.00586327,-0.01570951,0.99600630,0.06621962,-0.04512679,0.03936976
1757980878752,-0.02780382,-0.00419688,-0.06569034,-0.00914265,-0.00062583,-0.02096909,0.99601425,0.06616796,-0.04513033,0.03925128
1757980878763,-0.00986073,-0.03509669,-0.08029822,-0.01716989,-0.00496772,-0.01077606,0.99602162,0.06607353,-0.04515765,0.03919201
1757980878774,-0.04921683,0.01689362,-0.06373830,-0.02578966,-0.00655488,0.01091129,0.99602716,0.06592782,-0.04519469,0.03925366
1757980878786,-0.00656721,-0.09408581,0.06092866,-0.00840276,0.00206872,0.01004745,0.99602857,0.06588118,-0.04518320,0.03930943
1757980878796,-0.02745663,-0.05901518,0.07375172,-0.00745105,0.00661823,0.01764449,0.99602909,0.06584095,-0.04514747,0.03940471
1757980878808,0.00232964,-0.02723381,-0.05473012,-0.00313741,0.00171716,0.01091675,0.99602824,0.06582275,-0.04513751,0.03946802
1757980878819,-0.00428158,-0.00183805,0.01738582,0.00181358,-0.00586671,-0.00168306,0.99602650,0.06583263,-0.04516948,0.03945885
1757980878830,-0.01259068,-0.04821157,-0.06536671,0.00991028,-0.01388426,-0.00632440,0.99602080,0.06588714,-0.04524584,0.03942407
1757980878841,0.01494582,0.04203672,0.05859510,-0.01259450,-0.00594945,0.00019072,0.99602394,0.06581598,-0.04527946,0.03942515
1757980878852,0.05493407,-0.14835647,-0.11375356,-0.01242316,-0.00103864,0.00395374,0.99602739,0.06574641,-0.04528527,0.03944729
1757980878863,0.05548149,-0.07615930,-0.00927125,-0.02548170,0.00314327,0.01951472,0.99603306,0.06560881,-0.04526830,0.03955267
1757980878874,-0.06721641,-0.08361066,-0.13298153,-0.01333808,-0.00099709,0.01815823,0.99603367,0.06553479,-0.04527383,0.03965344
1757980878886,-0.10275865,0.06942494,0.03760767,-0.02269507,0.00641481,0.02293345,0.99603871,0.06540315,-0.04523663,0.03978646
1757980878897,-0.05794000,0.14060343,0.10606196,-0.00852548,0.01007094,0.00918074,0.99604228,0.06535626,-0.04518124,0.03983695
1757980878908,-0.04805103,0.06047058,-0.13086274,0.00909333,0.00026180,0.01070122,0.99603666,0.06540673,-0.04517979,0.03989634
1757980878919,0.02667021,0.11424624,0.06154923,0.01162732,0.01049075,0.00536983,0.99603382,0.06547243,-0.04512051,0.03992668
1757980878930,-0.06954820,-0.03257265,-0.04742913,0.01457834,0.00666627,-0.00386154,0.99603105,0.06555261,-0.04508385,0.03990544
1757980878941,-0.01487697,0.07917106,0.05287286,-0.00903677,0.00628196,-0.00394565,0.99603686,0.06550200,-0.04504867,0.03988335
1757980878953,-0.03611802,-0.10744547,0.14500554,-0.00428585,0.01153331,0.00209532,0.99604092,0.06547779,-0.04498351,0.03989519
1757980878964,-0.03996838,-0.08307053,-0.02311796,-0.00151434,0.01322448,0.00824125,0.99604295,0.06546938,-0.04491011,0.03994093
1757980878975,-0.12317672,0.01359311,-0.01198217,-0.00103993,0.00775669,0.01032933,0.99604297,0.06546366,-0.04486745,0.03999774
1757980878986,0.12195315,0.06762024,-0.18954747,0.01248692,0.01310001,0.01510572,0.99603828,0.06553359,-0.04479409,0.04008233
1757980878997,0.00385284,0.08084485,-0.09873982,0.03070733,0.01533330,0.01707605,0.99602705,0.06570401,-0.04470899,0.04017710
1757980879008,-0.01548047,0.09868799,0.01935059,0.01701776,0.00915109,0.02046735,0.99601851,0.06579846,-0.04465820,0.04029070
1757980879019,0.01532513,-0.00021832,-0.06767029,0.02208244,0.01926454,0.02495527,0.99600950,0.06592212,-0.04455032,0.04043045
1757980879031,-0.04545660,-0.01526018,-0.05943394,0.01924238,0.01945626,0.01899413,0.99600296,0.06602892,-0.04444234,0.04053586
1757980879042,0.03688940,-0.08095587,-0.02940244,0.01156668,0.02068976,0.01841599,0.99599957,0.06609485,-0.04432440,0.04064083
1757980879053,0.11900188,-0.02980664,-0.15472837,-0.00326997,0.01825314,0.01541738,0.99600176,0.06607686,-0.04422401,0.04072563
1757980879064,0.09536488,-0.07621893,-0.09801922,-0.00117785,0.01759803,0.02011761,0.99600195,0.06607045,-0.04412810,0.04083527
1757980879075,0.05155318,-0.12070924,-0.04774314,0.00195692,0.01972554,0.02527664,0.99600030,0.06608140,-0.04401764,0.04097682
1757980879086,-0.16935373,0.01101129,0.01963860,-0.00779221,0.01152033,0.02103613,0.99600120,0.06603738,-0.04395255,0.04109567
1757980879097,-0.09321045,-0.00204015,-0.04388939,0.00291977,0.02011827,0.01801175,0.99600092,0.06605344,-0.04384190,0.04119474
1757980879108,0.02863083,0.03508442,-0.05463529,-0.00037225,0.02485482,0.01731213,0.99600316,0.06605135,-0.04370271,0.04129169
1757980879120,-0.02375823,-0.03896350,-0.07982765,-0.00739422,0.01363823,0.01383311,0.99600604,0.06600994,-0.04362634,0.04136915
1757980879131,0.03740244,-0.10343728,-0.08377725,-0.01800027,0.01182453,0.02142470,0.99601054,0.06591094,-0.04356130,0.04148699
1757980879142,0.04191121,0.02274846,0.03775845,-0.03096520,0.01692384,0.01558556,0.99602271,0.06573444,-0.04346484,0.04157583
1757980879153,-0.01139783,-0.21914631,-0.05282606,-0.02262787,0.00559476,0.02713858,0.99602599,0.06561112,-0.04343435,0.04172373
1757980879164,0.01330575,-0.01647463,0.07626617,-0.04289338,0.01959873,0.00353766,0.99604556,0.06537306,-0.04332557,0.04174336
1757980879175,0.03065026,-0.04453277,-0.02974273,-0.03775203,0.01170752,0.02786704,0.99605571,0.06516165,-0.04326001,0.04189942
1757980879186,0.04086415,0.03801317,-0.08743028,-0.02803668,0.01775625,0.02693992,0.99606392,0.06500464,-0.04316058,0.04205028
1757980879198,-0.01023681,0.10042868,-0.11010829,-0.02171812,0.02210273,0.01242501,0.99607417,0.06488411,-0.04303791,0.04211924
1757980879209,0.05418164,0.10013929,-0.03483106,-0.00755929,0.03256775,0.01614160,0.99608091,0.06484216,-0.04285716,0.04220883
1757980879220,-0.02208640,0.08371133,-0.08186939,-0.00259664,0.01857974,0.02050680,0.99608146,0.06482748,-0.04275218,0.04232469
1757980879231,-0.00152724,-0.09046229,0.00630430,-0.02428906,0.02927611,-0.01730664,0.99610090,0.06469511,-0.04259262,0.04223037
1757980879242,-0.02548451,-0.11822008,-0.00986947,-0.04239120,0.02332900,-0.03127452,0.99612928,0.06445772,-0.04246198,0.04205523
1757980879253,-0.04702094,0.27351916,0.06718468,-0.04910367,0.02486498,0.00131425,0.99615286,0.06418028,-0.04232150,0.04206266
1757980879265,-0.02288359,0.16689210,0.00063916,-0.03893764,0.03722455,0.00855262,0.99617369,0.06396223,-0.04211304,0.04211055
1757980879276,-0.03414860,0.03065427,-0.02449922,-0.03828673,0.03774970,0.00318554,0.99619540,0.06374974,-0.04190353,0.04212823
1757980879287,0.07660852,-0.30217471,-0.06505046,-0.03324609,0.03565583,0.01291598,0.99621262,0.06356356,-0.04170385,0.04220056
1757980879298,0.11659792,-0.22604810,-0.01665446,-0.01992451,0.02973209,0.01006061,0.99622440,0.06345099,-0.04153587,0.04225740
1757980879309,0.02152589,-0.06752165,-0.02206856,-0.03358284,0.02100445,-0.00554864,0.99624193,0.06326964,-0.04142244,0.04222744
1757980879320,0.00035197,-0.00855296,0.02858027,-0.04514336,0.01533988,-0.01220132,0.99626441,0.06301684,-0.04133654,0.04215911
1757980879331,0.03426090,-0.00310128,0.02684894,-0.05099353,0.02027341,-0.00079854,0.99628712,0.06273382,-0.04122402,0.04215468
1757980879342,0.02686606,-0.02591145,-0.00000000,-0.04547521,0.02532403,0.00947151,0.99630674,0.06247916,-0.04108221,0.04220772
1757980879354,-0.19101616,-0.07460084,0.05701975,-0.04358971,0.02518817,0.00427157,0.99632681,0.06223506,-0.04094115,0.04223164
1757980879365,-0.04960365,-0.04217699,-0.00440762,-0.02198851,0.03167299,0.00480547,0.99634025,0.06211522,-0.04076854,0.04225783
1757980879376,0.02620030,0.09266460,0.06163365,-0.02072451,0.03378675,0.00797079,0.99635343,0.06199813,-0.04057764,0.04230287
1757980879387,0.16831586,0.25506813,-0.08692352,-0.02568457,0.02359387,-0.00108907,0.99636787,0.06185558,-0.04044670,0.04229682
1757980879398,0.10116297,0.06301710,0.01304776,-0.01554640,0.03377749,-0.00346961,0.99638176,0.06176852,-0.04025754,0.04227739
1757980879409,0.00380132,0.06272172,-0.00950329,-0.01687123,0.01971587,-0.01344008,0.99639525,0.06167404,-0.04014713,0.04220213
1757980879421,0.03124171,0.01785895,0.00718526,-0.02602752,0.02286642,-0.02400249,0.99641528,0.06152699,-0.04001794,0.04206652
1757980879432,0.06153354,0.00266823,-0.00452844,-0.03346912,0.03149041,-0.01564253,0.99643700,0.06134458,-0.03984632,0.04198126
1757980879443,-0.04333466,0.01535620,-0.04901557,-0.01444605,0.01622906,-0.00709167,0.99644718,0.06126440,-0.03975624,0.04194191
1757980879454,0.10831252,-0.20437491,-0.09499003,-0.00151575,0.03516053,-0.00311777,0.99645636,0.06125584,-0.03955759,0.04192429
1757980879465,-0.01571090,-0.04156588,-0.03061969,-0.00781903,0.03135857,-0.00439562,0.99646685,0.06121284,-0.03938511,0.04190011
1757980879476,0.03688925,-0.06519828,-0.02388918,-0.00616779,0.03045762,0.00441583,0.99647459,0.06117860,-0.03921608,0.04192462
1757980879488,-0.03503254,0.15718760,0.11008370,-0.01375424,0.03027428,-0.00435276,0.99648733,0.06109952,-0.03904200,0.04189959
1757980879498,-0.01767358,0.01651918,-0.04347773,-0.01370750,0.02273018,-0.00784018,0.99649834,0.06102618,-0.03892039,0.04185765
1757980879509,0.06690495,0.02592533,0.02879409,-0.02217745,0.02796653,-0.00204446,0.99651253,0.06090199,-0.03876378,0.04184620
1757980879521,-0.02833260,-0.07532853,-0.06106637,-0.01243318,0.01828290,-0.00215865,0.99652134,0.06083174,-0.03866048,0.04183400
1757980879532,0.03668783,0.09893421,0.02413306,-0.03714577,0.02180236,-0.00775123,0.99654022,0.06062744,-0.03854057,0.04179137
1757980879543,0.06635492,-0.01440299,-0.02230595,-0.00889416,0.03564695,-0.01545792,0.99655445,0.06057808,-0.03834273,0.04170558
1757980879554,0.33163063,-0.09574780,0.21587026,-0.01266002,0.03641539,-0.01081267,0.99656912,0.06050718,-0.03813880,0.04164503
1757980879565,0.10670076,-0.02097950,0.10221458,-0.01814620,0.03171193,-0.02040868,0.99658652,0.06040738,-0.03796439,0.04153278
1757980879576,0.09577719,-0.03078704,0.03971974,-0.00794975,0.03773599,-0.02550653,0.99660333,0.06036246,-0.03775118,0.04138867
1757980879588,-0.40099685,0.20039330,-0.22219200,-0.01245554,0.03309973,-0.02780581,0.99662101,0.06029271,-0.03756582,0.04123296
1757980879599,-0.06250747,-0.05172304,-0.06087133,-0.01084342,0.02834344,-0.03131623,0.99663759,0.06023307,-0.03740993,0.04106072
1757980879610,0.04658582,0.04871609,0.04235075,-0.01643447,0.03155045,-0.03168498,0.99665723,0.06014022,-0.03723167,0.04088170
1757980879621,0.01478693,-0.04114996,-0.10846603,0.00857626,0.02749463,-0.02010916,0.99666462,0.06018781,-0.03707907,0.04077009
1757980879632,0.02589037,0.03827638,0.03244949,-0.00600752,0.02008180,-0.01833767,0.99667484,0.06015477,-0.03696862,0.04066923
1757980879643,0.01348604,-0.09813237,-0.02213442,0.01160484,0.03112827,-0.01644859,0.99668118,0.06022034,-0.03679275,0.04057630
1757980879654,-0.19907158,0.42838795,0.40499597,-0.01658426,0.02742680,-0.03240391,0.99669948,0.06012913,-0.03664190,0.04039808
1757980879666,-0.11082566,0.15209586,0.11448875,-0.02693870,0.03070700,-0.03075882,0.99672184,0.05997827,-0.03646994,0.04022583
1757980879677,0.01815845,-0.05499800,0.01532497,-0.02536826,0.02462185,0.00123368,0.99673502,0.05983748,-0.03633329,0.04023268
1757980879688,0.20380898,-0.33795451,-0.31365907,-0.03585006,0.03072798,-0.01354984,0.99675675,0.05963313,-0.03615814,0.04015544
1757980879699,0.11481439,-0.04609298,-0.22383746,-0.00688932,0.02890643,-0.01289856,0.99676753,0.05959558,-0.03600060,0.04008515
1757980879710,0.12493555,0.14611468,-0.07147290,0.02037495,0.02959468,0.00790855,0.99676491,0.05970866,-0.03583635,0.04012904
1757980879721,-0.00111862,0.05862653,-0.05091815,0.02129521,0.01652792,-0.03341174,0.99676863,0.05982898,-0.03574297,0.03994026
1757980879733,-0.00170884,0.01006997,0.00528347,-0.01661943,0.01033010,-0.06128728,0.99678960,0.05973758,-0.03568615,0.03960318
1757980879743,0.07152681,-0.05466541,0.08917102,-0.02956252,0.00739449,-0.02122576,0.99680556,0.05957350,-0.03564511,0.03948538
1757980879755,0.02196024,-0.06673441,0.12198826,-0.02429234,0.00550956,-0.01442719,0.99681809,0.05943625,-0.03561398,0.03940386
1757980879766,0.04150101,-0.11153986,0.08480009,-0.02062866,0.02335586,-0.02175432,0.99683430,0.05932176,-0.03548436,0.03928313
1757980879777,-0.04688291,-0.03451578,0.04693427,-0.02369300,0.01897872,-0.00607188,0.99684731,0.05918908,-0.03537808,0.03924913
1757980879788,-0.05041519,-0.04402690,-0.08218816,-0.02185948,0.01392451,-0.00710697,0.99685879,0.05906776,-0.03530080,0.03920968
1757980879799,-0.01064282,-0.02902588,-0.01354541,-0.02261503,0.00649043,-0.02931938,0.99687388,0.05894225,-0.03526478,0.03904696
1757980879810,-0.00247273,-0.05613697,0.00343155,-0.01365153,0.00392338,-0.03109100,0.99688609,0.05886512,-0.03524261,0.03887130
1757980879821,-0.01283947,0.08090373,0.00078138,-0.03347587,0.01836191,-0.01950061,0.99690452,0.05868267,-0.03514254,0.03876502
1757980879833,-0.07070397,0.03819128,-0.03062839,-0.01311470,0.02203811,-0.01356227,0.99691624,0.05860858,-0.03501802,0.03868839
1757980879844,-0.05415596,0.02396562,-0.03693736,-0.00969741,0.02387960,-0.01395759,0.99692705,0.05855476,-0.03488549,0.03861093
1757980879855,0.09027271,-0.02481130,-0.29229043,-0.00560641,0.02736350,-0.00469111,0.99693526,0.05852336,-0.03473225,0.03858466
1757980879866,0.00760202,0.03035623,-0.06112712,-0.03108691,0.03446725,-0.00655508,0.99695343,0.05835083,-0.03454096,0.03854827
1757980879877,-0.04094311,0.01697692,0.05367685,-0.02505914,0.04543148,-0.01221047,0.99697323,0.05820924,-0.03428427,0.03847929
1757980879888,-0.23019492,-0.04340611,0.12144634,-0.01261178,0.03061057,-0.01670820,0.99698671,0.05813925,-0.03411438,0.03838655
1757980879899,-0.00650588,0.02060490,0.10235437,-0.01162811,0.04179803,-0.00920584,0.99700023,0.05807529,-0.03388450,0.03833592
1757980879911,-0.04435445,0.06537401,0.04972813,-0.01857913,0.04450214,-0.02901552,0.99702096,0.05797125,-0.03363528,0.03817344
1757980879922,-0.04941837,-0.01631739,-0.03683947,-0.03156799,0.03664866,-0.02294974,0.99704264,0.05779763,-0.03343372,0.03804721
1757980879933,0.01664440,-0.06308363,0.10286842,-0.03120910,0.05318034,-0.01400011,0.99706610,0.05761973,-0.03313059,0.03796741
1757980879944,-0.08333483,-0.00445573,-0.05239935,-0.02963451,0.04424744,-0.01679378,0.99708726,0.05745526,-0.03288501,0.03787421
1757980879955,0.09048758,-0.09169911,0.05069790,-0.01846233,0.05915846,-0.01523314,0.99710697,0.05735372,-0.03255964,0.03779042
1757980879967,0.01765912,0.07897436,0.12291729,-0.01944852,0.05205461,-0.01120086,0.99712556,0.05724189,-0.03226033,0.03772602
1757980879978,-0.07714535,-0.02254072,-0.10166226,-0.00077719,0.04782180,-0.01418960,0.99713713,0.05723766,-0.03199970,0.03764869
1757980879988,-0.13244362,0.05719156,0.02809410,-0.00194179,0.04998033,-0.01349503,0.99714921,0.05722707,-0.03172731,0.03757514
1757980880003,-0.01449954,0.05780618,0.16739366,-0.01423788,0.04085789,-0.01501678,0.99716927,0.05712029,-0.03142087,0.03746251
1757980880010,-0.40224349,-0.38227190,-1.27735462,-0.03691560,0.08309341,-0.01580509,0.99718575,0.05700585,-0.03116328,0.03741352
1757980880020,0.01672806,0.20259443,0.50111695,-0.02433529,0.05074028,-0.02179145,0.99720524,0.05688052,-0.03090197,0.03730129
1757980880029,-0.04604678,0.02029585,-0.03464344,-0.01335295,0.06610884,-0.01838791,0.99722058,0.05682177,-0.03061109,0.03722038
1757980880040,-0.06968989,0.05612110,0.03040512,-0.00851782,0.05397768,-0.00801086,0.99723433,0.05677364,-0.03030612,0.03717512
1757980880051,-0.05673187,-0.02070665,0.18600241,-0.01640587,0.06582504,-0.00753166,0.99725194,0.05668341,-0.02994408,0.03713370
1757980880062,-0.10254991,-0.13761871,0.14755713,-0.00692182,0.07063847,-0.00600114,0.99726733,0.05664430,-0.02954497,0.03709979
1757980880074,-0.12704976,-0.07428546,-0.01769462,0.00203249,0.07108376,-0.01517444,0.99728155,0.05665569,-0.02914690,0.03701481
1757980880085,-0.01425494,0.11879114,0.02090724,-0.01743435,0.08474070,-0.01380974,0.99730372,0.05655805,-0.02867236,0.03693748
1757980880096,-0.03482376,0.09402087,-0.14017955,-0.01061777,0.07428624,-0.01322088,0.99732202,0.05649753,-0.02824892,0.03686212
1757980880120,0.18034248,0.03053488,0.18035384,-0.01176572,0.04295743,-0.00957794,0.99734816,0.05635929,-0.02774417,0.03674958
1757980880136,-0.50969165,-0.09433193,-0.32765574,-0.01909872,0.11735306,-0.01206944,0.99738648,0.05620459,-0.02679361,0.03665182
1757980880184,0.15116702,-0.02282662,0.13975732,-0.00526200,0.04802105,-0.01041436,0.99743342,0.05607725,-0.02563151,0.03639979
1757980880187,-67.61216539,-8.96633204,-31.22734489,-0.10237351,1.63004040,-0.19928778,0.99750764,0.05593392,-0.02334945,0.03612079
1757980880210,7.92830499,1.32266807,3.53365769,0.03332916,0.13657336,0.00312641,0.99752005,0.05630888,-0.02181300,0.03615596
1757980880225,-0.15399144,0.00564901,-0.01466166,-0.02171815,0.12987344,-0.07020458,0.99757190,0.05613622,-0.02078050,0.03559783
1757980880239,-0.07302516,-0.04748507,0.04241837,-0.02702408,0.14449496,-0.01218391,0.99760419,0.05595786,-0.01982684,0.03551742
1757980880251,-0.04702094,-0.02853147,0.06608716,-0.00604021,0.15480224,-0.00700375,0.99762592,0.05592131,-0.01889028,0.03547505
1757980880263,-0.41628751,-0.14902225,0.31847993,-0.00830960,0.16845211,-0.01345961,0.99765120,0.05586938,-0.01783746,0.03539092
1757980880275,0.28454595,-0.11985501,-0.12550089,-0.01522432,0.17832727,0.01049892,0.99767263,0.05577803,-0.01676750,0.03545392
1757980880287,0.23427937,0.01531508,0.06457170,-0.02204306,0.15209844,0.00992898,0.99769282,0.05564577,-0.01585490,0.03551349
1757980880299,-0.07259243,-0.16281386,-0.32673610,0.00966266,0.13773699,-0.02114060,0.99770677,0.05570327,-0.01503537,0.03538770
1757980880311,-0.11196127,0.25969964,-0.10943583,-0.00358040,0.13985188,-0.01219852,0.99772272,0.05568196,-0.01420325,0.03531512
1757980880323,0.11307748,-0.07130643,0.14196888,-0.02044827,0.16394190,0.00416450,0.99774172,0.05556234,-0.01324419,0.03533949
1757980880334,0.03592872,-0.30338180,-0.11721104,-0.02622856,0.15801041,0.00476586,0.99776127,0.05540759,-0.01231193,0.03536760
1757980880346,-0.29432038,-0.10080710,-0.10853261,-0.02974614,0.15472552,-0.01221724,0.99778401,0.05523507,-0.01141452,0.03529674
1757980880358,0.49354235,0.42309391,0.60850243,-0.05465451,0.16967978,0.00396520,0.99781101,0.05492353,-0.01044735,0.03531935
1757980880369,-0.09522854,0.33280255,-0.06645948,-0.06401178,0.17454020,-0.01621103,0.99784478,0.05455227,-0.00943501,0.03522532
1757980880381,0.01400826,-0.13126289,-0.14530806,-0.02503099,0.16854217,-0.01045389,0.99786393,0.05440458,-0.00844061,0.03516364
1757980880392,-0.32487145,-0.20231394,-0.43506904,-0.02487041,0.15650541,-0.01410807,0.99788162,0.05426282,-0.00754853,0.03508323
1757980880404,0.08965069,-0.12128739,0.14909698,-0.03481758,0.15260944,-0.02102093,0.99790335,0.05405914,-0.00665577,0.03496026
1757980880415,-0.17745270,-0.06260596,0.05125933,-0.04114982,0.15277262,-0.01970965,0.99792519,0.05382664,-0.00579260,0.03484890
1757980880427,-0.08975985,-0.02172301,-0.03401001,-0.04488802,0.16968960,0.01327826,0.99794118,0.05357527,-0.00484234,0.03492325
1757980880438,0.05758456,0.02630942,0.16794892,-0.05766292,0.16718585,0.01812373,0.99795948,0.05324371,-0.00388102,0.03502747
1757980880449,-0.02073205,0.01487299,0.00360557,-0.03516426,0.16413825,0.02020525,0.99796939,0.05304151,-0.00293723,0.03514365
1757980880461,0.29191926,0.16026646,0.19481274,-0.01437111,0.16587433,0.01289879,0.99797335,0.05296247,-0.00202492,0.03521459
1757980880472,-0.01331630,0.09014598,0.06531690,0.00855187,0.14777996,0.01965647,0.99796821,0.05301079,-0.00118996,0.03532565
1757980880483,-0.10269420,0.05321427,-0.22406006,0.02331921,0.13507310,0.02231386,0.99795735,0.05314254,-0.00042680,0.03545172
1757980880494,-0.15030696,0.13256887,-0.02427317,0.01850977,0.12862472,0.03242565,0.99794529,0.05324712,0.00029993,0.03563493
1757980880506,0.01120300,-0.11903191,-0.03360901,0.02492976,0.13153769,0.03186561,0.99793082,0.05338798,0.00104312,0.03581497
1757980880517,0.04213406,-0.04437953,0.11146604,0.00799695,0.12282815,0.03110166,0.99792120,0.05343276,0.00173096,0.03598914
1757980880528,0.08778601,0.15372486,-0.09835972,-0.00022024,0.11256689,0.03820644,0.99791232,0.05343154,0.00235570,0.03620118
1757980880539,0.10306363,-0.09818356,0.05376637,0.00734312,0.10148891,0.03492614,0.99790150,0.05347266,0.00292404,0.03639677
1757980880551,-0.03782681,0.02063887,0.16437740,-0.00376150,0.08662183,0.02763749,0.99789537,0.05345141,0.00341345,0.03655292
1757980880562,0.03610682,-0.21897415,0.05705854,-0.00192258,0.07542810,0.03506974,0.99788728,0.05344074,0.00383208,0.03674756
1757980880573,0.04644141,0.08078870,-0.09481787,0.00814081,0.07088256,0.03029179,0.99787706,0.05348592,0.00422548,0.03691568
1757980880584,0.18090185,0.05191291,0.02256005,-0.01275815,0.05825564,0.03850793,0.99787135,0.05341320,0.00455753,0.03713517
1757980880595,0.14477439,0.11286928,-0.13770686,-0.01096725,0.04942812,0.04120865,0.99786490,0.05335343,0.00482692,0.03735976
1757980880607,-0.15126651,-0.03912312,0.01609021,-0.00088495,0.04299514,0.03183664,0.99785714,0.05334838,0.00507199,0.03754123
1757980880618,0.37598699,-0.04076354,-0.05346873,-0.00503901,0.02810955,0.04339767,0.99784874,0.05332041,0.00522800,0.03778209
1757980880629,0.11547771,-0.10844939,0.05939987,-0.00668870,0.00894062,0.02623330,0.99784484,0.05328229,0.00527896,0.03793161
1757980880640,0.06090576,-0.13676071,0.01161786,-0.02824615,0.00366648,0.01106769,0.99785065,0.05312835,0.00529894,0.03799193
1757980880651,0.27835926,-0.06449596,-0.11144135,-0.02571023,-0.00700751,0.04690957,0.99784847,0.05298437,0.00525970,0.03825463
1757980880662,0.28959362,0.10999167,-0.20765598,-0.04017197,-0.00743171,0.04361330,0.99785119,0.05276142,0.00521845,0.03849668
1757980880673,0.01804769,0.06965228,-0.03938301,-0.03278712,-0.00601767,0.02030756,0.99785667,0.05257781,0.00518476,0.03861040
1757980880685,-0.03801317,0.10501137,0.09123160,-0.01890276,-0.01261419,0.04550176,0.99785271,0.05247195,0.00511412,0.03886521
1757980880696,-0.09982829,-0.12205555,0.06765794,0.00592408,-0.01890697,0.01153806,0.99784902,0.05250483,0.00500918,0.03892925
1757980880707,0.04127192,-0.11801551,0.11680398,-0.05630335,-0.03881217,-0.02784128,0.99787228,0.05219516,0.00479572,0.03877612
1757980880718,0.10379752,-0.09370209,0.08317381,-0.08718867,-0.03763800,-0.01514146,0.99790224,0.05170255,0.00458306,0.03869057
1757980880729,0.11333306,-0.05347073,0.04792014,-0.07445066,-0.04310682,0.02422133,0.99791957,0.05128562,0.00434166,0.03882621
1757980880740,0.05131777,-0.06272172,0.03801317,-0.06277943,-0.06001850,0.02508843,0.99793350,0.05093406,0.00400556,0.03896671
1757980880751,-0.04276134,-0.14595871,0.03795825,-0.06388697,-0.04774546,0.01427766,0.99794947,0.05057949,0.00374057,0.03904595
1757980880762,-0.00319991,-0.20361444,0.00920199,-0.04911737,-0.05713025,0.02853346,0.99795802,0.05031180,0.00342921,0.03920146
1757980880774,0.10536448,0.01067595,0.01424622,-0.04922081,-0.07777473,0.02150643,0.99796854,0.05003616,0.00299367,0.03932189
1757980880785,0.24030146,0.17466064,0.09849794,-0.04485757,-0.07918825,-0.00355658,0.99798299,0.04978720,0.00255418,0.03930215
1757980880796,0.11391586,0.13855838,0.02920411,-0.04364510,-0.09397404,0.00897294,0.99799458,0.04953842,0.00201853,0.03935330
1757980880807,0.03877756,0.06813443,0.06675952,-0.03554814,-0.07986486,0.00410912,0.99800426,0.04934113,0.00157528,0.03937610
1757980880818,0.04844542,0.09595725,0.07726035,-0.04003155,-0.08442761,0.01644323,0.99801238,0.04911495,0.00109826,0.03946901
1757980880829,0.06654028,0.00448571,0.00301663,-0.01821653,-0.08579411,0.01998786,0.99801336,0.04901476,0.00062639,0.03957894
1757980880841,0.00524504,0.08339023,0.00266496,-0.01441303,-0.08714280,0.00798574,0.99801575,0.04893333,0.00013404,0.03962406
1757980880852,0.14830323,0.23551093,0.03864079,-0.03384785,-0.08274750,0.01864350,0.99802075,0.04874716,-0.00032108,0.03972660
1757980880863,0.11015179,0.33067135,-0.06797445,-0.01668507,-0.08370729,0.00691647,0.99802350,0.04865373,-0.00078984,0.03976533
1757980880874,0.04506786,0.07027114,0.00786118,-0.01642647,-0.08200202,0.01153956,0.99802492,0.04856256,-0.00124495,0.03982938
1757980880885,-0.01995691,-0.18273289,0.12145378,-0.01892367,-0.08423414,-0.01042205,0.99803170,0.04845659,-0.00171666,0.03977101
1757980880896,-0.09790432,-0.27966506,0.14450784,-0.03215253,-0.10024689,-0.01155576,0.99804170,0.04827975,-0.00226802,0.03970746
1757980880907,0.04103694,0.00572789,0.04053586,-0.02374440,-0.10129861,-0.00192877,0.99804711,0.04814678,-0.00283529,0.03969666
1757980880919,0.04561580,0.01377977,0.06082107,-0.01806938,-0.09605929,0.00596202,0.99804898,0.04804559,-0.00337322,0.03973004
1757980880930,0.06272172,0.00142549,0.02850987,-0.00089786,-0.08841579,0.01451151,0.99804419,0.04804056,-0.00386835,0.03981131
1757980880941,-0.01520527,0.15157750,0.06842370,-0.01059531,-0.09766247,0.01238245,0.99804200,0.04798123,-0.00441526,0.03988065
1757980880952,-0.02112151,0.06347684,0.14564772,0.01369098,-0.09288660,-0.00020537,0.99803598,0.04805722,-0.00493078,0.03987951
1757980880963,-0.00290259,0.12239246,0.21672657,-0.00002355,-0.08848068,0.01832301,0.99802937,0.04805708,-0.00542185,0.03998120
1757980880975,-0.01110208,0.00963862,0.01883989,-0.00330503,-0.07901575,0.00506265,0.99802660,0.04803841,-0.00586829,0.04000981
1757980880986,0.03120948,-0.15829708,-0.23749819,-0.00208254,-0.07845590,0.00629543,0.99802306,0.04802675,-0.00630764,0.04004506
1757980880997,0.06662494,-0.10602925,-0.04257116,-0.00197971,-0.07084064,0.00549688,0.99801987,0.04801596,-0.00669372,0.04007502
1757980881008,-0.12600809,0.04678196,0.04679909,-0.01197367,-0.08435254,-0.01094916,0.99802229,0.04794831,-0.00717031,0.04001316
1757980881019,0.09587959,-0.00403280,0.16043863,-0.01096004,-0.06728608,-0.00663932,0.99802394,0.04788748,-0.00754375,0.03997631
1757980881030,0.00967529,0.02563953,0.12190870,-0.00407006,-0.07706858,-0.00351902,0.99802248,0.04786489,-0.00797148,0.03995678
1757980881041,-0.01032829,0.11134456,0.09795058,-0.00450953,-0.07758094,0.00146944,0.99801977,0.04783941,-0.00840981,0.03996508
1757980881053,0.13034293,0.08129650,0.11074354,0.02318423,-0.07923072,-0.00516987,0.99801102,0.04796693,-0.00884558,0.03993665
1757980881064,0.10902867,0.12701581,0.09219921,0.01834079,-0.07491300,0.00691207,0.99800072,0.04806963,-0.00926510,0.03997535
1757980881075,0.01425494,0.04466547,0.07412567,0.04672692,-0.07521371,0.00525970,0.99798290,0.04833131,-0.00968629,0.04000481
1757980881086,-0.22142669,0.04371514,0.04751646,0.04643597,-0.08004590,0.00554754,0.99796458,0.04859135,-0.01013455,0.04003587
1757980881097,-0.11928255,0.08363946,0.03918494,0.04613022,-0.06887001,0.01633612,0.99794448,0.04884737,-0.01051678,0.04012654
1757980881108,-0.10580701,-0.00568931,0.01267447,0.07069168,-0.07577660,0.01248764,0.99791813,0.04923617,-0.01093355,0.04019522
1757980881119,0.00926139,0.01915345,0.08556418,0.05856440,-0.05793230,0.00328372,0.99789755,0.04956413,-0.01125797,0.04021361
1757980881131,0.00285099,-0.03896350,0.02470856,0.04790129,-0.06476536,0.01317439,0.99787706,0.04983238,-0.01162066,0.04028739
1757980881142,-0.04181448,0.03041053,-0.00000000,0.05744793,-0.06880360,0.03110935,0.99784933,0.05015409,-0.01200596,0.04046160
1757980881153,-0.13414967,0.10524041,0.02130292,0.06265189,-0.06393804,0.01160872,0.99782484,0.05050181,-0.01236081,0.04052603
1757980881164,-0.12094117,0.17270399,-0.08901270,0.07413101,-0.06156607,0.01558212,0.99779613,0.05091324,-0.01270250,0.04061251
1757980881175,0.04659181,0.07330805,-0.05833822,0.10133660,-0.05554925,0.04875758,0.99775185,0.05148072,-0.01301358,0.04088555
1757980881186,0.08737342,-0.08780270,-0.07173590,0.08916213,-0.06171070,0.00932874,0.99771896,0.05198449,-0.01336224,0.04093826
1757980881197,0.02658565,-0.03634657,0.07577553,0.03289530,-0.06215512,-0.02980421,0.99771152,0.05216706,-0.01370721,0.04077284
1757980881209,-0.02902588,-0.12771387,0.00000000,0.02035116,-0.06600552,0.01230178,0.99769772,0.05228000,-0.01407354,0.04084112
1757980881220,0.04826131,-0.11326896,0.01248270,0.02469439,-0.04996157,0.02674654,0.99768034,0.05241829,-0.01435332,0.04099090
1757980881231,-0.07412567,-0.12164213,-0.01900658,0.01842473,-0.05358541,0.01120183,0.99766797,0.05252147,-0.01465340,0.04105363
1757980881242,-0.08710356,-0.09580268,-0.03018346,0.01626660,-0.04902084,0.01872593,0.99765489,0.05261175,-0.01492547,0.04115756
1757980881253,0.07587223,-0.11412511,-0.03090710,0.01809745,-0.04763863,0.03824717,0.99763666,0.05271310,-0.01519224,0.04137174
1757980881264,0.02339852,-0.07336227,0.01227982,0.00453356,-0.04378470,0.02527148,0.99762587,0.05273803,-0.01543306,0.04151074
1757980881276,-0.04413304,-0.11438521,0.00836830,0.00397916,-0.03696299,0.01487599,0.99761793,0.05276051,-0.01564190,0.04159479
1757980881287,-0.19892996,0.09242582,0.08783396,-0.00893281,-0.04042868,0.03290887,0.99760930,0.05271049,-0.01586830,0.04177908
1757980881298,-0.07821790,0.02536892,0.02610782,-0.00076983,-0.02807117,0.03584904,0.99759878,0.05270626,-0.01602269,0.04197625
1757980881309,-0.06974127,0.05044786,-0.05368908,0.01219074,-0.01940506,0.02696168,0.99758716,0.05277391,-0.01613039,0.04212588
1757980881320,-0.00611293,-0.00316348,-0.03895493,0.01771922,-0.00738410,0.04344898,0.99757093,0.05287314,-0.01617174,0.04236920
1757980881331,-0.05672141,0.00996469,0.01415012,0.01900309,-0.01680054,0.03572875,0.99755537,0.05297861,-0.01626498,0.04256749
1757980881343,-0.03238946,0.05154895,-0.05742801,0.02153333,0.00041767,0.02990347,0.99754172,0.05310027,-0.01626262,0.04273645
1757980881354,-0.06474741,0.18505069,0.06813804,0.02965430,0.01371455,0.03524499,0.99752578,0.05326485,-0.01618651,0.04293206
1757980881365,-0.06551278,0.08067952,-0.07873177,0.03893195,0.01334851,0.02656066,0.99750892,0.05348287,-0.01611176,0.04308080
1757980881376,-0.00823346,0.06130236,0.07114557,0.03185300,0.01716757,0.00029916,0.99750096,0.05365806,-0.01601733,0.04308244
1757980881387,0.08800298,-0.17157569,-0.03761493,0.02625499,0.01111391,-0.00764712,0.99749584,0.05380640,-0.01595454,0.04303923
1757980881398,0.05343624,-0.03162233,0.08198963,0.02955202,0.01169752,-0.00922885,0.99749027,0.05396894,-0.01589020,0.04298848
1757980881409,0.03480569,0.01304471,-0.04807107,0.01518088,0.00188304,-0.00362231,0.99748668,0.05405471,-0.01587956,0.04296801
1757980881421,0.07237633,0.02589639,0.03039583,0.02304872,0.00666403,0.00789594,0.99747844,0.05418263,-0.01584258,0.04301183
1757980881432,-0.01385255,-0.02221287,-0.06556415,0.04034166,-0.01789891,0.01041545,0.99746203,0.05440855,-0.01594281,0.04307016
1757980881443,0.08170440,0.00402993,0.06034964,0.03969647,-0.01125785,0.01434228,0.99744555,0.05462886,-0.01600529,0.04314976
1757980881454,0.34287191,-0.29004303,-0.22136676,0.03353113,-0.00927583,0.01924540,0.99742974,0.05481664,-0.01605724,0.04325753
1757980881465,0.00872606,0.00734502,-0.07318634,0.03643644,-0.02030769,0.00880893,0.99741480,0.05501704,-0.01616893,0.04330598
1757980881476,-0.01047090,0.05408237,-0.03645808,0.03140414,-0.02205217,0.01641333,0.99739908,0.05519290,-0.01629242,0.04339790
1757980881488,-0.21080986,0.23151411,0.11954082,0.05084553,-0.00462213,0.00647263,0.99738096,0.05548272,-0.01631877,0.04343479
1757980881499,-0.11000244,0.09617817,0.06325812,0.04776387,-0.01500192,0.00421450,0.99736426,0.05574064,-0.01639978,0.04345755
1757980881510,-0.03360037,-0.04405996,-0.10061957,0.04053303,-0.00656307,0.00397048,0.99734985,0.05596966,-0.01643686,0.04347998
1757980881521,-0.00277530,-0.04920687,-0.05264655,0.04602762,0.00061344,0.00247173,0.99733480,0.05622741,-0.01643343,0.04349382
1757980881532,-0.05309528,-0.03101623,-0.02934491,0.03430036,-0.00175405,0.00679028,0.99732236,0.05641606,-0.01644307,0.04353117
1757980881543,-0.04265628,-0.07227634,-0.11343889,0.02992247,0.00098727,-0.00354284,0.99731375,0.05658512,-0.01643750,0.04351115
1757980881554,0.11254164,-0.32308202,0.08855034,0.04165127,0.00619544,-0.00622169,0.99730268,0.05681629,-0.01640311,0.04347662
1757980881565,0.06062415,-0.10765260,0.02890370,0.03491170,0.01658294,0.00510810,0.99729180,0.05701179,-0.01631025,0.04350523
1757980881577,-0.04278726,-0.01764013,-0.08141068,0.03885592,0.01184034,0.00664253,0.99727891,0.05722744,-0.01624453,0.04354209
1757980881588,-0.20373002,0.26931986,-0.21391824,0.02852685,0.01653750,0.00583773,0.99726980,0.05738720,-0.01615192,0.04357479
1757980881599,-0.06727784,0.02480158,-0.09763408,0.02212149,0.00943376,0.01995712,0.99725873,0.05750997,-0.01609956,0.04368555
1757980881610,-0.07587223,-0.12769085,-0.04958835,0.00445121,0.01206838,-0.00571104,0.99725978,0.05753490,-0.01603198,0.04365357
1757980881621,0.01269882,-0.07579124,0.01907415,-0.00678225,0.01823317,0.01453250,0.99726004,0.05749725,-0.01593079,0.04373422
1757980881632,0.02031812,-0.09965552,-0.05998682,-0.03826748,0.02574152,0.05408155,0.99726133,0.05728487,-0.01578792,0.04403437
1757980881644,-0.02317756,-0.00412631,-0.12107563,-0.00979967,0.02747198,0.02870625,0.99725974,0.05722803,-0.01562858,0.04420087
1757980881655,0.14164019,0.19123639,-0.19050890,-0.00533305,0.03341277,0.01247399,0.99726129,0.05719763,-0.01543813,0.04427197
1757980881666,0.07191846,0.08781368,-0.16556846,0.01579609,0.02949855,0.04077259,0.99724905,0.05728293,-0.01527884,0.04449214
1757980881677,0.06643179,-0.05672253,-0.08789437,0.01275785,0.03227617,0.01539519,0.99724404,0.05735182,-0.01510455,0.04457528
1757980881688,-0.24521494,-0.17832103,0.10825578,-0.01231446,0.01887351,-0.03536960,0.99725830,0.05728348,-0.01499980,0.04437898
1757980881699,0.03355013,-0.04703663,0.06153241,-0.04515194,0.02451855,-0.00004543,0.99727501,0.05702837,-0.01486127,0.04437872
1757980881710,0.01039256,-0.03942111,-0.03065456,-0.04288321,0.01760479,0.01011052,0.99728743,0.05679251,-0.01476444,0.04443433
1757980881722,0.11386594,-0.05986805,-0.01113824,-0.03578278,0.02167625,0.01106961,0.99729859,0.05657782,-0.01463439,0.04450075
1757980881733,-0.04852473,-0.01945000,-0.13039232,-0.03023212,0.01414888,0.01016251,0.99730606,0.05642363,-0.01456223,0.04455257
1757980881744,0.05990145,0.01619189,0.00865085,-0.02296580,0.00716981,0.01486554,0.99731016,0.05629617,-0.01452244,0.04463508
1757980881755,-0.03633511,-0.19815647,-0.00779099,-0.02191673,-0.00403776,0.00888225,0.99731452,0.05617344,-0.01454505,0.04468482
1757980881766,-0.02790748,-0.02768242,0.05589832,-0.04440825,-0.02377870,-0.01994012,0.99733169,0.05592253,-0.01467940,0.04457216
1757980881778,0.15124054,-0.07095235,0.03734334,-0.03680968,-0.02190589,-0.00549801,0.99734289,0.05571456,-0.01480316,0.04454109
1757980881789,0.18347240,0.18361957,0.01046203,-0.03548187,-0.03367934,0.00213221,0.99735062,0.05551586,-0.01499177,0.04455303
1757980881800,0.04292660,0.07032750,-0.01161129,-0.02532912,-0.03253334,0.00673883,0.99735400,0.05537655,-0.01517070,0.04459010
1757980881811,0.07345076,-0.00712762,-0.02657758,-0.01766531,-0.02895697,0.01391752,0.99735351,0.05527409,-0.01533865,0.04467082
1757980881822,0.03285313,0.00871632,-0.01759728,-0.03548244,-0.04212387,0.00686710,0.99735882,0.05508603,-0.01556191,0.04470721
1757980881833,0.02414299,-0.07429947,0.00289253,-0.02265053,-0.03470865,0.00264214,0.99736199,0.05496372,-0.01574934,0.04472148
1757980881844,-0.06206261,0.05950866,0.00876355,-0.03030143,-0.04360869,-0.00865141,0.99736981,0.05478949,-0.01600009,0.04467174
1757980881855,0.17020780,-0.02186562,0.15156543,-0.00920214,-0.03604261,-0.01703146,0.99737348,0.05474026,-0.01619291,0.04458062
1757980881866,-0.01678256,0.01382120,0.06751004,-0.02309729,-0.04253166,-0.02391567,0.99738257,0.05461207,-0.01642896,0.04444789
1757980881877,-0.00872419,0.04710550,0.02595854,-0.03179044,-0.03931899,-0.02839835,0.99739573,0.05443404,-0.01664915,0.04428886
1757980881888,-0.13919565,0.06920188,-0.20812246,-0.01920709,-0.03259518,-0.01648722,0.99740269,0.05432552,-0.01683331,0.04419570
1757980881900,-0.00746867,0.05274747,-0.05601502,-0.02118478,-0.01996490,-0.00474536,0.99740848,0.05420583,-0.01694612,0.04416889
1757980881911,-0.09950142,0.01467304,-0.07655731,-0.02294086,-0.03237109,-0.00136495,0.99741258,0.05408080,-0.01712254,0.04416145
1757980881922,0.01388004,-0.01520091,0.06350640,-0.03654629,-0.02081798,0.01046341,0.99741905,0.05387614,-0.01723912,0.04422005
1757980881933,-0.03421185,-0.03611251,0.00950329,-0.03931047,-0.02308173,0.00314344,0.99742789,0.05365600,-0.01736838,0.04423765
1757980881944,-0.00521775,-0.06174479,0.02168302,-0.03745255,-0.02118259,0.00155822,0.99743662,0.05344814,-0.01748594,0.04424630
1757980881955,-0.07465649,0.01985417,0.06784152,-0.01611592,-0.01763923,-0.00219596,0.99744026,0.05335789,-0.01758472,0.04423400
1757980881967,-0.02880772,0.06134144,0.00256735,-0.00538214,-0.03047378,-0.00227280,0.99743940,0.05332748,-0.01775690,0.04422116
1757980881978,0.01467562,0.11925013,0.01020615,-0.00071735,-0.02067352,-0.00670256,0.99743921,0.05332350,-0.01787163,0.04418396
1757980881989,0.06772705,0.08078870,-0.10836329,0.01363339,-0.01729212,0.00302065,0.99743270,0.05339916,-0.01796761,0.04420073
1757980882000,0.01054697,0.09337939,0.00866298,-0.00296959,-0.01312492,0.00423175,0.99743120,0.05338239,-0.01804176,0.04422463
1757980882011,-0.00106171,-0.05490943,-0.05332542,0.01669472,-0.00573226,0.00415290,0.99742464,0.05347504,-0.01807358,0.04424768
1757980882022,-0.06617510,-0.03055173,0.01690543,0.00627823,-0.01372224,0.00152174,0.99742095,0.05351051,-0.01815111,0.04425628
1757980882034,0.05153797,-0.08468575,-0.00009741,0.00060638,-0.00681681,-0.00141974,0.99742041,0.05351397,-0.01818996,0.04424819
1757980882045,-0.03082220,0.02869746,0.01904199,-0.00315503,-0.01284227,-0.01533243,0.99742373,0.05349693,-0.01825931,0.04416539
1757980882056,-0.03241678,0.37196587,-0.00105592,0.00539053,-0.01218309,-0.00958783,0.99742323,0.05352712,-0.01832754,0.04411170
1757980882067,-0.01235428,0.10358588,-0.07792699,0.01241384,-0.01771751,-0.00590649,0.99741913,0.05359664,-0.01842675,0.04407863
1757980882078,0.02864578,0.03893442,-0.00625439,0.02187132,-0.00942830,0.00065245,0.99741148,0.05371802,-0.01847908,0.04408225
1757980882089,0.07519586,-0.26238931,-0.00900672,0.01482762,-0.00687569,0.01209891,0.99740329,0.05380106,-0.01851758,0.04415000
1757980882101,-0.01454557,-0.22418926,-0.06478403,0.03167680,-0.01918183,0.01309837,0.99738832,0.05398003,-0.01862596,0.04422401
1757980882112,-0.03687742,-0.00819831,0.05955871,-0.01731768,-0.01726494,-0.01582877,0.99739562,0.05388392,-0.01872178,0.04413616
1757980882123,0.06642067,-0.14962730,0.00468235,-0.02384560,-0.01935660,0.00838870,0.99739862,0.05375396,-0.01882728,0.04418187
1757980882134,0.00409829,-0.08791551,-0.05767904,-0.02689243,-0.00798397,0.00788606,0.99740402,0.05360067,-0.01887278,0.04422683
1757980882145,-0.05445432,0.02070972,-0.11827335,-0.02036332,-0.00802065,-0.00516414,0.99741039,0.05348969,-0.01891650,0.04419868
1757980882156,-0.03360044,-0.10845415,0.18580883,-0.00548794,-0.00112872,-0.00584461,0.99741340,0.05345869,-0.01892287,0.04416566
1757980882168,0.01437594,0.09170123,-0.13060790,0.02272495,-0.00597658,-0.00657664,0.99740762,0.05358481,-0.01895604,0.04412916
1757980882179,0.01704599,0.04490947,-0.00977726,0.01813050,-0.00289363,-0.02949993,0.99740914,0.05368634,-0.01897225,0.04396396
1757980882190,0.01140395,0.24328426,-0.22427768,-0.00779716,-0.00944385,-0.06554128,0.99742660,0.05364268,-0.01902513,0.04359693
1757980882201,0.04289092,-0.03536233,-0.03474467,-0.02238292,-0.00935406,-0.00472231,0.99743342,0.05351845,-0.01907705,0.04357072
1757980882212,0.03541902,-0.05666017,0.00022260,-0.02325440,-0.00052798,-0.00364063,0.99744124,0.05338823,-0.01908001,0.04355033
1757980882223,-0.07347176,-0.15375078,-0.04473095,-0.02623932,-0.00300335,-0.01287810,0.99745182,0.05324260,-0.01909667,0.04347886
1757980882234,-0.03431551,-0.07918219,-0.02492921,-0.04354823,0.00116065,-0.00050552,0.99746517,0.05299655,-0.01909012,0.04347600
1757980882245,-0.03089108,-0.20255012,-0.04368615,-0.03221998,-0.00018481,0.00255429,0.99747386,0.05282095,-0.01909112,0.04348992
1757980882257,0.06900810,0.39049918,-0.22299800,-0.03883338,-0.00736486,-0.01596339,0.99748859,0.05260154,-0.01913274,0.04339973
1757980882268,-0.01765257,0.09385131,-0.03363997,-0.03549454,-0.00786284,-0.02219118,0.99750360,0.05240277,-0.01917677,0.04327546
1757980882279,-0.00047501,0.09386676,0.00253337,-0.02061314,-0.00401219,-0.01042129,0.99751161,0.05228940,-0.01919883,0.04321814
1757980882290,-0.05299360,-0.30529457,0.22506154,-0.01996054,0.00124205,0.00124387,0.99751735,0.05217662,-0.01919182,0.04322517
1757980882301,0.00532569,0.03552888,0.07632351,-0.02376327,0.01179044,0.00545094,0.99752418,0.05204474,-0.01912638,0.04325542
1757980882312,-0.01741553,-0.14271058,-0.07740235,-0.01052828,0.01253045,0.00302106,0.99752783,0.05198631,-0.01905684,0.04327219
1757980882324,-0.07868175,0.06887492,0.09628527,-0.05196153,-0.00099009,-0.00049373,0.99754310,0.05169272,-0.01906243,0.04326940
1757980882335,0.01237239,-0.01786933,-0.05351379,-0.02359076,0.01543628,-0.01569807,0.99755529,0.05156180,-0.01897676,0.04318227
1757980882346,0.00387012,0.05708423,-0.01161035,-0.01763801,0.01366511,-0.01036448,0.99756427,0.05146390,-0.01890092,0.04312475
1757980882357,-0.00291122,-0.14371061,0.19579755,-0.01178931,0.01557570,-0.01891142,0.99757373,0.05139906,-0.01881525,0.04302074
1757980882368,-0.04755102,0.06166772,0.03887710,-0.01661983,0.00377707,-0.02903108,0.99758591,0.05130599,-0.01879410,0.04285817
1757980882379,0.01893593,0.06906605,0.00281620,-0.02007356,0.00596313,-0.01687250,0.99759628,0.05119458,-0.01876100,0.04276452
1757980882390,0.01741553,0.18431434,-0.13545411,-0.00499381,0.01096398,-0.01029102,0.99760129,0.05116687,-0.01870015,0.04270741
1757980882402,-0.03032492,0.01354861,0.00220887,-0.00523436,0.00765909,-0.00707455,0.99760529,0.05113756,-0.01865726,0.04266779
1757980882413,-0.05938211,0.02938438,-0.01577418,-0.01663877,0.00686814,-0.01573388,0.99761446,0.05104521,-0.01861914,0.04258047
1757980882424,-0.00290259,-0.09626917,-0.03676611,-0.00223330,0.00567348,-0.00025507,0.99761575,0.05103282,-0.01858766,0.04257905
1757980882435,-0.01035353,-0.02333538,-0.00972273,-0.01812806,0.00079651,0.00298544,0.99762034,0.05093039,-0.01858316,0.04259592
1757980882446,-0.04364157,-0.11024697,0.01376803,-0.01413919,0.00322719,0.00402544,0.99762373,0.05085192,-0.01856525,0.04261826
1757980882458,0.08657109,0.18804174,0.10665202,-0.02024152,0.01014959,0.00186179,0.99763022,0.05073654,-0.01850739,0.04262887
1757980882468,-0.05534327,0.05266764,-0.03279405,-0.01165701,0.00342066,0.00584648,0.99763243,0.05067301,-0.01848875,0.04266074
1757980882480,-0.00553888,0.07540959,0.04264230,0.00537313,0.00929621,0.00472328,0.99763075,0.05070283,-0.01843716,0.04268695
1757980882491,-0.10642823,-0.04692517,-0.03676611,0.01036762,0.00774352,0.00245468,0.99762804,0.05076037,-0.01839418,0.04270057
1757980882502,0.00313718,0.05219657,-0.00376798,0.00708496,0.01034630,0.00553612,0.99762574,0.05080040,-0.01833572,0.04273185
1757980882513,0.00648159,-0.00669565,-0.04067048,0.00823393,0.01152331,0.01250750,0.99762161,0.05084610,-0.01827177,0.04280127
1757980882524,-0.07159717,0.00483765,0.02322070,0.00435357,0.01152783,0.00343812,0.99762072,0.05087026,-0.01820779,0.04282035
1757980882535,-0.01353577,-0.14542176,-0.05874918,0.01046847,0.00962066,0.00614851,0.99761724,0.05092889,-0.01815391,0.04285478
1757980882547,-0.00570197,-0.07079952,-0.00380132,-0.00921228,0.00911481,0.01204308,0.99761790,0.05087730,-0.01810287,0.04292222
1757980882558,0.03516218,-0.26751766,0.06272172,-0.00742609,0.01069006,0.00439630,0.99762004,0.05083571,-0.01804301,0.04294684
1757980882569,0.00767049,-0.00891079,-0.00035186,-0.01073501,0.00300058,0.01290841,0.99762029,0.05077667,-0.01802650,0.04301784
1757980882580,0.01503189,0.08959761,-0.01336950,-0.00732386,0.00491341,0.01137444,0.99762013,0.05073602,-0.01799923,0.04308097
1757980882591,0.02968123,0.16528214,-0.08531777,0.00356943,0.00104821,0.01862680,0.99761466,0.05075619,-0.01799331,0.04318621
1757980882602,-0.04763155,-0.00281268,0.01719291,-0.00556403,-0.00401627,0.00393728,0.99761488,0.05072531,-0.01801560,0.04320806
1757980882613,0.04678852,-0.08546075,0.03539207,-0.02205077,-0.00158230,0.00018827,0.99762100,0.05060072,-0.01802454,0.04320912
1757980882625,0.02106303,-0.08715470,0.01234670,-0.04239284,-0.00684793,0.02395689,0.99762645,0.05036544,-0.01806255,0.04334209
1757980882636,-0.03046134,-0.03975418,-0.06749069,-0.01596023,-0.00566796,0.00506256,0.99762910,0.05027766,-0.01809372,0.04336993
1757980882647,0.03459198,0.08499398,0.00784454,-0.01182574,0.00454350,0.00680469,0.99763124,0.05021144,-0.01806828,0.04340804
1757980882658,0.15392460,0.02839928,-0.32390349,0.00862443,0.00667008,0.00955549,0.99762712,0.05026016,-0.01803059,0.04346202
1757980882669,-0.02191854,0.03600778,-0.08115264,0.02450601,-0.00236264,0.01383537,0.99761677,0.05039495,-0.01804359,0.04353812
1757980882680,-0.01101224,-0.02388038,0.08018179,0.00380917,0.00179083,-0.01994610,0.99762070,0.05041609,-0.01803365,0.04342742
1757980882691,-0.16562268,0.09412111,0.29662256,-0.02305322,-0.00058419,-0.02793273,0.99763396,0.05028699,-0.01803692,0.04327099
1757980882703,0.03041053,-0.04989228,-0.01520527,-0.03269564,-0.00426138,-0.00027361,0.99764280,0.05010390,-0.01806078,0.04326946
1757980882714,0.03967734,-0.05672141,0.03146198,-0.05035755,0.00457653,0.02370664,0.99765154,0.04982441,-0.01803538,0.04340103
1757980882725,-0.05127905,-0.06192188,0.01354541,-0.04455522,0.00436567,0.00638595,0.99766276,0.04957713,-0.01801115,0.04343648
1757980882736,-0.02222097,-0.08826150,-0.02602259,-0.03937897,0.00348805,0.03080423,0.99766655,0.04935464,-0.01799145,0.04361052
1757980882747,0.02371457,-0.05388961,0.04932979,-0.02417316,0.00146145,0.01479534,0.99766971,0.04922169,-0.01798341,0.04369189
1757980882758,0.15586018,-0.19683065,0.14982632,-0.02793468,0.00082147,0.00247037,0.99767682,0.04906665,-0.01797885,0.04370560
1757980882769,-0.01451294,0.07449976,0.04063623,-0.03025778,0.00594046,0.01018885,0.99768318,0.04889872,-0.01794588,0.04376215
1757980882780,-0.04353882,0.08998023,-0.00967529,-0.02050455,0.01519248,0.02269271,0.99768474,0.04878492,-0.01786156,0.04388810
1757980882792,-0.16138473,0.23270222,-0.04070148,-0.01540963,0.02221588,0.01687596,0.99768701,0.04869862,-0.01773715,0.04398260
1757980882803,-0.01895508,-0.03997738,-0.05269746,-0.01375420,0.01466415,0.01920647,0.99768748,0.04862091,-0.01765430,0.04409112
1757980882814,0.05396804,-0.02323781,0.03992208,-0.02561958,0.02403424,0.02302845,0.99769093,0.04848513,-0.01752692,0.04421317
1757980882825,0.04642315,0.05981339,0.00047464,-0.02223838,0.00915014,0.01436076,0.99769428,0.04836171,-0.01747613,0.04429287
1757980882836,0.05508485,0.05911732,-0.00409241,0.00409206,0.00520734,0.00607842,0.99769217,0.04838462,-0.01744697,0.04432691
1757980882847,-0.01045362,0.12781927,0.02090724,-0.00468294,0.01314376,0.01008787,0.99769221,0.04835840,-0.01737337,0.04438340
1757980882858,-0.57446000,0.27792337,-0.12913167,-0.00609334,0.00104719,0.00236308,0.99769336,0.04832488,-0.01736761,0.04439640
1757980882870,0.07270981,-0.04224224,0.05170547,-0.01047776,-0.00225442,-0.00475815,0.99769730,0.04826411,-0.01738068,0.04436880
1757980882881,0.14431915,-0.01296957,0.04605143,-0.01450370,-0.00161954,-0.00858086,0.99770325,0.04818217,-0.01738983,0.04432032
1757980882891,0.55667841,-0.25124542,0.00183719,-0.00750320,-0.00637650,-0.00020097,0.99770462,0.04814277,-0.01742331,0.04431927
1757980882903,0.03125936,0.06007746,0.10505840,-0.00838489,-0.00569118,0.00475131,0.99770518,0.04809288,-0.01745717,0.04434754
1757980882914,0.06053156,-0.04621782,-0.03268460,-0.00208980,-0.00479622,-0.00055732,0.99770541,0.04808129,-0.01748379,0.04434444
1757980882925,0.02211264,0.03389381,0.01411952,-0.01021762,-0.00355090,-0.00887804,0.99770969,0.04802815,-0.01750226,0.04429828
1757980882936,0.07216466,-0.07239259,0.00612148,0.00208650,-0.00972432,0.00453856,0.99770707,0.04803973,-0.01755623,0.04432347
1757980882947,0.00011986,0.09535825,0.04451992,-0.00183977,-0.01172303,-0.00653770,0.99770803,0.04802943,-0.01762188,0.04428686
1757980882958,0.14108782,-0.00378435,0.08255546,-0.00680163,-0.01115063,0.00031603,0.99770869,0.04799100,-0.01768488,0.04428864
1757980882970,-0.05570572,0.00874201,-0.02447079,-0.01356246,-0.00913948,-0.01449481,0.99771497,0.04791573,-0.01773560,0.04420819
1757980882982,-0.01995436,-0.07145875,0.00983875,-0.01288080,-0.00530635,-0.00426055,0.99771935,0.04783651,-0.01776824,0.04418199
1757980882992,-0.06295063,-0.07837841,-0.17289665,-0.01054338,-0.00139318,-0.01201850,0.99772467,0.04778116,-0.01777555,0.04411890
1757980883003,-0.00227779,0.00074002,-0.00583618,-0.01025555,-0.00213961,-0.01124070,0.99772961,0.04772783,-0.01778668,0.04406044
1757980883014,-0.00274752,0.02888359,0.05841723,-0.00951272,0.00218721,-0.00781270,0.99773443,0.04767313,-0.01777410,0.04401552
1757980883026,-0.00991533,0.01216881,0.00540836,-0.00947625,0.00157085,-0.00818236,0.99773926,0.04761865,-0.01776507,0.04396847
1757980883037,0.00985863,-0.02212201,0.03593071,-0.00975987,0.01170816,-0.01142159,0.99774585,0.04756399,-0.01769950,0.04390451
1757980883048,-0.05244435,-0.04164232,-0.00077409,-0.01748437,0.00899891,-0.00917766,0.99775353,0.04746783,-0.01765001,0.04385403
1757980883060,-0.18816924,-0.26213544,-0.01027666,-0.01872302,0.00248808,-0.00287194,0.99775968,0.04735923,-0.01763558,0.04383738
1757980883070,0.02088991,-0.04794435,0.04774313,-0.04141081,0.00991335,0.00425349,0.99777001,0.04713976,-0.01758304,0.04385992
1757980883081,0.07955647,0.11172682,0.05067663,-0.02436777,0.01676595,-0.00029364,0.99777809,0.04700451,-0.01748999,0.04385829
1757980883093,0.14284670,0.16889452,-0.03621632,-0.00577522,0.00432769,0.00318126,0.99777927,0.04697188,-0.01746553,0.04387626
1757980883104,-0.02004209,0.09342829,0.04581513,-0.01136008,0.00798671,-0.01277696,0.99778631,0.04690713,-0.01742001,0.04380344
1757980883116,-0.00482143,0.05337373,0.02571432,-0.00967360,0.00456121,-0.01285274,0.99779279,0.04685006,-0.01739310,0.04372761
1757980883126,0.08713969,0.06374536,-0.01127641,-0.01194365,0.00730458,0.01322638,0.99779332,0.04679153,-0.01735731,0.04379241
1757980883138,0.00302316,-0.03175126,0.06593069,-0.00195093,0.00875044,0.01642413,0.99779037,0.04677954,-0.01730349,0.04389342
1757980883150,-0.00725499,0.04553752,-0.01653962,-0.00067015,0.00997206,0.00468170,0.99779036,0.04677538,-0.01724166,0.04392245
1757980883161,0.19689500,-0.01514577,0.09613652,0.01366817,0.00811803,0.02015945,0.99778314,0.04684646,-0.01719945,0.04402728
1757980883169,0.22495584,0.02114785,-0.14189522,0.04095854,0.01326706,0.01991642,0.99777244,0.04701643,-0.01714439,0.04410993
1757980883180,-0.14770176,-0.08299923,0.07094264,0.01735792,-0.00604648,-0.02079429,0.99777241,0.04711364,-0.01717825,0.04399348
1757980883191,-0.06365040,0.08778186,-0.11172995,-0.00926228,-0.01216651,-0.03255101,0.99778179,0.04706131,-0.01724699,0.04380957
1757980883203,0.10888417,-0.00398634,0.09182030,-0.02656902,-0.00922552,-0.01307151,0.99779111,0.04691252,-0.01729866,0.04373637
1757980883214,0.00990987,-0.07158035,0.01929557,-0.02929621,-0.01135480,0.00424711,0.99779676,0.04674553,-0.01736338,0.04376058
1757980883226,-0.03244720,-0.00047496,0.01981258,-0.02086999,-0.00052595,-0.00050529,0.99780275,0.04661927,-0.01736656,0.04375752
1757980883236,0.12196839,-0.04448215,-0.02964239,-0.01485524,0.00481191,0.01962433,0.99780231,0.04654276,-0.01734178,0.04385859
1757980883248,-0.03046470,-0.01069851,-0.10766427,0.00341730,0.00223400,0.00268446,0.99780100,0.04656156,-0.01732949,0.04387335
1757980883259,0.05581024,0.10482995,-0.09430721,-0.00046406,-0.00830459,-0.00952780,0.99780266,0.04655896,-0.01737600,0.04382000
1757980883270,0.01541076,0.00313347,0.02729150,-0.00362644,-0.00709172,-0.01669111,0.99780721,0.04653774,-0.01741748,0.04372235
1757980883282,0.00765949,-0.01467731,0.04181448,-0.01196210,-0.00488415,-0.01641117,0.99781388,0.04647076,-0.01744484,0.04363045
1757980883293,-0.01721532,-0.11369318,0.10935250,-0.01069238,-0.00219198,-0.00631156,0.99781807,0.04640981,-0.01745733,0.04359447
1757980883304,0.02647943,-0.02902021,0.02734364,-0.00889449,0.00141852,-0.00610862,0.99782194,0.04636089,-0.01744953,0.04356088
1757980883315,0.02343230,-0.00026944,0.00550037,-0.01232773,0.00106481,-0.00143200,0.99782547,0.04629432,-0.01744378,0.04355314
1757980883327,-0.05959983,0.03881759,0.02197511,-0.01434549,0.00459528,-0.00155712,0.99783047,0.04620610,-0.01741552,0.04354357
1757980883337,0.15114895,0.03547616,-0.06627790,-0.00604445,0.00869870,-0.00764375,0.99783434,0.04617557,-0.01737159,0.04350497
1757980883348,0.00515455,0.17919295,0.07867913,-0.00204555,0.01400562,-0.01438080,0.99783950,0.04616463,-0.01729666,0.04342803
1757980883360,0.00010580,0.38077276,0.25330864,-0.00235813,0.00745187,-0.02362285,0.99784689,0.04615083,-0.01725306,0.04328984
1757980883371,0.07613893,-0.03160220,-0.01083595,0.00271925,0.01645849,-0.04286513,0.99785826,0.04616620,-0.01716007,0.04304765
1757980883382,-0.00268853,-0.05057695,-0.07063820,-0.00179967,-0.00044833,-0.02523543,0.99786472,0.04615621,-0.01716256,0.04290759
1757980883393,-0.01548047,-0.33718397,-0.19350587,0.00930708,0.00286616,-0.01668403,0.99786658,0.04620786,-0.01714666,0.04281499
1757980883404,0.02998401,0.08075078,0.08022090,0.00177994,0.00930740,-0.02691400,0.99787352,0.04621792,-0.01709407,0.04266293
1757980883415,0.06151069,-0.01518845,-0.06006417,0.01642588,-0.00618822,-0.00950087,0.99787094,0.04630990,-0.01712872,0.04260973
1757980883426,0.08800169,0.06806976,0.05743444,0.01548276,-0.01301674,-0.02029113,0.99787052,0.04639274,-0.01719836,0.04250117
1757980883437,0.00157337,-0.06138386,-0.00676366,0.02402007,-0.01262450,-0.01786297,0.99786732,0.04652605,-0.01726843,0.04240203
1757980883448,-0.05047018,-0.08449796,-0.00635265,0.00701841,-0.02904405,-0.01723724,0.99786676,0.04656535,-0.01743107,0.04230550
1757980883460,0.21192340,-0.46661162,0.15965530,-0.00266659,-0.01854117,-0.01143962,0.99786835,0.04655042,-0.01753491,0.04224144
1757980883471,0.02660922,-0.03326152,0.02470856,-0.00527893,-0.01443804,-0.00539066,0.99786958,0.04652086,-0.01761576,0.04221125
1757980883482,-0.03991382,0.12354279,-0.01900658,0.00002335,-0.01237331,-0.01272647,0.99787136,0.04652099,-0.01768505,0.04213998
1757980883493,-0.19112894,0.38143982,-0.17304347,0.01315017,-0.02346522,-0.01061785,0.99786816,0.04659331,-0.01781411,0.04208158
1757980883504,0.00810372,0.06822499,0.05781457,0.00502620,-0.01627434,-0.00748616,0.99786698,0.04662146,-0.01790524,0.04203966
1757980883516,0.01226858,0.04128564,0.00894345,0.01027026,-0.01070383,-0.00998744,0.99786554,0.04668000,-0.01796626,0.04198273
1757980883528,-0.13236357,-0.04421628,-0.02936946,0.01068575,-0.02191869,-0.01364418,0.99786349,0.04674785,-0.01810544,0.04189609
1757980883538,0.26463168,0.02777406,-0.03828560,0.00610310,-0.00944985,-0.02231857,0.99786574,0.04677654,-0.01814985,0.04179120
1757980883549,-0.17128400,-0.17013419,0.00079167,0.00818684,-0.00941221,-0.00899705,0.99786470,0.04682402,-0.01820444,0.04173901
1757980883560,0.31022059,-0.12802842,0.20374060,-0.01325617,-0.00594904,-0.00652951,0.99786887,0.04675377,-0.01823597,0.04170441
1757980883571,-0.10619720,-0.06933583,-0.07454066,-0.00696629,-0.00138336,-0.00723256,0.99787218,0.04671545,-0.01824358,0.04166463
1757980883583,-0.16240761,0.06122270,-0.01098772,-0.00531249,-0.00017624,-0.00542547,0.99787502,0.04668358,-0.01824464,0.04163207
1757980883594,-0.03649264,0.21145457,-0.09488086,0.00240171,0.00809780,-0.00307267,0.99787588,0.04669618,-0.01820213,0.04161594
1757980883605,-0.04611678,0.02939182,0.00009383,0.01453314,0.00585625,-0.00817011,0.99787459,0.04677612,-0.01816992,0.04157101
1757980883616,-0.04015258,-0.07852711,-0.00032251,0.01309754,0.00181306,-0.01962835,0.99787592,0.04685012,-0.01815967,0.04146011
1757980883627,0.02800751,-0.06628444,0.04294485,-0.00274212,-0.00220752,-0.00925314,0.99787859,0.04683463,-0.01817215,0.04140783
1757980883638,0.07513662,0.00634870,0.03084668,-0.01819903,0.00273981,0.00938800,0.99788139,0.04673544,-0.01815721,0.04145899
1757980883650,-0.02113726,0.03620046,-0.03678347,-0.01061162,-0.00013060,-0.00119012,0.99788452,0.04667442,-0.01815797,0.04145215
1757980883660,0.10928585,0.27101504,0.16535517,-0.00202383,-0.00615813,0.00112877,0.99788417,0.04666350,-0.01819122,0.04145824
1757980883672,0.07148587,0.03442303,-0.09545528,0.03797780,-0.01255814,0.02015896,0.99786822,0.04687617,-0.01826154,0.04157113
1757980883683,-0.05915752,0.06019947,-0.06321695,0.04913507,-0.03679801,-0.02851055,0.99785801,0.04715378,-0.01846945,0.04141005
1757980883695,-0.06637650,0.03060656,0.01875774,-0.01600991,-0.04406156,-0.02744749,0.99786428,0.04706013,-0.01872721,0.04124948
1757980883705,0.18516236,-0.11456309,0.08694793,0.00002752,-0.04578394,0.01883662,0.99785572,0.04706027,-0.01896529,0.04134743
1757980883716,-0.03073644,0.01820039,0.12834979,-0.01005943,-0.03317955,0.01277361,0.99785183,0.04700343,-0.01915275,0.04141960
1757980883727,-0.05325692,-0.05212671,0.01214121,0.01008383,-0.03460964,0.00766809,0.99784371,0.04705940,-0.01934484,0.04146216
1757980883739,-0.06555559,-0.02098001,0.00438350,0.01505362,-0.03698260,0.02797645,0.99782918,0.04714370,-0.01955194,0.04161883
1757980883750,0.07982765,-0.15395332,0.12354279,0.02608925,-0.03409715,0.00903338,0.99781639,0.04728980,-0.01974288,0.04166942
1757980883761,0.18194044,-0.16938291,0.29446227,0.01314275,-0.03977717,-0.00168729,0.99780880,0.04736406,-0.01996763,0.04165988
1757980883772,-0.02371661,0.02087967,0.03564150,0.01756729,-0.02822427,-0.01841069,0.99780534,0.04745980,-0.02012145,0.04155954
1757980883783,-0.23593354,0.14592651,-0.14984633,0.02214666,-0.01464602,-0.00166867,0.99779797,0.04758714,-0.02020566,0.04154995
1757980883795,-0.16084473,0.11047099,-0.27457116,0.03577057,-0.00255879,0.00696802,0.99778669,0.04778388,-0.02021974,0.04158827
1757980883806,-0.12684752,0.01978016,-0.01981238,0.03100655,-0.00650767,0.00227879,0.99777674,0.04796372,-0.02025748,0.04160149
1757980883817,-0.02694903,-0.01965085,-0.02160259,0.03353593,0.01307504,-0.00847809,0.99777121,0.04814984,-0.02018491,0.04155444
1757980883828,-0.03563285,-0.05532760,-0.01226433,0.02018608,0.02016936,0.00685863,0.99776660,0.04825885,-0.02007600,0.04159147
1757980883839,-0.09207654,-0.00905715,-0.02289819,-0.00277326,0.01978488,-0.00594818,0.99777092,0.04824345,-0.01996619,0.04155846
1757980883851,-0.09389946,-0.03042853,-0.04522179,0.00471774,0.03108172,0.00056082,0.99777306,0.04827082,-0.01978592,0.04156171
1757980883861,-0.10498690,-0.00348899,-0.02192073,-0.00809397,0.03339229,-0.01600404,0.99778232,0.04822711,-0.01960560,0.04147529
1757980883873,-0.01555973,-0.04173897,-0.05214237,-0.00117169,0.02556962,-0.02225541,0.99779069,0.04822049,-0.01946113,0.04134955
1757980883884,0.06595002,0.02707542,0.09423672,-0.00396709,0.01719786,-0.01466836,0.99779727,0.04819748,-0.01936139,0.04126447
1757980883895,0.15643027,0.03352077,0.07441459,-0.00420450,0.02261106,-0.00222079,0.99780107,0.04817562,-0.01924381,0.04125292
1757980883906,-0.04580879,0.02282067,-0.02911891,0.00665893,0.01463520,-0.00596415,0.99780222,0.04821257,-0.01916258,0.04121982
1757980883917,-0.03874090,-0.01084745,-0.04102682,0.00508520,0.01476698,-0.00449870,0.99780347,0.04824105,-0.01907989,0.04119463
1757980883928,0.02554450,-0.03162612,0.00656538,0.00893705,0.01516976,0.00861491,0.99780070,0.04829065,-0.01899569,0.04124244
1757980883940,-0.03767071,-0.01664788,-0.05402322,0.01395967,0.01344545,0.01065340,0.99779588,0.04836883,-0.01892040,0.04130210
1757980883950,-0.03261956,-0.05479931,0.02161391,0.02361554,0.01241231,0.01966742,0.99778629,0.04849989,-0.01885151,0.04141126
1757980883962,-0.00096753,-0.10255811,0.17222022,0.01162603,0.02479911,0.00681943,0.99778418,0.04856442,-0.01871388,0.04144910
1757980883973,-0.04559012,-0.05264481,0.03977684,0.00387896,0.01301723,0.00746388,0.99778274,0.04858614,-0.01864098,0.04149090
1757980883984,-0.00724555,0.08495332,-0.02132534,0.00046623,0.01209309,0.01027082,0.99778144,0.04858884,-0.01857084,0.04155047
1757980883995,-0.04032933,0.14895282,-0.01166885,-0.01223112,0.01043207,0.00628805,0.99778426,0.04852341,-0.01851503,0.04158411
1757980884006,-0.00433421,-0.06445807,-0.08080462,-0.00216315,0.01590958,0.00763234,0.99778472,0.04851129,-0.01842594,0.04162686
1757980884018,-0.06329070,-0.08372094,-0.02734763,-0.00024352,0.01292511,0.00826503,0.99778417,0.04850989,-0.01835162,0.04167438
1757980884029,-0.06144058,-0.03169311,0.00912622,-0.01094809,0.01689183,0.00915283,0.99778668,0.04845023,-0.01825956,0.04172426
1757980884040,-0.00285618,-0.02892784,0.05983513,-0.00826341,0.03242875,0.00459282,0.99779107,0.04840478,-0.01808120,0.04174952
1757980884051,-0.15941340,0.08772402,0.04406072,-0.00577358,0.02473220,-0.00334340,0.99779592,0.04837244,-0.01794270,0.04173080
1757980884062,-0.20947282,0.08409754,-0.02822423,0.01204980,0.02236218,-0.00399800,0.99779583,0.04844053,-0.01781635,0.04170821
1757980884073,0.00462359,0.15087036,0.02702232,0.01439334,0.02940351,0.00721993,0.99779317,0.04852041,-0.01765316,0.04174828
1757980884084,0.07256470,0.11174964,0.01548047,0.01970508,0.03207107,0.01184506,0.99778823,0.04862977,-0.01747517,0.04181402
1757980884095,0.11734540,-0.05944488,-0.02328979,0.02298112,0.03977251,0.01696239,0.99778195,0.04875617,-0.01725642,0.04190731
1757980884106,-0.12402847,-0.05525912,0.01146962,0.01058214,0.02863074,-0.01312734,0.99778488,0.04881490,-0.01709752,0.04183446
1757980884118,0.03727606,-0.09587735,0.05180968,-0.00284349,0.04236645,0.00536389,0.99778846,0.04879883,-0.01685815,0.04186476
1757980884129,0.02800751,-0.07235273,0.01120300,-0.00432647,0.02821612,0.04187512,0.99778238,0.04877439,-0.01669873,0.04210136
1757980884140,-0.03650280,0.08480174,-0.00060379,0.00514879,0.03890284,0.01523505,0.99778103,0.04880245,-0.01648671,0.04218439
1757980884151,0.07815551,0.40739790,0.03979293,0.02961874,0.02868681,0.01410772,0.99777212,0.04896980,-0.01632462,0.04226410
1757980884162,0.07608520,0.39309567,-0.07676641,0.07805880,0.02151222,0.02343141,0.99774697,0.04940692,-0.01620416,0.04239531
1757980884173,-0.00021597,0.05208677,-0.04595764,0.07128036,0.00299754,-0.01128154,0.99773023,0.04980253,-0.01618752,0.04233270
1757980884185,-0.03192847,-0.37007997,-0.12190870,0.03477566,0.00004557,-0.04529866,0.99773122,0.04999554,-0.01618727,0.04208129
1757980884196,0.00904953,-0.32251689,-0.05030751,-0.01210581,0.00007316,0.00231305,0.99773407,0.04992774,-0.01618686,0.04209425
1757980884207,-0.02751412,-0.15011822,-0.01503126,0.00413637,0.00436308,0.01819990,0.99772905,0.04995070,-0.01616264,0.04219526
1757980884219,0.01668718,-0.10421837,-0.02259477,-0.00838040,0.00322204,0.02894375,0.99772463,0.04990167,-0.01614379,0.04236458
1757980884229,-0.03907410,0.01926048,-0.02214411,-0.01018601,0.01711120,0.04777255,0.99771801,0.04984769,-0.01605310,0.04261777
1757980884240,-0.01123612,-0.00916415,-0.06340055,0.01908419,0.00767231,0.03418548,0.99770528,0.04995361,-0.01601052,0.04280750
1757980884251,0.07836988,-0.22059669,-0.06385694,0.01050268,-0.00209848,0.02005342,0.99769739,0.05001190,-0.01602217,0.04291880
1757980884263,0.01639532,-0.20000148,-0.06720796,0.00084804,-0.00334452,0.00777586,0.99769497,0.05001665,-0.01604090,0.04296234
1757980884274,-0.01724808,-0.08590461,-0.00750201,-0.00343407,0.00871313,0.01542434,0.99769296,0.04999707,-0.01599123,0.04305026
1757980884285,-0.12998811,0.04142047,-0.09774682,-0.02981193,0.02341149,0.02029007,0.99769825,0.04983758,-0.01586598,0.04315881
1757980884296,-0.08433505,0.08472256,0.02603090,-0.05142030,0.02260709,0.02298059,0.99770931,0.04954191,-0.01573599,0.04329095
1757980884307,-0.01739029,-0.10229309,0.00538451,-0.04929626,0.03317576,0.00754692,0.99772393,0.04926832,-0.01555187,0.04333284
1757980884319,0.02414350,-0.08552106,-0.00327050,-0.04686129,0.02566985,0.01289168,0.99773594,0.04900589,-0.01540812,0.04340503
1757980884329,-0.00073002,0.06617628,0.00576716,-0.04374994,0.03040406,-0.00139194,0.99775037,0.04876964,-0.01524393,0.04339751
1757980884341,0.03722421,0.10906027,-0.02906159,-0.03169913,0.02040656,-0.00052210,0.99776118,0.04858737,-0.01512660,0.04339451
1757980884352,0.11366723,0.14551006,0.09226687,-0.02959401,0.03404938,-0.00089471,0.99777193,0.04842757,-0.01494273,0.04338968
1757980884363,-0.00281804,-0.00633627,-0.04676562,-0.03772423,0.01396222,-0.01064501,0.99778604,0.04821442,-0.01486384,0.04332954
1757980884374,0.01347281,0.00769514,0.06611936,-0.06105467,0.01096959,-0.00517999,0.99780468,0.04787252,-0.01480241,0.04330053
1757980884385,0.10358588,-0.13969839,-0.03421185,-0.04552730,0.02236646,0.00691617,0.99781705,0.04761756,-0.01467716,0.04333926
1757980884396,-0.00193455,-0.03328890,-0.01073129,-0.05436503,0.01178432,0.01196445,0.99782914,0.04732399,-0.01461352,0.04340387
1757980884407,0.04453540,0.06369115,0.05145083,-0.03640828,0.00668838,0.00524047,0.99783814,0.04711829,-0.01457574,0.04343348
1757980884419,0.00933584,0.12043228,0.00933584,-0.02477145,0.00422900,0.00090403,0.99784486,0.04697833,-0.01455184,0.04343858
1757980884430,0.06631429,0.06589046,0.05293156,-0.01853311,0.01458991,-0.00008717,0.99785090,0.04687547,-0.01447087,0.04343810
1757980884441,0.03184859,0.08149979,0.07209437,-0.03026050,0.01424836,-0.00446773,0.99786072,0.04671206,-0.01439393,0.04341397
1757980884452,0.02499014,-0.17354066,-0.09123160,-0.02772813,0.00488033,-0.00586927,0.99786980,0.04655679,-0.01436660,0.04338111
1757980884463,0.11311455,-0.20315956,0.05286857,-0.02678631,0.01452635,-0.01276451,0.99788096,0.04640812,-0.01428598,0.04331026
1757980884474,-0.03862999,0.03333126,0.08063817,-0.02781305,0.00864797,-0.01751632,0.99789347,0.04624820,-0.01423625,0.04320954
1757980884485,-0.01825430,0.23779025,0.13224147,-0.02734795,0.00558778,-0.01534013,0.99790431,0.04610052,-0.01420608,0.04312671
1757980884497,-0.04415159,0.20845142,0.08493130,-0.00665974,-0.00060744,-0.00671994,0.99790770,0.04606222,-0.01420957,0.04308807
1757980884508,-0.00301008,0.10405287,0.01563498,-0.00090308,-0.00004939,-0.00687452,0.99790954,0.04605730,-0.01420984,0.04305060
1757980884519,0.03110418,0.09632263,0.04013443,0.01545545,0.00065895,0.00239301,0.99790514,0.04614153,-0.01420625,0.04306364
1757980884530,-0.06171842,-0.00618951,-0.03687621,0.01923331,-0.00654093,0.00936453,0.99789723,0.04625116,-0.01424353,0.04311702
1757980884541,0.01740521,-0.02210652,0.08901375,0.01448336,0.00040793,0.00009768,0.99789354,0.04633082,-0.01424129,0.04311756
1757980884553,0.12671866,-0.05857537,0.23082222,0.00231006,-0.00246266,0.00616699,0.99789117,0.04634422,-0.01425557,0.04315333
1757980884563,0.11872890,-0.02436147,0.31065622,-0.00245992,-0.00934602,0.00246896,0.99789051,0.04633143,-0.01430417,0.04316617
1757980884575,-0.02478495,0.02941493,-0.04544177,-0.00548350,-0.00455816,0.00161393,0.99789122,0.04629880,-0.01433129,0.04317577
1757980884586,-0.12085700,0.00870257,-0.18798778,0.00075771,-0.00775109,0.00147535,0.99789002,0.04630312,-0.01437547,0.04318418
1757980884597,-0.08657654,-0.01877850,-0.20897470,0.01007912,-0.00469755,0.00493400,0.99788601,0.04635704,-0.01440060,0.04321057
1757980884608,-0.08452044,-0.00192000,-0.02651622,0.01069153,-0.00368826,-0.01082431,0.99788558,0.04641317,-0.01441997,0.04315375
1757980884619,0.02744314,-0.04826401,-0.05814129,0.00737284,0.00166546,0.00484403,0.99788244,0.04645704,-0.01441006,0.04318257
1757980884630,0.02013339,-0.04133073,0.06383757,0.00594976,0.00412865,0.02171288,0.99787653,0.04648739,-0.01438900,0.04329330
1757980884642,-0.02764995,0.05726544,-0.09858578,0.00206824,0.00981117,0.00355896,0.99787584,0.04650042,-0.01432719,0.04331573
1757980884652,0.07471523,-0.07896531,0.00369572,0.01644783,0.00346097,0.00679224,0.99787098,0.04657937,-0.01431058,0.04334833
1757980884663,0.05907880,-0.06763176,-0.13811450,0.03038610,-0.00132372,0.01226524,0.99785993,0.04674953,-0.01431799,0.04341701
1757980884674,-0.01818821,-0.16766578,-0.05523147,0.04468766,-0.02171198,-0.05279490,0.99785924,0.04700201,-0.01444066,0.04311872
1757980884686,-0.02321603,0.20500730,0.08930866,-0.03100343,-0.01813502,-0.05063180,0.99787847,0.04682529,-0.01454403,0.04283012
1757980884697,0.02476647,-0.01284187,0.01284187,-0.02351198,-0.01880437,-0.00071651,0.99788336,0.04669128,-0.01465122,0.04282604
1757980884708,-0.00414190,-0.00914446,0.05691080,-0.02261038,-0.01846367,0.00082514,0.99788740,0.04656918,-0.01475092,0.04283049
1757980884719,-0.07436538,0.01085783,-0.02940214,-0.01724290,-0.00870045,-0.01022125,0.99789358,0.04647348,-0.01479921,0.04277377
1757980884730,0.00988856,-0.00794509,0.04955410,-0.01670253,-0.01624474,0.01465980,0.99789306,0.04637995,-0.01489018,0.04285586
1757980884741,0.00495966,-0.01380370,-0.03951059,-0.00244196,-0.02451843,0.01041456,0.99788910,0.04636615,-0.01502871,0.04291470
1757980884753,0.13010273,-0.01082691,0.03666337,0.00061901,-0.03653072,-0.01173554,0.99788866,0.04636959,-0.01523145,0.04284957
1757980884764,0.00637831,-0.06254750,-0.05549840,0.00376262,-0.03404441,0.00347104,0.99788371,0.04639160,-0.01543061,0.04286988
1757980884775,-0.02800195,0.02463340,0.02478588,-0.01097403,-0.01449397,0.00864439,0.99788325,0.04633398,-0.01550671,0.04291526
1757980884786,-0.25880631,0.03269132,-0.02255448,-0.01047617,0.00177199,0.01566734,0.99788235,0.04627532,-0.01549678,0.04300300
1757980884797,-0.23758229,-0.02660922,-0.02470856,-0.00780035,-0.01315298,0.00074519,0.99788305,0.04623164,-0.01557044,0.04300717
1757980884808,-0.00475961,-0.08142183,-0.00515138,-0.00810006,-0.00452154,0.00940160,0.99788248,0.04618587,-0.01559599,0.04306029
1757980884820,-0.01068027,0.04465662,0.02207547,-0.01363966,0.00168508,0.01437111,0.99788268,0.04611085,-0.01558672,0.04313933
1757980884831,-0.00285861,0.10366637,0.00805688,-0.00639829,0.00682752,0.01921154,0.99788030,0.04607534,-0.01554883,0.04324595
1757980884842,-0.06835521,0.09330349,-0.09669385,0.00980385,0.00853368,0.01601246,0.99787461,0.04613024,-0.01550104,0.04333562
1757980884853,0.09598324,0.18436386,0.04371514,0.01193546,0.01240237,0.01061495,0.99787001,0.04619708,-0.01543158,0.04339507
1757980884864,-0.01615560,0.02090724,-0.00570197,0.00148894,0.00964601,-0.00282172,0.99787115,0.04620542,-0.01537757,0.04337927
1757980884875,-0.01351086,-0.10630729,0.00115758,-0.01413047,0.01001730,0.00184800,0.99787519,0.04612700,-0.01532197,0.04338952
1757980884886,-0.07499039,-0.12272088,0.05397185,-0.02220311,0.01026463,0.00570000,0.99788042,0.04600266,-0.01526449,0.04342144
1757980884898,-0.07792699,0.02660922,-0.00380132,-0.00916100,0.01074218,0.00900312,0.99788151,0.04595136,-0.01520433,0.04347186
1757980884909,-0.06339909,0.06698413,-0.07190816,0.00701138,0.00075968,0.02090568,0.99787472,0.04599027,-0.01520012,0.04358789
1757980884921,0.06439281,0.02752879,-0.00836112,0.01466566,0.00713487,0.01851099,0.99786604,0.04608266,-0.01515517,0.04370450
1757980884931,-0.11486197,-0.01487685,0.05663159,0.01956241,0.00239173,0.03699214,0.99785395,0.04617754,-0.01514357,0.04388392
1757980884942,0.01764477,-0.06784077,-0.03109634,-0.00169431,-0.00162184,0.02370884,0.99784841,0.04616805,-0.01515265,0.04401669
1757980884954,0.17477185,-0.22675662,0.08860709,-0.00717585,0.01684894,0.03083267,0.99784402,0.04612751,-0.01505745,0.04419089
1757980884965,-0.02334591,-0.08644319,-0.02011515,-0.00808903,0.00400128,0.02294397,0.99784070,0.04608140,-0.01503465,0.04432167
1757980884991,0.09074359,0.06055876,-0.04893364,-0.00236676,0.00605550,0.00500875,0.99784040,0.04605004,-0.01495441,0.04438804
1757980884994,-18.65638877,-0.18047837,2.28449983,0.03998784,0.15303330,0.12881350,0.99783376,0.04610003,-0.01476312,0.04454905
1757980885005,3.82533743,0.21546340,-0.56392890,0.01988208,0.01616396,0.01951499,0.99782522,0.04620938,-0.01467422,0.04465639
1757980885016,-0.09448599,0.08600951,-0.04091048,0.02370506,0.01686048,0.00827399,0.99781868,0.04633620,-0.01458401,0.04470065
1757980885027,0.05095447,-0.00031847,0.07541959,-0.01267299,0.01100062,0.01202537,0.99781986,0.04626460,-0.01452186,0.04476860
1757980885038,0.09698403,-0.17853153,0.00245572,-0.00243572,0.00881818,0.01596720,0.99781720,0.04625096,-0.01447248,0.04485801
1757980885050,0.14453139,-0.23329733,0.12187717,-0.02333596,0.00416469,0.01564151,0.99781973,0.04611561,-0.01444832,0.04494873
1757980885061,0.31184356,-0.50807467,0.17895568,-0.04051778,-0.00030205,0.01469680,0.99782669,0.04588061,-0.01445008,0.04503397
1757980885073,-0.01286897,0.13699132,0.00243054,-0.03091745,-0.00908681,0.00473260,0.99783276,0.04570592,-0.01450142,0.04506071
1757980885084,-0.06631225,0.24149369,-0.08934166,0.00876687,-0.01129134,0.01223300,0.99782632,0.04575633,-0.01456634,0.04513105
1757980885095,-0.13976964,0.40260590,-0.14247298,0.00733379,-0.00879561,0.01322041,0.99782031,0.04579777,-0.01461604,0.04520575
1757980885107,-0.01313410,-0.00109180,0.02078078,0.01606661,-0.02073750,0.00197651,0.99781386,0.04588935,-0.01473424,0.04521701
1757980885118,0.04978391,0.04500726,0.03714620,-0.00520221,-0.02018572,0.00848491,0.99781137,0.04586022,-0.01484728,0.04526453
1757980885129,0.05892041,-0.12164213,0.03611251,-0.01320827,-0.02115429,0.03139144,0.99780500,0.04578625,-0.01496574,0.04544032
1757980885141,-0.04745193,-0.01882061,0.00838618,-0.00716870,-0.00911953,0.00241599,0.99780547,0.04574503,-0.01501818,0.04545421
1757980885152,-0.02099345,0.04766553,0.02859201,0.00488083,-0.01571470,0.01103580,0.99780003,0.04577261,-0.01510697,0.04551657
1757980885163,0.09976683,-0.01503523,-0.00273991,0.02954393,-0.00749243,0.02947680,0.99778438,0.04593657,-0.01514855,0.04568016
1757980885175,-0.01852577,-0.00191299,0.01736231,0.01550231,-0.01692735,-0.01309922,0.99778214,0.04602959,-0.01525012,0.04560157
1757980885185,-0.13023241,0.16821687,-0.01745421,-0.00344713,-0.01930075,-0.02512905,0.99778735,0.04601184,-0.01534951,0.04547215
1757980885197,0.06932085,0.01657791,0.00389748,0.00103418,-0.01604853,-0.01559711,0.99778969,0.04601768,-0.01544019,0.04538403
1757980885209,-0.00841069,0.05464342,0.03391095,-0.00131548,-0.01316205,0.00769283,0.99778675,0.04600985,-0.01551850,0.04542980
1757980885219,-0.10229100,0.00239368,0.10037417,-0.00224180,-0.01055784,0.00765591,0.99778464,0.04599831,-0.01557288,0.04546923
1757980885230,0.01541748,-0.13041192,-0.04792242,-0.00519229,-0.00435853,0.02861671,0.99777828,0.04596923,-0.01559728,0.04562948
1757980885242,-0.01561009,-0.08764088,0.04701043,-0.00365028,-0.00476070,0.02534424,0.99777220,0.04594842,-0.01562442,0.04577395
1757980885253,-0.15035759,-0.08271688,-0.03158224,-0.00525798,-0.00790526,0.01501852,0.99776889,0.04591793,-0.01567027,0.04586105
1757980885264,-0.18855841,-0.01613921,-0.00753709,-0.00030416,-0.01105874,0.00270002,0.99776730,0.04591622,-0.01573220,0.04587617
1757980885275,-0.08408096,0.10913663,0.01132952,0.00402328,-0.00506779,0.00204396,0.99776539,0.04593755,-0.01575906,0.04588701
1757980885286,0.19259745,0.07803533,0.03725174,0.01565291,0.00493231,0.00575854,0.99776040,0.04602364,-0.01573193,0.04591868
1757980885297,0.14415629,0.02581440,-0.00549463,0.02277222,0.00849786,0.01720557,0.99775081,0.04615116,-0.01568434,0.04601503
1757980885308,0.04126107,0.00520882,0.00946761,0.03024641,0.01661991,0.02457417,0.99773784,0.04632357,-0.01558961,0.04615510
1757980885321,0.00909922,-0.01789131,0.01017055,0.00997177,0.01242820,0.02239761,0.99772993,0.04638390,-0.01551442,0.04629061
1757980885333,-0.00589447,0.01982740,-0.03710155,0.00042512,0.00879743,0.01037369,0.99772761,0.04638660,-0.01545856,0.04635648
1757980885341,-0.19354762,-0.00437391,0.42764073,0.00163127,0.02737236,0.03461251,0.99772269,0.04639296,-0.01535180,0.04649147
1757980885352,0.09538112,0.02903086,-0.35406756,0.00518547,0.01400586,0.01153033,0.99771950,0.04642226,-0.01527267,0.04655662
1757980885364,-0.03921051,-0.02847430,-0.05041351,-0.00077155,0.00567018,0.00717222,0.99771830,0.04641790,-0.01524063,0.04659714
1757980885375,0.09055761,0.01867167,0.03921051,-0.01234228,0.00766575,-0.00563610,0.99772369,0.04634816,-0.01519732,0.04656529
1757980885387,0.11368774,-0.02673830,0.03639325,-0.00700154,0.00029907,-0.00779412,0.99772771,0.04630755,-0.01519559,0.04652009
1757980885401,0.12829621,-0.01201348,-0.00224138,-0.00017188,-0.00241651,0.00244781,0.99772669,0.04630632,-0.01521287,0.04653759
1757980885408,-0.07726850,0.25008942,0.41012606,0.00603070,-0.01442718,0.00305564,0.99772437,0.04632804,-0.01526480,0.04654859
1757980885419,0.10938465,-0.08275686,-0.20251349,0.01325257,-0.00927530,0.00791457,0.99771817,0.04640092,-0.01531582,0.04659212
1757980885431,0.00735489,0.04866570,-0.00333555,0.00375320,-0.00704008,-0.00278632,0.99771730,0.04642232,-0.01535595,0.04657624
1757980885452,0.01629865,-0.06338588,-0.11637666,0.00402980,-0.00628744,-0.00033223,0.99771440,0.04646584,-0.01542385,0.04657265
1757980885475,-0.00234942,-0.07826577,0.04510544,0.00165770,-0.01198078,-0.00258880,0.99771280,0.04648441,-0.01555803,0.04654366
1757980885496,0.00325009,-0.06028333,-0.02281168,0.00979871,-0.02599871,-0.01098218,0.99770899,0.04658974,-0.01583752,0.04642560
1757980885501,1.63503347,0.56175943,2.77508661,0.00338102,-0.07905739,-0.06313810,0.99771247,0.04659752,-0.01601935,0.04628038
1757980885541,-0.17662483,-0.00651831,-0.36196772,0.00278390,-0.00740346,0.00059456,0.99770682,0.04665431,-0.01617038,0.04629251
1757980885543,17.08286650,-7.31048046,12.80038965,-0.13003780,-0.28785966,-0.07858034,0.99771183,0.04652427,-0.01645824,0.04621393
1757980885560,-2.08582467,1.03442273,-1.68525037,-0.02517018,-0.02320958,-0.00400122,0.99771999,0.04631284,-0.01665320,0.04618032
1757980885606,0.00624269,-0.03494979,0.02630942,-0.00882721,-0.00317387,-0.00479401,0.99773327,0.04610982,-0.01672620,0.04607006
1757980885648,0.05577024,-0.04583665,-0.01409457,-0.01580178,-0.01728472,-0.01155048,0.99775342,0.04578035,-0.01708659,0.04582923
1757980885692,0.03279209,-0.05171812,-0.03816982,-0.03469800,-0.02106669,-0.00007040,0.99777994,0.04502393,-0.01754584,0.04582769
1757980885732,0.02187611,0.01415721,-0.13154088,-0.02402744,-0.01336172,-0.02869388,0.99782318,0.04454098,-0.01781441,0.04525095
1757980885771,-0.02959392,-0.00168602,0.08359320,-0.04563096,-0.00831872,-0.00014026,0.99786027,0.04363749,-0.01797912,0.04524817
1757980885785,0.57818684,-0.50164615,-1.21899265,-0.03288434,-0.06477869,-0.06386027,0.99788174,0.04341223,-0.01842286,0.04481073
1757980885849,-0.13979047,0.13253784,0.28370805,-0.00995251,-0.00790132,0.00194756,0.99788808,0.04309226,-0.01867689,0.04487334
1757980885862,0.97668786,-0.64978425,-1.65552515,-0.07321559,-0.06043030,-0.03047208,0.99790897,0.04263832,-0.01905155,0.04468441
