UnixTime(ms),Ax,Ay,Az,Gx,Gy,Gz,QuatW,QuatX,QuatY,QuatZ
1755651280571,0.00000000,0.00000000,0.00000000,0.00000000,0.00000000,0.00000000,0.99919799,0.02332167,-0.00845396,0.03143244
1755651280585,0.33317642,-0.06262483,0.32083655,-0.02159984,-0.00767254,-0.00716683,0.99920260,0.02317155,-0.00850729,0.03138263
1755651280587,10.58345218,-4.02917107,11.07167855,-0.07997213,-0.06803904,-0.05558606,0.99920637,0.02307158,-0.00859233,0.03131315
1755651280598,-2.15941620,0.70330587,-1.99831702,-0.01299109,-0.01348949,-0.01680277,0.99921037,0.02299818,-0.00866855,0.03121821
1755651280609,0.02813983,0.12353018,0.02282472,0.00155805,-0.00293025,-0.01357171,0.99921240,0.02300691,-0.00868496,0.03114221
1755651280620,0.10597998,0.35312475,-0.19595994,0.01014936,-0.01230377,-0.01179015,0.99921254,0.02306222,-0.00875201,0.03107796
1755651280632,-0.04612148,0.11344227,-0.07348050,0.01912437,-0.00372250,-0.01439970,0.99921238,0.02316932,-0.00877286,0.03099732
1755651280643,-0.06082107,-0.10453621,-0.09693357,0.02855818,-0.01002309,-0.00721619,0.99920942,0.02332924,-0.00882899,0.03095691
1755651280654,-0.00622788,-0.02569439,0.16125625,0.00420078,-0.00847606,-0.00592929,0.99920948,0.02335235,-0.00887561,0.03092430
1755651280665,-0.04728964,-0.06994925,-0.01379281,-0.00664018,-0.01703270,-0.00623921,0.99921056,0.02331583,-0.00896929,0.03088998
1755651280675,0.13524836,-0.02292070,0.12874603,-0.00098141,-0.01537063,-0.01272047,0.99921194,0.02331092,-0.00904614,0.03082638
1755651280686,-0.52435362,-0.01199315,0.07473388,-0.00963894,-0.01331855,-0.00469664,0.99921333,0.02325694,-0.00912073,0.03080008
1755651280697,-0.25392462,-0.00457417,-0.07741962,0.01891190,-0.01824191,-0.00416370,0.99921067,0.02336190,-0.00922197,0.03077697
1755651280708,-0.05624921,0.12712579,0.06532443,0.02924216,-0.01008953,-0.00290279,0.99920680,0.02352566,-0.00927847,0.03076071
1755651280719,0.54052063,0.10635480,-0.06397788,0.04599495,-0.00898837,-0.00176494,0.99920060,0.02378093,-0.00932835,0.03075092
1755651280731,0.05731084,0.04617230,0.03299611,0.01891670,-0.00890073,-0.00163763,0.99919788,0.02388686,-0.00937820,0.03074175
1755651280742,-0.02880128,-0.07803297,0.01121297,0.02203710,-0.01065641,0.00003880,0.99919439,0.02400917,-0.00943734,0.03074196
1755651280753,0.02128565,0.04015247,0.05805176,0.00863809,0.00386432,-0.00062653,0.99919355,0.02405711,-0.00941589,0.03073848
1755651280764,-0.08514258,-0.08272376,-0.01161035,0.01908596,-0.00665520,-0.00437329,0.99919139,0.02416304,-0.00945283,0.03071421
1755651280775,-0.00068967,-0.02002579,-0.01517284,0.00519660,0.00310077,0.00037787,0.99919078,0.02419240,-0.00943531,0.03071635
1755651280786,-0.23537506,-0.41161524,-0.10065730,0.00066726,0.00640035,0.00166823,0.99919074,0.02419610,-0.00939979,0.03072561
1755651280797,-0.04257129,-0.11561976,-0.02709082,-0.00053874,0.01002463,0.00346886,0.99919074,0.02419311,-0.00934415,0.03074486
1755651280809,-0.00643827,0.06972933,0.00114724,0.01209862,0.01184240,0.00107678,0.99918953,0.02426086,-0.00927784,0.03075089
1755651280820,0.15015201,0.44332855,0.09503292,0.02275180,0.01345698,0.00046157,0.99918704,0.02438827,-0.00920248,0.03075347
1755651280831,0.02850987,0.18341353,0.04941712,0.03692282,0.01596346,-0.00363057,0.99918342,0.02459504,-0.00911308,0.03073314
1755651280842,0.02747092,-0.02257280,-0.00758474,0.03297841,0.00598804,0.01382803,0.99917684,0.02477807,-0.00907985,0.03080989
1755651280853,-0.02342433,0.02047060,0.03602689,0.01793448,0.00518020,-0.00033478,0.99917466,0.02487851,-0.00905084,0.03080801
1755651280865,0.02280790,-0.13874806,-0.03041053,0.01780756,0.01552515,-0.00261568,0.99917341,0.02497823,-0.00896390,0.03079336
1755651280876,0.00836222,-0.09835108,0.04464457,0.00389941,0.01024692,-0.00097436,0.99917355,0.02499987,-0.00890703,0.03078796
1755651280887,-0.25917445,-0.36913867,-0.02904069,-0.00586329,0.00841714,-0.00276497,0.99917526,0.02496703,-0.00885989,0.03077247
1755651280898,-0.11582708,-0.00777479,-0.03648968,-0.01228113,0.00376761,-0.00721576,0.99917838,0.02489887,-0.00883898,0.03073243
1755651280909,0.12097898,0.01187165,-0.00363341,0.00097314,0.01384413,-0.00572210,0.99917993,0.02490437,-0.00876076,0.03070010
1755651280920,0.19612590,0.27962454,-0.07563853,0.00998624,-0.00029056,-0.00673633,0.99917968,0.02495980,-0.00876237,0.03066271
1755651280932,0.08707764,0.03773364,-0.04257129,0.01986962,-0.00771830,-0.01074361,0.99917837,0.02507007,-0.00880521,0.03060308
1755651280943,0.02295671,-0.00493346,-0.02791496,0.00606326,-0.01339619,-0.01262550,0.99917903,0.02510463,-0.00888157,0.03053112
1755651280954,0.07964570,-0.03778331,0.08490011,-0.01556375,-0.02291048,0.01115196,0.99917817,0.02501903,-0.00900758,0.03059245
1755651280965,-0.00768746,-0.06149968,-0.06514111,-0.01713715,-0.02028512,0.01452988,0.99917705,0.02492392,-0.00912016,0.03067309
1755651280976,0.01152381,-0.12923620,-0.14323430,-0.00107435,-0.01995878,0.01834963,0.99917302,0.02491791,-0.00923193,0.03077585
1755651280987,-0.23188031,-0.21952604,-0.14254937,-0.01208121,-0.01325153,0.02348775,0.99916995,0.02485025,-0.00930614,0.03090738
1755651280999,-0.04469640,0.06358050,-0.10639367,-0.01606470,-0.00835272,0.01455955,0.99916923,0.02476109,-0.00935249,0.03098819
1755651281010,-0.01566065,-0.00990776,-0.02809161,0.00594817,-0.00306591,-0.00410519,0.99916895,0.02479470,-0.00936982,0.03096499
1755651281021,0.10108541,0.40532201,0.05375353,-0.00826702,-0.00266131,-0.02783425,0.99917473,0.02474882,-0.00938459,0.03081051
1755651281032,0.10626564,-0.10357304,0.06910862,-0.01568345,0.00788310,-0.02693224,0.99918195,0.02466099,-0.00934044,0.03065969
1755651281043,-0.04693778,-0.04233724,0.07867532,-0.04580981,-0.00683451,-0.01563883,0.99919042,0.02440904,-0.00937803,0.03057368
1755651281054,0.07460948,-0.01211238,0.09378885,-0.03910642,-0.00011701,-0.00572553,0.99919672,0.02419004,-0.00937869,0.03054162
1755651281065,-0.03991382,-0.05511909,-0.00570197,-0.02780167,-0.01642041,-0.00729205,0.99920086,0.02403435,-0.00947064,0.03050078
1755651281077,0.04167287,-0.02081052,-0.01211139,-0.01006549,-0.01390581,0.00242469,0.99920106,0.02397849,-0.00954782,0.03051424
1755651281088,0.02709082,-0.24575245,-0.12577881,-0.00474977,-0.02887998,0.00349784,0.99919955,0.02395213,-0.00970810,0.03053365
1755651281101,-0.03660374,0.00952255,-0.02123993,-0.01245236,-0.02965670,-0.00546984,0.99920073,0.02386745,-0.00990977,0.03049646
1755651281112,-0.01990101,0.01171141,0.00279509,0.00664607,-0.02979305,-0.00019979,0.99919821,0.02390467,-0.01007661,0.03049534
1755651281124,0.03977237,0.29338167,0.24960529,-0.00045683,-0.03170186,0.01046027,0.99919471,0.02390213,-0.01025255,0.03055339
1755651281135,0.01918923,0.01030467,0.02394659,0.00413246,-0.02608520,0.01818293,0.99918962,0.02392486,-0.01039602,0.03065340
1755651281146,-0.07932066,0.10394180,0.03773375,-0.00646151,-0.01951381,0.00797275,0.99918796,0.02388835,-0.01050628,0.03069844
1755651281157,-0.04068094,0.02770332,-0.00723643,-0.00554171,-0.01895503,0.00788902,0.99918625,0.02385787,-0.01061053,0.03074183
1755651281168,-0.01454693,0.00990872,0.00704431,-0.01544234,-0.01530855,0.00057108,0.99918731,0.02377062,-0.01069702,0.03074506
1755651281179,0.03751959,-0.14824604,0.00364750,-0.00048846,-0.01416223,-0.00466376,0.99918732,0.02376791,-0.01077562,0.03071918
1755651281190,0.19579755,-0.19506087,-0.24145406,-0.01077017,-0.01178259,-0.00689598,0.99918919,0.02370868,-0.01084043,0.03068125
1755651281202,0.02834699,0.11891309,0.03727545,-0.00980613,-0.00122519,-0.00449734,0.99919121,0.02365327,-0.01084735,0.03065584
1755651281213,-0.09020254,0.17291145,0.03658321,0.00696239,-0.00403542,-0.00034160,0.99919012,0.02369157,-0.01086954,0.03065396
1755651281224,-0.19003127,0.13365084,0.17223420,0.03585763,-0.00601570,-0.00179273,0.99918528,0.02389237,-0.01090323,0.03064392
1755651281235,-0.04181448,0.01282944,-0.02280790,0.04163901,-0.01863757,-0.02289976,0.99918246,0.02412555,-0.01100760,0.03051568
1755651281246,0.07140712,0.01335968,0.10138325,0.00259661,-0.01119765,-0.00063784,0.99918153,0.02413996,-0.01106975,0.03051214
1755651281257,-0.00387012,-0.08514258,0.00967529,0.00415144,-0.02138448,0.00604293,0.99917863,0.02416300,-0.01118843,0.03054568
1755651281268,-0.03272214,-0.03672038,0.05719098,-0.00852132,-0.02097919,0.00405010,0.99917776,0.02411528,-0.01130592,0.03056836
1755651281280,0.03301694,-0.07905233,0.01389096,-0.00003310,-0.01787624,0.00770086,0.99917533,0.02411510,-0.01140513,0.03061110
1755651281291,-0.13725835,-0.08701077,0.09266994,0.00281146,-0.02501792,0.00211659,0.99917298,0.02413084,-0.01154523,0.03062295
1755651281302,0.05915751,0.15407041,0.00711825,0.01453621,-0.02669113,0.00798234,0.99916795,0.02421152,-0.01169337,0.03066726
1755651281313,-0.03011944,0.06540576,-0.04126655,0.02746250,-0.03991971,0.00629581,0.99916048,0.02436531,-0.01191692,0.03070251
1755651281324,0.13479657,0.26460557,-0.08268649,0.02147486,-0.02506862,0.00802290,0.99915459,0.02448342,-0.01205479,0.03074664
1755651281335,-0.05636316,-0.09404803,-0.09174996,0.03673203,-0.03379903,0.00500054,0.99914636,0.02468912,-0.01224407,0.03077464
1755651281346,0.05701975,-0.01948175,0.02470856,0.01738130,-0.02493741,0.01071598,0.99914038,0.02478645,-0.01238372,0.03083465
1755651281358,-0.00000000,-0.11879114,-0.01330461,0.02262451,-0.03272003,0.00511465,0.99913406,0.02491315,-0.01256695,0.03086329
1755651281369,0.02773008,-0.00866025,-0.03142743,0.02415852,-0.03814254,0.00578121,0.99912703,0.02504723,-0.01277864,0.03089538
1755651281380,0.05418164,-0.09820423,0.08514258,0.03268085,-0.03047404,-0.00360792,0.99912091,0.02522861,-0.01294777,0.03087535
1755651281391,0.01548047,-0.23510963,0.10062305,0.02503404,-0.03276599,-0.00879218,0.99911652,0.02536755,-0.01312962,0.03082656
1755651281402,-0.01412991,-0.05903024,-0.08953992,0.03638217,-0.02826536,0.00218927,0.99910879,0.02557311,-0.01328932,0.03083893
1755651281413,-0.01270631,0.12395078,-0.05591121,0.01492299,-0.02594983,0.00857006,0.99910327,0.02565593,-0.01343334,0.03088649
1755651281424,-0.03023057,0.16399598,-0.20533004,0.00673790,-0.02351906,0.00863520,0.99909910,0.02569299,-0.01356270,0.03093398
1755651281435,-0.02667833,-0.19143949,-0.01271713,-0.01183587,-0.02253512,0.01240637,0.99909693,0.02562671,-0.01368890,0.03100346
1755651281447,-0.01140395,-0.08552962,0.03991382,-0.03238450,-0.01485207,0.00908169,0.99909884,0.02544535,-0.01377207,0.03105432
1755651281458,0.04903300,-0.10752102,0.02316887,-0.03593063,-0.01154185,0.01006168,0.99910128,0.02524594,-0.01383612,0.03111016
1755651281469,-0.09040969,-0.02363409,-0.09898834,-0.01711746,-0.01817586,-0.01016922,0.99910405,0.02515008,-0.01393791,0.03105321
1755651281480,0.06219831,0.12979147,0.01860766,-0.02496153,-0.01367614,0.00768307,0.99910514,0.02501154,-0.01401381,0.03109585
1755651281491,0.02902588,0.41797267,-0.06772705,-0.01395708,-0.01191086,0.00755194,0.99910484,0.02493408,-0.01407992,0.03113777
1755651281502,0.00842454,-0.04014927,-0.08626592,-0.00328633,-0.01640852,0.01110457,0.99910206,0.02491568,-0.01417180,0.03119995
1755651281513,0.02826568,-0.05237184,0.08704309,-0.02156913,-0.01099414,-0.00050170,0.99910426,0.02479597,-0.01423282,0.03119717
1755651281525,-0.00967529,-0.31154445,-0.00387012,-0.01476726,-0.01547640,0.00806407,0.99910367,0.02471401,-0.01431872,0.03124192
1755651281536,0.02915136,0.10179425,0.04529983,-0.01045833,-0.01137773,0.00158001,0.99910392,0.02465492,-0.01438300,0.03125085
1755651281547,0.00708951,0.03085819,-0.00354475,-0.00240138,-0.01844988,0.00219883,0.99910239,0.02464159,-0.01448540,0.03126305
1755651281558,0.06278658,0.10613985,0.04840797,-0.00235001,-0.01981291,0.00012348,0.99910110,0.02462867,-0.01459437,0.03126373
1755651281569,0.01841911,0.09937851,0.06161589,-0.00106882,-0.02270357,-0.00113106,0.99909958,0.02462268,-0.01472151,0.03125740
1755651281580,0.01788202,-0.19191204,-0.08692214,0.02153465,-0.03160799,0.00182320,0.99909371,0.02474220,-0.01489693,0.03126752
1755651281591,-0.21866163,-0.67098159,-0.40249220,0.01229968,-0.03005300,0.00774724,0.99908817,0.02481046,-0.01506373,0.03131052
1755651281603,0.03362967,0.04170746,0.05549580,0.01372237,-0.01988154,0.00216756,0.99908420,0.02488731,-0.01517506,0.03132265
1755651281614,0.02744488,0.21281216,0.10270718,0.01210563,-0.02706059,-0.00051664,0.99908035,0.02495389,-0.01532390,0.03131981
1755651281625,0.12509787,0.58546324,0.29066249,0.00954277,-0.01700065,0.00140967,0.99907730,0.02500733,-0.01541910,0.03132771
1755651281636,-0.03041053,0.07365051,-0.07982765,0.02979901,-0.01820158,-0.00322794,0.99907210,0.02517420,-0.01552103,0.03130963
1755651281647,-0.05217748,0.01805479,-0.07251287,0.04882468,-0.01419832,-0.00110230,0.99906420,0.02544518,-0.01559983,0.03130351
1755651281658,-0.02515576,0.04692517,0.02515576,0.02678318,-0.00622427,-0.00709749,0.99906110,0.02559383,-0.01563437,0.03126412
1755651281669,-0.03019507,-0.03865360,0.00848515,0.00507295,-0.01452490,0.00240585,0.99905872,0.02562173,-0.01571426,0.03127735
1755651281680,0.03572822,-0.05022357,0.01094188,-0.00223368,-0.01603382,0.01561259,0.99905491,0.02560933,-0.01580325,0.03136400
1755651281691,0.10255811,0.14996705,-0.06966211,0.01446315,-0.00267077,0.00661016,0.99905146,0.02568960,-0.01581807,0.03140069
1755651281703,-0.14512940,-0.06772705,-0.11029834,0.00054678,-0.01483945,0.01229422,0.99904793,0.02569264,-0.01590043,0.03146892
1755651281714,-0.00285955,-0.01492702,0.02364693,-0.01088668,-0.00023558,0.01331676,0.99904713,0.02563167,-0.01590175,0.03154350
1755651281725,-0.13256880,-0.15377237,-0.06449620,0.01148880,0.00713590,0.01540904,0.99904341,0.02569544,-0.01586215,0.03162902
1755651281736,-0.05678003,0.09585482,-0.09383430,0.03286242,0.01291962,0.00653553,0.99903865,0.02587946,-0.01578980,0.03166562
1755651281747,-0.05300679,0.05711879,-0.02529398,0.03659139,0.02823436,-0.02524877,0.99904026,0.02608255,-0.01563309,0.03152548
1755651281758,0.01935059,-0.01064282,-0.00580518,-0.00057950,0.02554133,0.00300116,0.99904203,0.02607933,-0.01549134,0.03154214
1755651281769,-0.05027327,-0.12541348,-0.01289366,-0.00406052,0.01609189,0.00354374,0.99904339,0.02605659,-0.01540123,0.03156199
1755651281780,0.10490782,-0.06599500,0.04010064,-0.01784133,0.02187731,0.00196375,0.99904749,0.02595757,-0.01527981,0.03157288
1755651281792,0.15480469,0.04644141,-0.26510304,-0.01007300,0.01319401,0.00559579,0.99904908,0.02590167,-0.01520658,0.03160394
1755651281803,0.04100970,-0.06567545,0.02152367,-0.01137905,0.01258480,0.01136286,0.99904978,0.02583794,-0.01513611,0.03166757
1755651281814,0.04751646,0.03706284,0.08172831,-0.01704241,0.00452502,0.00101023,0.99905245,0.02574251,-0.01511076,0.03167323
1755651281825,-0.18979189,-0.20179022,0.12476864,-0.00122861,-0.00838106,0.00621479,0.99905084,0.02573575,-0.01515686,0.03170741
1755651281836,0.06476061,0.05658778,0.03331336,0.00629776,-0.00322591,0.00719424,0.99904838,0.02577102,-0.01517493,0.03174770
1755651281847,0.00136703,0.11575603,-0.02033879,0.00043877,-0.00504047,0.01569919,0.99904506,0.02577350,-0.01520340,0.03183640
1755651281858,0.03430961,-0.06077880,-0.06384216,0.01912634,-0.00695105,0.01470594,0.99903923,0.02587773,-0.01524129,0.03191655
1755651281870,0.01084596,0.11294531,0.05604326,0.00618764,-0.00143091,0.00295495,0.99903768,0.02591239,-0.01524930,0.03193310
1755651281881,-0.02090724,-0.01948175,-0.11023818,0.00452987,-0.01394901,0.00320598,0.99903525,0.02593775,-0.01532742,0.03195105
1755651281892,0.10330103,0.11071300,-0.13303528,-0.00414985,-0.01476308,0.00336859,0.99903399,0.02591472,-0.01540935,0.03196974
1755651281903,0.03446870,-0.09451922,-0.01260256,0.00058615,-0.00888354,-0.00333004,0.99903373,0.02591800,-0.01545910,0.03195110
1755651281914,0.00972713,-0.14312523,0.09398856,-0.01072203,-0.00959318,0.00582969,0.99903342,0.02585850,-0.01551234,0.03198345
1755651281925,-0.03289600,-0.01209412,0.24188233,-0.03064759,-0.00479040,0.00066225,0.99903727,0.02568840,-0.01553893,0.03198713
1755651281936,0.00967529,-0.06482447,-0.09094776,0.00710182,-0.00458375,0.00238881,0.99903544,0.02572782,-0.01556437,0.03200038
1755651281948,-0.01293560,0.11245477,-0.02506378,-0.00194147,-0.00076878,-0.00544028,0.99903664,0.02571685,-0.01556871,0.03196965
1755651281959,0.02898060,-0.01402385,-0.00634713,0.00769821,0.00065222,-0.01903683,0.99903895,0.02575919,-0.01556512,0.03186494
1755651281970,-0.04195271,0.06802629,-0.02114914,0.01415717,-0.00467328,-0.02506447,0.99904096,0.02583847,-0.01559129,0.03172458
1755651281981,0.21611082,0.04354235,0.00577046,0.00752108,-0.00054508,-0.01426821,0.99904233,0.02587983,-0.01559429,0.03164611
1755651281992,0.10325758,-0.04133932,-0.09879967,0.00257918,-0.01299466,-0.00977745,0.99904255,0.02589428,-0.01566706,0.03159135
1755651282003,0.07408653,0.00923164,0.03729333,-0.00104742,-0.00501645,0.00170803,0.99904195,0.02588836,-0.01569540,0.03160100
1755651282014,-0.05710677,0.00945531,-0.00667844,0.00865394,-0.01773088,0.00568855,0.99903819,0.02593596,-0.01579292,0.03163229
1755651282026,-0.13112606,-0.04328009,0.04011015,0.00764776,-0.02123813,0.00378006,0.99903449,0.02597917,-0.01591292,0.03165365
1755651282037,0.05142461,-0.04039221,0.02268985,-0.00211790,-0.01964680,0.00250786,0.99903261,0.02596741,-0.01602196,0.03166757
1755651282048,-0.00955466,-0.10311071,-0.07121476,-0.00483916,-0.03079821,-0.00626041,0.99903164,0.02594031,-0.01619443,0.03163251
1755651282059,0.02751525,-0.02013504,0.06949184,-0.01461478,-0.02091505,-0.01676329,0.99903477,0.02585993,-0.01630946,0.03154031
1755651282070,-0.03048575,-0.00610224,-0.06976416,0.00101521,-0.02724791,0.00417211,0.99903135,0.02586567,-0.01646341,0.03156388
1755651282081,0.04510999,0.28508048,0.05984441,-0.00348669,-0.00820998,-0.00258378,0.99903155,0.02584649,-0.01650857,0.03154967
1755651282092,-0.22873559,0.43825725,-0.01482513,0.00647351,-0.00779040,-0.00827303,0.99903135,0.02588274,-0.01655219,0.03150334
1755651282103,-0.01722548,-0.06866003,-0.05934756,0.00921534,-0.00936922,-0.00719363,0.99903042,0.02593389,-0.01660419,0.03146342
1755651282115,0.10450196,-0.15670585,-0.00580471,-0.00007480,-0.00879836,-0.00623516,0.99903071,0.02593347,-0.01665346,0.03142850
1755651282126,0.14825135,-0.35304728,-0.01140395,-0.00101503,-0.01314016,-0.00980310,0.99903136,0.02592778,-0.01672705,0.03137361
1755651282137,0.03430610,-0.06826034,0.06688809,-0.02825918,-0.01267673,-0.01094237,0.99903610,0.02577236,-0.01679677,0.03131342
1755651282148,-0.05431759,-0.14557539,-0.03145328,-0.02351576,-0.02428321,-0.02295754,0.99904126,0.02563949,-0.01693397,0.03118371
1755651282159,0.07622817,0.07706917,0.04206678,-0.03093420,-0.02083614,-0.01404107,0.99904615,0.02546626,-0.01705065,0.03110508
1755651282170,0.03891606,0.12588594,0.02004930,-0.01257265,-0.02024920,-0.00397063,0.99904668,0.02539774,-0.01716101,0.03108344
1755651282182,-0.12720461,0.03904196,-0.18867085,0.00327188,-0.02624530,-0.00155704,0.99904395,0.02541606,-0.01730799,0.03107472
1755651282193,-0.15585398,-0.09503292,-0.23568163,0.02210051,-0.02280802,-0.00362763,0.99903921,0.02553983,-0.01743571,0.03105441
1755651282204,-0.01294070,-0.01746736,-0.04561210,0.01435622,-0.01320997,-0.00144362,0.99903613,0.02561950,-0.01750903,0.03104640
1755651282215,0.05805176,0.02128565,0.09481787,0.00456542,-0.02162129,-0.00663634,0.99903452,0.02564484,-0.01762902,0.03100956
1755651282226,0.09023846,0.05988786,0.15650466,0.00259952,-0.01712179,-0.02276303,0.99903640,0.02565940,-0.01772491,0.03088209
1755651282237,0.06481213,-0.05951668,0.03110419,-0.00582709,-0.01625713,-0.00985414,0.99903730,0.02562735,-0.01781432,0.03082789
1755651282248,-0.06859293,0.01074894,0.01193290,-0.01267422,-0.02566011,-0.00785250,0.99903791,0.02555574,-0.01795930,0.03078353
1755651282259,0.08289928,0.01808766,0.06808667,-0.00102749,-0.01665853,0.00071672,0.99903627,0.02555004,-0.01805175,0.03078750
1755651282271,-0.06140325,0.15227526,-0.03023930,-0.00567909,-0.02213819,-0.00696266,0.99903603,0.02551824,-0.01817573,0.03074851
1755651282282,0.01938514,0.05050158,-0.05463085,0.01951943,-0.01541660,-0.00942844,0.99903331,0.02562657,-0.01826129,0.03069619
1755651282293,0.19350587,-0.03096094,0.03483106,0.00303088,-0.01206253,-0.00767179,0.99903296,0.02564339,-0.01832824,0.03065361
1755651282304,0.03799604,-0.03457143,0.03102696,-0.00662460,-0.00878843,-0.00932009,0.99903460,0.02560629,-0.01837745,0.03060142
1755651282315,-0.17295991,-0.11784082,-0.03991382,-0.00686200,-0.02082293,-0.01396436,0.99903583,0.02556787,-0.01849406,0.03052321
1755651282326,-0.11280548,-0.00453896,0.04190622,-0.01830002,-0.02217112,-0.01590189,0.99903880,0.02546722,-0.01861600,0.03043575
1755651282338,0.03476477,-0.00171923,-0.02785328,0.00759837,-0.02215292,-0.01355095,0.99903771,0.02550977,-0.01874006,0.03035987
1755651282349,-0.02470856,0.20051945,0.01710592,0.00738252,-0.02521408,-0.01335408,0.99903626,0.02555111,-0.01888126,0.03028509
1755651282360,0.03508018,0.02960000,-0.10137012,0.03887858,-0.02257779,-0.01019741,0.99903011,0.02576494,-0.01900544,0.03022900
1755651282371,-0.08006955,0.02177118,0.00832834,0.02500687,-0.02774049,-0.01219639,0.99902559,0.02590498,-0.01916078,0.03016070
1755651282382,0.03979400,-0.21915875,-0.06039952,0.00191268,-0.02736534,-0.00661627,0.99902346,0.02591579,-0.01931540,0.03012332
1755651282393,0.09384691,-0.34184722,-0.09421309,-0.01513026,-0.03090285,0.00760990,0.99902105,0.02583257,-0.01948536,0.03016517
1755651282404,0.00520707,-0.09386794,0.00846148,-0.02118736,-0.04117497,0.00327440,0.99901905,0.02571498,-0.01971388,0.03018335
1755651282416,-0.02551795,0.10569260,0.06286130,-0.00946257,-0.03957050,-0.02252614,0.99901983,0.02566152,-0.01993746,0.03005607
1755651282427,-0.01253733,0.20781633,-0.06917330,-0.01231226,-0.04716204,-0.00176836,0.99901665,0.02559380,-0.02019685,0.03004635
1755651282438,0.08874346,0.16333566,-0.08988386,0.00669137,-0.04817544,0.00683609,0.99900904,0.02563127,-0.02046663,0.03008463
1755651282449,-0.00950329,0.05416876,-0.16535727,0.03198903,-0.04943375,-0.00885915,0.99900021,0.02581041,-0.02074346,0.03003502
1755651282460,-0.05122722,-0.05165916,-0.09201895,0.00758894,-0.04925311,-0.02821913,0.99899811,0.02585253,-0.02101681,0.02987840
1755651282471,0.02515576,-0.09433411,0.01161035,-0.04249755,-0.04409734,-0.02919793,0.99900384,0.02561667,-0.02126155,0.02971635
1755651282482,0.11136830,-0.24969685,-0.13508372,-0.04708974,-0.05694033,-0.00899966,0.99900523,0.02535296,-0.02158042,0.02966596
1755651282494,0.11403024,-0.05427667,-0.11719199,-0.07316429,-0.04608224,-0.01574245,0.99901248,0.02494690,-0.02183618,0.02957858
1755651282505,0.02383528,-0.12154367,-0.13284061,-0.08492517,-0.03351443,0.01104366,0.99901829,0.02447132,-0.02202386,0.02964043
1755651282516,-0.22916623,-0.21067519,-0.17557202,-0.07210005,-0.04179314,0.01489657,0.99902042,0.02407117,-0.02225581,0.02972311
1755651282527,0.02128565,-0.28638868,-0.20318116,-0.09238870,-0.03555657,0.01886722,0.99902510,0.02355841,-0.02245315,0.02982782
1755651282538,0.05224658,-0.17947669,-0.11029834,-0.14722918,-0.04562440,0.00814496,0.99903697,0.02274129,-0.02270636,0.02987302
1755651282549,0.23383120,-0.41677834,-0.44391238,-0.17659958,-0.05303386,-0.02653602,0.99905697,0.02173467,-0.02300866,0.02972177
1755651282560,-0.08262764,0.25620464,-0.18393187,-0.16348907,-0.06590170,-0.06553673,0.99907818,0.02084365,-0.02336782,0.02936459
1755651282571,0.18736339,0.36609002,-0.16265145,-0.16830632,-0.08358165,-0.07914250,0.99909909,0.01990955,-0.02383170,0.02892535
1755651282583,0.23607716,-0.11271717,-0.38314162,-0.14085689,-0.10305231,-0.05603637,0.99910951,0.01912780,-0.02440364,0.02861435
1755651282594,0.28445363,-0.31154445,-0.36185597,-0.13017950,-0.14256106,-0.01620545,0.99910601,0.01840530,-0.02519485,0.02852441
1755651282605,0.17996046,-0.24526869,-0.23027198,-0.14657948,-0.15567862,-0.01183992,0.99910038,0.01759178,-0.02605887,0.02845870
1755651282616,0.04424596,-0.22569033,-0.13443305,-0.18278178,-0.18072517,-0.00790494,0.99909223,0.01656821,-0.02707093,0.02841443
1755651282627,0.14305612,-0.41084578,-0.24749746,-0.22839151,-0.20738785,0.00141824,0.99908037,0.01530063,-0.02822193,0.02842230
1755651282638,0.25542775,-0.33137880,-0.18770069,-0.28494508,-0.23336767,0.01756228,0.99906313,0.01371919,-0.02951712,0.02851977
1755651282649,0.16386757,-0.19667533,-0.00203764,-0.30055179,-0.22885615,0.01552042,0.99904366,0.01203610,-0.03079872,0.02860669
1755651282660,0.28788973,-0.10569796,-0.39383400,-0.32866824,-0.23705668,0.03467384,0.99901728,0.01022842,-0.03210253,0.02879739
1755651282672,0.09215319,0.08458692,-0.13020945,-0.31653566,-0.23830962,0.02035675,0.99898649,0.00844000,-0.03344898,0.02891241
1755651282683,0.27214117,-0.17428371,-1.00573390,-0.30265270,-0.26339228,0.02321037,0.99894551,0.00676027,-0.03491081,0.02904123
1755651282694,0.19544093,-0.01015906,-2.10534384,-0.29596895,-0.28395512,0.01931565,0.99889584,0.00511765,-0.03648676,0.02914843
1755651282705,0.27284327,-0.10159058,-0.06385694,-0.32899031,-0.29989974,0.01793075,0.99883843,0.00329175,-0.03815120,0.02924794
1755651282716,0.15249786,-0.12855128,0.67882611,-0.35820778,-0.30871342,0.01307540,0.99877335,0.00128579,-0.03988000,0.02932117
1755651282727,0.42471082,-0.48950937,1.33912971,-0.38778631,-0.32287060,0.01432997,0.99869830,-0.00086643,-0.04167193,0.02940070
1755651282738,0.27477833,-0.11126587,-0.15093458,-0.43881185,-0.33688641,0.01490130,0.99861101,-0.00330183,-0.04354165,0.02948340
1755651282750,0.27358205,-0.38364398,-0.35127975,-0.44606916,-0.35476421,0.01048807,0.99850833,-0.00582212,-0.04554607,0.02954266
1755651282761,0.30562148,-0.00640816,-0.29416525,-0.46648976,-0.38636224,-0.01083143,0.99839264,-0.00838782,-0.04767106,0.02948308
1755651282772,0.16936593,0.16008727,-0.38220511,-0.40685216,-0.37495875,-0.04104022,0.99827518,-0.01066619,-0.04977083,0.02925326
1755651282783,0.44940010,-0.09213125,-0.62744277,-0.39513544,-0.36618368,-0.03147245,0.99815105,-0.01285919,-0.05180315,0.02907859
1755651282794,0.18390414,-0.39169718,-0.84366911,-0.39439132,-0.38804551,-0.02829244,0.99801221,-0.01502834,-0.05393740,0.02892298
1755651282805,0.17416942,0.07544750,0.06106297,-0.41933782,-0.35936097,-0.06035895,0.99787302,-0.01737663,-0.05594982,0.02858497
1755651282816,0.33641652,-0.20622143,0.21097307,-0.47113787,-0.35969764,-0.05193475,0.99771689,-0.02001501,-0.05796412,0.02829413
1755651282827,0.03788914,-0.37532795,-0.08279287,-0.52128646,-0.37652986,-0.06344487,0.99754097,-0.02290815,-0.06005387,0.02794201
1755651282839,0.25542774,-0.59890066,-0.05998682,-0.56694355,-0.36443748,-0.06020066,0.99734922,-0.02605468,-0.06207649,0.02760790
1755651282850,-0.14244663,-0.24091272,-0.05236228,-0.60692470,-0.36491630,-0.06814081,0.99713582,-0.02945346,-0.06412002,0.02722631
1755651282861,0.07406783,0.19906052,-0.10777586,-0.64588182,-0.35895430,-0.07990442,0.99690538,-0.03303811,-0.06611222,0.02678284
1755651282872,0.11095735,0.06785864,-0.19729176,-0.62771520,-0.34994673,-0.06391150,0.99666032,-0.03655331,-0.06807192,0.02642494
1755651282883,-0.21451507,0.28951588,-0.02152753,-0.59492524,-0.34515861,-0.08869116,0.99641397,-0.03985515,-0.06998755,0.02593270
1755651282894,0.02515576,-0.12432752,-0.10449317,-0.53956785,-0.32228842,-0.07173800,0.99617270,-0.04284975,-0.07177625,0.02553456
1755651282905,0.01280804,0.35469109,0.19141855,-0.54366739,-0.29786973,-0.05448739,0.99592325,-0.04589429,-0.07344432,0.02522943
1755651282917,0.09693357,-0.10453621,0.00380132,-0.53452642,-0.28793670,-0.05518230,0.99566835,-0.04888763,-0.07505677,0.02492041
1755651282928,0.33014781,-0.10911978,0.13676697,-0.56091711,-0.27531985,-0.03282548,0.99540125,-0.05197268,-0.07657103,0.02473987
1755651282939,-0.44233191,0.50194971,0.18950050,-0.53221764,-0.27550043,-0.04727974,0.99512532,-0.05497971,-0.07812761,0.02447274
1755651282950,0.00186717,0.34309197,0.18671672,-0.46359590,-0.23689464,-0.04258223,0.99487703,-0.05759902,-0.07946606,0.02423215
1755651282961,-0.09185585,0.21270382,-0.39430364,-0.44324980,-0.23924770,-0.04591706,0.99463752,-0.05999257,-0.08075800,0.02398419
1755651282972,-0.33978985,0.06604672,0.31524006,-0.36635182,-0.21581609,-0.04456699,0.99441678,-0.06206246,-0.08197736,0.02373239
1755651282983,-0.19003040,-0.25858468,-0.26406867,-0.38061172,-0.20193939,-0.05510884,0.99419891,-0.06415582,-0.08308803,0.02342929
1755651282994,-0.41741912,0.24748299,0.02619453,-0.40565244,-0.18202199,-0.05591186,0.99397132,-0.06642748,-0.08410735,0.02311619
1755651283006,-0.25088690,-0.27321963,-0.07222502,-0.39688544,-0.18368965,-0.02796740,0.99373633,-0.06865004,-0.08513601,0.02295957
1755651283017,0.18802896,-0.00479013,0.12363643,-0.38886265,-0.16551306,-0.03477405,0.99351018,-0.07080822,-0.08605461,0.02276657
1755651283028,-0.03809878,0.47278448,0.18537412,-0.37870280,-0.14823355,-0.03991876,0.99328960,-0.07292896,-0.08688472,0.02254303
1755651283039,0.19060116,0.02009106,-0.41441765,-0.27909038,-0.12946101,-0.03042756,0.99311694,-0.07446396,-0.08759675,0.02237567
1755651283050,-0.28983311,0.72675126,0.01548173,-0.24327087,-0.11699841,-0.03699536,0.99296049,-0.07582627,-0.08825194,0.02216850
1755651283061,0.00950329,0.29887852,0.02850987,-0.21961106,-0.08702662,-0.03467517,0.99282668,-0.07705610,-0.08873929,0.02197432
1755651283073,-0.10753398,-0.26242505,-0.11487683,-0.21271022,-0.08212783,-0.03135832,0.99269734,-0.07823664,-0.08919510,0.02180028
1755651283084,-0.14706446,0.07691858,-0.00193506,-0.23594242,-0.07210070,-0.04501983,0.99256269,-0.07954612,-0.08959526,0.02155042
1755651283095,-0.23803859,0.00039110,0.30401183,-0.24844613,-0.05468344,-0.03720736,0.99242579,-0.08094984,-0.08990422,0.02134020
1755651283106,-0.04986629,-0.10924519,-0.39850221,-0.24117643,-0.05454279,-0.05500060,0.99229475,-0.08228837,-0.09020693,0.02103495
1755651283117,0.06873328,0.21726339,0.16881548,-0.24977882,-0.02775153,-0.04176148,0.99217082,-0.08366215,-0.09035957,0.02080526
1755651283128,0.11571651,0.50695459,-0.02990545,-0.22946020,0.01046051,-0.02387783,0.99207067,-0.08493566,-0.09030151,0.02067274
1755651283139,-0.06602647,0.14991228,-0.32561188,-0.14678846,0.03237546,-0.00886351,0.99201747,-0.08575767,-0.09012021,0.02062310
1755651283151,0.02470856,0.49939797,-0.29840335,-0.10647115,0.06538980,-0.01237635,0.99200038,-0.08635391,-0.08975403,0.02055379
1755651283162,0.09587179,0.21610027,-0.23726929,-0.10002876,0.08660089,0.00084482,0.99199517,-0.08690907,-0.08927339,0.02055848
1755651283173,0.05323556,-0.01555201,-0.14878216,-0.08308862,0.10723513,-0.03307060,0.99201198,-0.08737437,-0.08867287,0.02037329
1755651283184,-0.02275422,-0.26392386,-0.13239602,-0.08975814,0.10780306,-0.03104826,0.99202480,-0.08787252,-0.08807457,0.02020097
1755651283195,-0.24734243,-0.19696642,0.13691589,-0.13381379,0.10981488,-0.06729138,0.99202015,-0.08862188,-0.08745960,0.01982414
1755651283206,-0.01520527,-0.19196649,-0.06652304,-0.18063995,0.09784411,-0.09702668,0.99198813,-0.08963346,-0.08691168,0.01928079
1755651283217,0.24749746,0.63383538,-0.40385711,-0.22352900,0.10401729,-0.13034264,0.99193947,-0.09087405,-0.08633438,0.01855739
1755651283229,0.29606398,0.52149831,-0.48569973,-0.14427031,0.12749466,-0.08009537,0.99193534,-0.09167475,-0.08562679,0.01811286
1755651283240,0.11131694,0.80600755,-0.35761486,-0.01822534,0.16593842,-0.02055415,0.99200778,-0.09177681,-0.08469753,0.01799775
1755651283251,0.18567925,-0.09681340,-0.24096664,0.07453219,0.18861874,0.01372292,0.99213339,-0.09136316,-0.08365070,0.01807392
1755651283262,0.04837647,-0.04305506,0.07546729,0.06422565,0.18570890,0.01220553,0.99225128,-0.09100671,-0.08262001,0.01814166
1755651283273,0.10449317,-0.14271058,0.44119338,0.00145683,0.16192364,0.00300596,0.99232613,-0.09099862,-0.08172134,0.01815834
1755651283284,-0.36973797,-0.41320911,0.46992492,-0.08211287,0.11830636,0.00108954,0.99233808,-0.09145845,-0.08105882,0.01816444
1755651283295,-0.10682561,-0.99082347,0.36759204,-0.10104827,0.08925041,-0.00415502,0.99232700,-0.09201927,-0.08056348,0.01814138
1755651283307,0.10967312,-0.25155042,0.44917179,-0.15422057,0.05612381,0.00007362,0.99227199,-0.09288291,-0.08024919,0.01814179
1755651283318,0.44665471,-0.09550808,0.10643686,-0.18924905,0.02965170,0.00261209,0.99218537,-0.09394270,-0.08008314,0.01815642
1755651283329,0.68534786,-0.07401321,-0.13877256,-0.21270246,0.02012128,0.03591131,0.99207920,-0.09511256,-0.07997247,0.01835393
1755651283340,-0.26367796,-0.00958196,0.23724905,-0.18918870,-0.00720322,0.04054645,0.99196859,-0.09618148,-0.08001317,0.01858302
1755651283351,0.38826182,0.00708951,-0.32211021,-0.16977856,-0.02390951,0.02655138,0.99186329,-0.09712375,-0.08014587,0.01873038
1755651283362,0.06772705,0.08320752,-0.18189552,-0.13301521,-0.04126587,0.02857476,0.99176918,-0.09786199,-0.08037489,0.01888897
1755651283373,0.09868799,0.03047717,-0.21092140,-0.10094090,-0.05992898,0.03681713,0.99168282,-0.09842221,-0.08070750,0.01909331
1755651283385,0.08095777,0.34327002,0.07518730,-0.07812481,-0.05799890,0.03882986,0.99160860,-0.09885971,-0.08103229,0.01931075
1755651283396,0.01506581,0.26124588,-0.27130559,-0.05708500,-0.06104654,0.04102856,0.99154476,-0.09917653,-0.08137110,0.01953846
1755651283407,0.18083651,-0.14154768,0.00089040,-0.02744870,-0.05904183,0.04702613,0.99149696,-0.09933024,-0.08170173,0.01980181
1755651283418,-0.00570198,0.12591861,-0.02090724,-0.03299482,-0.05343213,0.03452999,0.99144985,-0.09951501,-0.08200095,0.01999518
1755651283429,0.36916879,-0.29989686,-0.19728645,-0.04037383,-0.04499458,0.04991817,0.99140146,-0.09973707,-0.08224843,0.02026972
1755651283440,-0.04326589,-0.11409997,0.27549178,-0.05270689,-0.02838861,0.04874091,0.99135290,-0.10003223,-0.08240740,0.02054267
1755651283451,-0.01319986,0.60031308,0.09640739,-0.11213782,-0.01227601,0.02182768,0.99128172,-0.10065459,-0.08247553,0.02066382
1755651283463,0.13932422,-0.02854212,-0.17415528,-0.07993135,0.01113233,0.03103517,0.99123811,-0.10109821,-0.08241375,0.02083606
1755651283474,-0.18962063,0.18029285,0.11126557,-0.06590752,0.02292320,0.01586158,0.99120919,-0.10146729,-0.08228538,0.02092489
1755651283485,0.17105925,-0.48704369,0.36682705,-0.04170686,0.03933301,0.00335495,0.99120312,-0.10170085,-0.08206511,0.02094368
1755651283496,0.20449424,-0.08427008,0.09811784,-0.04655981,0.05047597,-0.00532482,0.99120035,-0.10195926,-0.08178497,0.02091412
1755651283507,0.01970863,-0.17212088,0.07191680,-0.04754031,0.05463008,0.01169243,0.99119674,-0.10222548,-0.08147904,0.02097960
1755651283518,0.09041216,0.35363197,-0.39571950,-0.06165049,0.06411262,-0.00630313,0.99119132,-0.10256764,-0.08112322,0.02094462
1755651283529,-0.03448582,0.01682768,0.01775660,-0.03611508,0.05350737,-0.01011156,0.99119604,-0.10276989,-0.08082358,0.02088799
1755651283540,0.47479638,-0.15378808,-0.09559966,-0.03921563,0.06615073,-0.01486468,0.99120497,-0.10298557,-0.08045975,0.02080624
1755651283552,-0.32025312,-0.10978519,0.20557511,-0.02518709,0.04174026,-0.02287226,0.99121200,-0.10312788,-0.08022392,0.02067701
1755651283563,0.36248412,-0.23795213,-0.24467853,-0.03614087,0.05536013,-0.02334055,0.99121856,-0.10332666,-0.07991944,0.02054864
1755651283574,-0.12668752,-0.05282966,0.34916821,-0.05997670,0.05934291,-0.00524710,0.99121084,-0.10366253,-0.07958712,0.02051925
1755651283585,0.36520777,0.03947433,-0.23649181,-0.06106733,0.06233594,-0.00254177,0.99120335,-0.10400145,-0.07924115,0.02050515
1755651283596,0.05429719,0.19560942,0.02720852,-0.06507846,0.06832293,-0.02500994,0.99119844,-0.10436589,-0.07885854,0.02036509
1755651283607,0.06712235,0.16158172,-0.17064799,-0.07428369,0.06666236,-0.03869112,0.99118870,-0.10477816,-0.07848857,0.02015035
1755651283619,-0.34355876,0.01352014,0.05594773,-0.07283745,0.05723677,-0.02212570,0.99117320,-0.10518969,-0.07816518,0.02002534
1755651283630,0.09086515,0.12897411,-0.41999195,-0.08214925,0.06328622,-0.00334996,0.99115291,-0.10564152,-0.07781710,0.02000692
1755651283641,0.09328742,-0.43570485,-0.14579788,-0.03559793,0.07101222,0.01126225,0.99116143,-0.10583908,-0.07742299,0.02006942
1755651283652,-0.34064591,0.33045770,-0.20463755,-0.06715828,0.07025551,-0.01545610,0.99115361,-0.10621517,-0.07702956,0.01998287
1755651283663,0.19359194,-0.02241332,-0.33612938,-0.05350890,0.08307113,-0.02357834,0.99116003,-0.10650947,-0.07657266,0.01985319
1755651283674,-0.48649890,-0.18158625,-0.09235688,-0.03695035,0.07181647,-0.01770422,0.99117084,-0.10671824,-0.07616690,0.01975316
1755651283685,0.55231369,-0.03977145,0.05308568,-0.07129878,0.08003798,-0.03032016,0.99116553,-0.10711395,-0.07572269,0.01958488
1755651283696,-0.24768751,-0.22833692,-0.06966211,-0.12385412,0.06875345,-0.01770755,0.99112202,-0.10780134,-0.07534111,0.01948661
1755651283708,-0.23307893,-0.00565489,-0.11335458,-0.14195082,0.07436441,-0.01604428,0.99106857,-0.10859626,-0.07492467,0.01939676
1755651283719,-0.53978696,-0.41861999,-0.58920408,-0.11888121,0.07935496,-0.01535009,0.99103057,-0.10926200,-0.07448028,0.01931080
1755651283730,-0.14186891,-0.00696678,-1.02918292,-0.10480365,0.07505506,-0.01282835,0.99099916,-0.10983842,-0.07406748,0.01924024
1755651283741,-0.44986855,0.13941329,-0.25503379,-0.06112455,0.05675934,-0.01016853,0.99098598,-0.11018071,-0.07374963,0.01918330
1755651283752,-0.18626451,-0.40959187,-0.63291922,0.00980461,0.07206604,-0.00138010,0.99102218,-0.11012581,-0.07334606,0.01917557
1755651283763,-0.15798372,0.08887880,-0.47521240,-0.02447053,0.08182858,0.02001864,0.99103843,-0.11026162,-0.07289191,0.01928667
1755651283774,-0.43538820,-0.04257129,-0.55729690,-0.00105504,0.08024620,0.01862676,0.99106842,-0.11026748,-0.07244654,0.01939005
1755651283785,-0.33072939,0.48822087,-1.18552043,-0.00677395,0.09283692,0.01365542,0.99109971,-0.11030439,-0.07194058,0.01946447
1755651283796,-0.57309692,0.60759511,-0.70704204,-0.02185494,0.07780875,-0.01160523,0.99111871,-0.11042569,-0.07150874,0.01940007
1755651283808,-0.26307851,0.68241767,-0.84940591,-0.01937379,0.06832607,-0.01981163,0.99113632,-0.11053418,-0.07112611,0.01928912
1755651283819,0.03517660,-0.11772327,-0.85740377,0.03501471,0.06224368,-0.03579998,0.99118655,-0.11033985,-0.07078066,0.01909043
1755651283830,-0.23801222,0.53262490,-0.89012699,0.03840384,0.05583756,-0.05931902,0.99123862,-0.11012671,-0.07047076,0.01876121
1755651283841,-0.17340511,0.09342763,-0.96510635,0.08160974,0.05567086,-0.03816703,0.99131542,-0.10966969,-0.07015901,0.01854747
1755651283852,-0.35523876,0.02231796,-1.28828259,0.10732425,0.05346319,-0.03079611,0.99140527,-0.10907404,-0.06986229,0.01837656
1755651283863,-0.25424301,0.36323978,-0.76262631,0.11077024,0.05710562,-0.03254764,0.99149917,-0.10845373,-0.06954249,0.01819429
1755651283875,-0.26419151,-0.07840216,-1.09858050,0.11792109,0.04629451,-0.02101823,0.99159148,-0.10779337,-0.06928325,0.01807659
1755651283886,0.10900255,-0.05471292,-1.32841778,0.12357125,0.05318576,-0.01302492,0.99168768,-0.10710755,-0.06898806,0.01800430
1755651283897,-0.06140197,0.13540741,-1.35107412,0.09592578,0.03569385,-0.00465530,0.99175863,-0.10657996,-0.06879175,0.01797869
1755651283908,-0.34042518,-0.21466208,-0.77768027,0.09055714,0.02351013,-0.00246290,0.99182237,-0.10607284,-0.06866009,0.01796490
1755651283919,-0.57019750,-0.49132017,-0.95222981,0.08292581,0.01534122,0.00795591,0.99187706,-0.10560846,-0.06857418,0.01800946
1755651283930,-0.38260602,-0.63077298,-1.40880910,0.08648052,0.00901145,0.03709559,0.99192774,-0.10512849,-0.06852417,0.01821534
1755651283941,-0.30694776,-0.46631196,-0.88646019,0.06904122,0.00743524,0.05548670,0.99196576,-0.10474186,-0.06848253,0.01852606
1755651283953,-0.40103890,-0.34259366,-1.28484502,0.04864491,0.00044921,0.05961609,0.99198837,-0.10446945,-0.06848001,0.01885991
1755651283964,-0.12937797,-0.45696601,-1.91445616,0.05258132,0.00623718,0.08472654,0.99201218,-0.10418025,-0.06844571,0.01932591
1755651283975,-0.35760022,-0.43500021,-0.73123509,0.07483910,-0.00015078,0.09302861,0.99204576,-0.10376115,-0.06844655,0.01984687
1755651283986,-0.86429836,-0.32141533,-1.15190879,0.05316725,-0.01071668,0.09665834,0.99206188,-0.10346076,-0.06850710,0.02039299
1755651283997,-0.43469149,-0.74510383,-2.42673252,0.07072569,-0.00920257,0.09641234,0.99208783,-0.10307176,-0.06855772,0.02092326
1755651284008,-0.40015254,-0.13725283,-1.05319966,0.04948200,-0.01692597,0.10576884,0.99209728,-0.10279714,-0.06865166,0.02151027
1755651284019,0.22993071,0.35741113,-0.47937415,0.03456985,-0.00568760,0.11228348,0.99210131,-0.10260182,-0.06868379,0.02214467
1755651284031,-0.26415787,-0.18819461,-1.94418843,0.06149860,-0.00567883,0.13280740,0.99211779,-0.10225743,-0.06871559,0.02288840
1755651284042,-0.50727282,-0.43259989,-2.43555698,0.09796631,0.00717376,0.12803568,0.99215941,-0.10171861,-0.06867614,0.02359259
1755651284053,-0.35328054,-0.63284147,-0.73261739,0.14184825,0.02960397,0.12672777,0.99223486,-0.10092426,-0.06851036,0.02430227
1755651284064,-0.36422296,-0.54688300,-1.97127191,0.12983149,0.03592977,0.12072942,0.99230500,-0.10020370,-0.06831094,0.02497232
1755651284075,-0.34057033,-0.30380421,-1.45903423,0.11345905,0.04911800,0.10497780,0.99237228,-0.09957400,-0.06803834,0.02555494
1755651284086,0.16619470,-0.97109936,-0.89741776,0.15442973,0.04371858,0.08949181,0.99246320,-0.09870147,-0.06779133,0.02606057
1755651284097,-0.40709808,-0.75799020,-3.78016602,0.12436456,0.04251165,0.07836401,0.99253486,-0.09802369,-0.06755964,0.02648765
1755651284108,-0.16966427,-0.21488773,-0.11658534,0.11566482,0.04885710,0.07108921,0.99260650,-0.09737596,-0.06728604,0.02688575
1755651284120,-0.83579072,-0.44316046,-0.93588421,0.13803882,0.04146743,0.05707804,0.99268977,-0.09659604,-0.06705175,0.02720825
1755651284131,-0.46223853,-0.84287630,-3.47326195,0.10605073,0.04473053,0.08070631,0.99275012,-0.09601807,-0.06680797,0.02764809
1755651284142,-0.27113152,-0.26688992,-0.08125751,0.07736702,0.02991232,0.08485664,0.99278984,-0.09558481,-0.06664046,0.02812329
1755651284153,-0.27369480,-0.42194614,-1.15940156,0.05525001,0.02841197,0.08788926,0.99281619,-0.09527541,-0.06648135,0.02861547
1755651284164,-0.53978696,-0.27036865,-1.96528071,0.00697717,0.00951163,0.09566272,0.99280792,-0.09523634,-0.06642809,0.02915118
1755651284175,-0.39819703,-0.19158636,-2.49903204,0.00127322,0.01413703,0.11669545,0.99279473,-0.09522934,-0.06635033,0.02979301
1755651284187,-0.21258547,0.30434825,0.56205128,0.01617917,0.01113118,0.13204203,0.99278503,-0.09513792,-0.06628744,0.03053905
1755651284198,-0.49301185,0.01042020,-2.78264863,0.00809543,-0.00151892,0.13984937,0.99276459,-0.09509299,-0.06629587,0.03131521
1755651284209,-0.35602241,0.73367123,-0.96940424,-0.00741006,-0.00521631,0.12775531,0.99273584,-0.09513449,-0.06632508,0.03203064
1755651284220,-0.42253388,-0.10993552,-3.05452467,0.03554339,-0.00624049,0.14276427,0.99272653,-0.09493723,-0.06635972,0.03282298
1755651284231,-0.36713372,0.70377948,-2.34229257,0.02779587,-0.01320529,0.13155972,0.99271209,-0.09478435,-0.06643235,0.03354656
1755651284242,-0.27623890,0.89387235,-0.16312251,0.06156603,-0.02852680,0.10996115,0.99271326,-0.09443650,-0.06659353,0.03416784
1755651284253,-0.40569447,0.91009405,-3.09732684,0.09796497,-0.03411030,0.09874305,0.99273310,-0.09389279,-0.06678284,0.03471586
1755651284264,-0.11362854,0.65925019,-1.10097772,0.13765756,-0.02737948,0.13007246,0.99276964,-0.09312191,-0.06693616,0.03544427
1755651284276,-0.44475405,0.67568403,-1.58514905,0.12980627,-0.03616867,0.13164050,0.99279729,-0.09239500,-0.06713871,0.03618146
1755651284287,0.35442673,2.75052609,-2.77363017,0.02574857,-0.03975320,0.07243410,0.99278090,-0.09225209,-0.06735934,0.03658347
1755651284298,0.33297479,2.43146852,-0.72173646,-0.04235494,-0.04737085,0.03740646,0.99273306,-0.09248928,-0.06762461,0.03679294
1755651284309,-0.14827387,4.19403667,-2.95998324,-0.19119071,-0.10531149,0.01090097,0.99259139,-0.09355039,-0.06820909,0.03685344
1755651284320,-0.63663430,1.26552837,-1.08363286,0.06435728,-0.15498423,-0.00607929,0.99256676,-0.09319321,-0.06906926,0.03681970
1755651284331,-0.01237270,-0.04519497,-2.46001962,0.34909482,-0.19201475,0.00974324,0.99266913,-0.09127318,-0.07012534,0.03687329
1755651284343,0.37304813,2.32590536,2.36170417,0.14988221,-0.21840682,0.06544952,0.99264466,-0.09041886,-0.07137026,0.03724635
1755651284354,-0.39646552,4.03864031,-3.04264557,0.10423398,-0.21113695,0.03708341,0.99260487,-0.08984557,-0.07253151,0.03745031
1755651284365,0.40323104,2.76547151,0.21011219,0.30623528,-0.18724802,-0.04986073,0.99269117,-0.08814596,-0.07357073,0.03717358
1755651284376,0.32787212,1.93062365,0.09808082,0.48271985,-0.21102358,-0.03972730,0.99284753,-0.08544273,-0.07475247,0.03695111
1755651284387,1.20561066,1.37302779,-0.29247028,0.54310720,-0.23167267,-0.00931127,0.99300663,-0.08242849,-0.07603825,0.03689943
1755651284398,0.61210256,1.10036272,-0.16256701,0.54872752,-0.23027135,0.00695731,0.99315334,-0.07941049,-0.07730474,0.03693770
1755651284409,0.56524263,-0.77985203,3.72968071,0.55300402,-0.20212409,0.02077092,0.99330561,-0.07625836,-0.07845685,0.03705609
1755651284420,-0.33358551,0.20576004,-2.22593143,0.56016071,-0.18143079,0.03036705,0.99345178,-0.07317748,-0.07945472,0.03722311
1755651284432,0.61798738,-1.78991608,2.11635609,0.50531912,-0.15511234,0.03432940,0.99357802,-0.07037296,-0.08031559,0.03741364
1755651284443,0.80870443,-2.12286411,2.30328965,0.42539377,-0.16197691,0.01277369,0.99366745,-0.06799075,-0.08122266,0.03748517
1755651284454,0.65192580,-1.72627292,1.78661882,0.26547232,-0.17959874,-0.01922790,0.99368940,-0.06650411,-0.08222842,0.03737750
1755651284465,0.84086883,-2.06565808,0.10787949,0.11954177,-0.20275394,-0.02596629,0.99364564,-0.06584663,-0.08334356,0.03723468
1755651284476,0.73078584,-1.57440168,2.44092909,-0.04286119,-0.20856087,-0.05674127,0.99354290,-0.06608665,-0.08451150,0.03691693
1755651284487,-0.50177380,-0.19054099,1.54333454,-0.18762991,-0.20859008,-0.04977634,0.99338272,-0.06713738,-0.08567961,0.03663818
1755651284498,0.54316228,-1.03541959,-0.97893767,-0.08675190,-0.18811195,-0.01944063,0.99326451,-0.06761451,-0.08671422,0.03653126
1755651284510,0.92434198,-0.61145906,1.58487258,-0.00725550,-0.16987254,-0.02311782,0.99318299,-0.06765514,-0.08766551,0.03640180
1755651284521,2.10769834,0.09595906,-0.01030278,0.05354768,-0.17392587,-0.04160444,0.99312491,-0.06735260,-0.08864819,0.03616673
1755651284532,0.69457524,1.03728996,-1.75679600,0.13408916,-0.20616021,-0.01580080,0.99307596,-0.06661511,-0.08978207,0.03607983
1755651284543,0.75314450,0.29280505,1.75102468,0.20916059,-0.19779542,0.05656047,0.99304152,-0.06544381,-0.09088973,0.03639657
1755651284554,0.49797248,-0.36350090,0.17105924,0.25166249,-0.19911342,0.05119719,0.99302016,-0.06403450,-0.09200476,0.03668327
1755651284565,0.61378006,0.78428136,-0.60139468,0.14042439,-0.18700158,-0.00676304,0.99297521,-0.06326217,-0.09303327,0.03664608
1755651284576,0.63811288,-0.09597664,2.54148614,0.05533682,-0.17863610,0.01941524,0.99289595,-0.06294951,-0.09404256,0.03675577
1755651284588,0.72218787,-0.64900241,-0.48893625,0.05252934,-0.16646701,0.02806085,0.99282067,-0.06265798,-0.09496646,0.03691151
1755651284599,0.34883073,-0.81473174,1.87521346,0.01405448,-0.14827530,-0.02878622,0.99275184,-0.06257927,-0.09579680,0.03675031
1755651284610,0.59040022,-0.30074613,-0.26278788,-0.04014411,-0.13880773,-0.05152459,0.99267368,-0.06280207,-0.09656718,0.03646435
1755651284621,0.74499759,-0.19350587,-0.06192187,-0.07392895,-0.11852991,-0.07697513,0.99259902,-0.06321238,-0.09722502,0.03603713
1755651284632,0.63736005,-0.20876527,0.62107699,-0.06898964,-0.10967435,-0.09824890,0.99253323,-0.06360217,-0.09784468,0.03548203
1755651284643,0.71926629,-0.12242209,-2.13811228,-0.04303475,-0.09446353,-0.12372009,0.99249077,-0.06383886,-0.09836423,0.03480157
1755651284654,0.51150637,-0.62642687,0.61580603,-0.00333867,-0.07474675,-0.14916940,0.99247706,-0.06385739,-0.09877908,0.03397368
1755651284666,0.42376119,-0.94996529,0.32191331,0.02734523,-0.06121878,-0.16093996,0.99248316,-0.06370425,-0.09912190,0.03307241
1755651284677,0.73115969,-0.76413753,-1.41024450,0.00327063,-0.05671575,-0.16850936,0.99248357,-0.06368627,-0.09943384,0.03214561
1755651284688,-0.44630913,-1.82680046,2.18713936,0.00256611,-0.05721036,-0.17125974,0.99248294,-0.06367190,-0.09975422,0.03118656
1755651284699,0.23808056,-1.05592212,2.29002237,0.06727623,-0.05783870,-0.16541685,0.99250363,-0.06328506,-0.10008679,0.03023541
1755651284710,1.32794496,-0.19124044,-6.00231699,0.14286345,-0.09679379,-0.21667247,0.99253435,-0.06252074,-0.10060464,0.02907621
1755651284721,0.92162389,0.38167706,2.07914255,0.19433882,-0.10446581,-0.16287387,0.99256914,-0.06143244,-0.10118964,0.02816412
1755651284732,0.53634378,-0.14718946,0.01533745,0.20821359,-0.10571463,-0.12843362,0.99260050,-0.06025603,-0.10178693,0.02743847
1755651284743,0.83714027,-0.69877860,-3.48480506,0.26868194,-0.08671602,-0.11537102,0.99265692,-0.05879172,-0.10225953,0.02680970
1755651284755,0.25677831,-0.83136048,2.20380546,0.25816994,-0.05246516,-0.03441149,0.99271689,-0.05733306,-0.10255596,0.02661527
1755651284766,0.50811493,-0.79970619,-1.10547671,0.23849960,-0.03435276,-0.02885929,0.99277755,-0.05599746,-0.10274834,0.02645366
1755651284777,0.55482624,-1.39858093,-1.35226045,0.24483340,-0.02645852,-0.04738095,0.99284503,-0.05463863,-0.10289518,0.02619070
1755651284788,0.82627006,-0.98107475,-0.32895999,0.20547421,-0.01472672,-0.06320473,0.99290785,-0.05349825,-0.10297692,0.02583991
1755651284799,0.35792418,-0.91551749,0.91733419,0.16995500,-0.02143387,-0.07826638,0.99295796,-0.05253801,-0.10309802,0.02539770
1755651284810,1.28911433,-1.67452472,-3.77906499,0.19458119,-0.01000012,-0.06694587,0.99301711,-0.05147754,-0.10315252,0.02503285
1755651284822,0.19343122,-1.25871533,1.37367029,0.17900937,0.02582131,-0.03288194,0.99308820,-0.05047509,-0.10300792,0.02484871
1755651284833,0.15189072,-1.39851657,-0.23316252,0.11935552,0.05225268,-0.01585714,0.99315506,-0.04980073,-0.10271269,0.02475912
1755651284844,1.13517793,-1.88492878,-2.31855223,0.09333302,0.12493322,-0.00670396,0.99325241,-0.04928740,-0.10202556,0.02472225
1755651284855,0.02809518,-1.35965320,0.79800004,0.03657459,0.15490201,0.00479088,0.99335060,-0.04908258,-0.10115811,0.02474907
1755651284866,0.46914243,-1.01208381,0.30841599,-0.00545377,0.21351846,-0.02058157,0.99347408,-0.04911339,-0.09995173,0.02463279
1755651284877,1.69415984,-1.59747423,-4.55943658,-0.03936673,0.26411191,-0.04140105,0.99361152,-0.04932597,-0.09852552,0.02440922
1755651284888,-0.76776877,0.19830007,3.59215305,-0.08430032,0.26945394,-0.03046102,0.99374176,-0.04980227,-0.09700311,0.02423712
1755651284900,1.19199614,-0.58893853,-2.18021175,-0.08050884,0.29349730,-0.07450836,0.99388693,-0.05024909,-0.09537420,0.02382360
1755651284911,0.71790677,-0.15770728,-0.86303618,-0.04030621,0.28741929,-0.08329516,0.99403835,-0.05047279,-0.09377902,0.02336131
1755651284922,1.72410257,0.11836735,-0.59012873,0.01779759,0.31658462,-0.09142963,0.99422096,-0.05037313,-0.09200615,0.02284930
1755651284933,1.08555064,0.50994411,-1.55246993,0.02940597,0.32160927,-0.08358358,0.99440333,-0.05020992,-0.09022122,0.02238541
1755651284944,0.50023259,0.66553997,0.74131585,0.02934692,0.32714413,-0.05032843,0.99458402,-0.05004411,-0.08837285,0.02210106
1755651284955,1.61424705,0.11954931,-2.95166142,0.04695071,0.38413000,-0.04701175,0.99478815,-0.04978588,-0.08626014,0.02184249
1755651284966,0.46854807,0.85943872,-0.16328377,0.05896694,0.38852844,-0.06625649,0.99499710,-0.04945862,-0.08410380,0.02147477
1755651284978,0.85901194,1.96126963,0.21739423,0.00872692,0.38332111,-0.08432413,0.99518872,-0.04940975,-0.08195721,0.02100256
1755651284989,0.99214365,1.57564574,-0.34211851,0.05904236,0.35247739,-0.08989451,0.99537616,-0.04907911,-0.07998333,0.02049915
1755651285000,0.85479489,4.63973942,-1.98723615,-0.23657350,0.29274187,-0.10067845,0.99545113,-0.05039209,-0.07835861,0.01994038
1755651285011,0.55729690,5.82694543,-1.52482623,-0.32198832,0.29052839,-0.04142928,0.99548926,-0.05217913,-0.07674618,0.01971045
1755651285022,0.46634914,3.39554421,-1.51708598,0.06276659,0.33300039,0.05496454,0.99564212,-0.05183077,-0.07489803,0.02001550
1755651285033,-0.96948717,3.50346427,1.41468867,0.21241319,0.33630746,0.05002970,0.99584098,-0.05062002,-0.07298108,0.02030067
1755651285044,1.20825168,5.08681922,-5.98843574,0.06738700,0.35740803,-0.02202086,0.99600139,-0.05025613,-0.07105107,0.02018176
1755651285056,-1.75069400,3.42431116,4.89889348,-0.10508891,0.33195550,0.00708535,0.99610246,-0.05084988,-0.06917553,0.02022179
1755651285067,-0.12180595,2.87467522,-0.84570627,-0.06574061,0.30298987,0.03072437,0.99619565,-0.05121474,-0.06749393,0.02039231
1755651285078,-1.16027485,1.07687276,2.04788228,0.08918365,0.25474892,-0.07003521,0.99632478,-0.05071531,-0.06606734,0.02000011
1755651285089,-0.52015081,1.29348940,0.48535211,0.21366032,0.19038675,-0.17852845,0.99647200,-0.04954018,-0.06502021,0.01901821
1755651285100,-1.23187594,-0.19775860,2.87859328,0.24063015,0.11936218,-0.21524388,0.99660258,-0.04820468,-0.06435775,0.01782360
1755651285111,-0.88432182,-1.17022674,1.93505869,0.25863043,0.07835053,-0.17916296,0.99671624,-0.04676928,-0.06392291,0.01682925
1755651285122,-1.43867755,-0.94228022,2.95083064,0.14237615,0.07900935,-0.12830170,0.99679417,-0.04596486,-0.06347650,0.01610434
1755651285133,-0.87719484,0.57405380,-1.23270408,0.13713470,0.08808481,-0.08624419,0.99686695,-0.04521062,-0.06299204,0.01563000
1755651285145,-1.38335585,-0.41557584,1.74327676,0.22598977,0.15296209,-0.05504041,0.99698106,-0.04395638,-0.06214310,0.01532453
1755651285156,-1.72321029,-0.18653589,1.89620081,0.26157428,0.18042541,-0.04922198,0.99711237,-0.04247848,-0.06112369,0.01504642
1755651285167,-0.82244681,-0.57268265,-0.12884110,0.33404678,0.19158635,-0.02398272,0.99725751,-0.04060782,-0.06005081,0.01491212
1755651285178,-0.79241807,-0.70539493,-0.62025423,0.32732354,0.18770163,-0.02788426,0.99739309,-0.03880754,-0.05901845,0.01475876
1755651285189,-0.89865060,-0.82107404,2.64346742,0.23844621,0.16246805,-0.00608736,0.99749900,-0.03746032,-0.05810051,0.01472436
1755651285200,-0.67144823,-0.71991460,-0.75361118,0.12678579,0.15150851,0.01298483,0.99757273,-0.03675666,-0.05725963,0.01479643
1755651285212,-1.35884354,-1.27249127,1.76348055,0.05947825,0.15077567,0.03987305,0.99763022,-0.03642060,-0.05640775,0.01502171
1755651285223,-1.00586470,-1.25040058,-2.17830505,0.05747357,0.16364409,0.05648056,0.99768695,-0.03610737,-0.05551589,0.01532953
1755651285234,-0.88370046,-1.44986934,1.84540687,0.06094727,0.16450776,0.04937428,0.99774527,-0.03576912,-0.05460287,0.01560356
1755651285245,-0.81866030,-0.95508125,1.85313820,0.01276727,0.14306923,0.05457001,0.99778689,-0.03569698,-0.05379453,0.01591188
1755651285256,-0.08961206,-0.79780500,-0.88029756,-0.01888037,0.13203842,0.08499916,0.99781474,-0.03580177,-0.05306172,0.01638362
1755651285267,-0.58228702,-1.32481400,1.58170927,-0.03607110,0.11888892,0.13409251,0.99783018,-0.03600557,-0.05239000,0.01714125
1755651285278,-0.12501296,-0.93273578,-3.42442528,-0.00426516,0.12278049,0.15897869,0.99784882,-0.03602860,-0.05172698,0.01799973
1755651285289,-0.85161482,-1.40149366,1.56676108,0.01915614,0.14801597,0.17273763,0.99787690,-0.03592324,-0.05091289,0.01894979
1755651285300,-1.11064105,-0.66967968,1.50283325,0.01105631,0.16602846,0.13812634,0.99791114,-0.03586133,-0.04998313,0.01972330
1755651285311,-0.36864101,-0.73584819,-1.65626318,-0.00989927,0.16266356,0.12642560,0.99793961,-0.03591577,-0.04908848,0.02041864
1755651285323,-0.31604351,-1.39853369,1.71365211,0.03004934,0.15424384,0.09451636,0.99797712,-0.03574599,-0.04821701,0.02095265
1755651285334,-0.15187642,-1.52578948,-1.97300638,0.08165024,0.12413933,0.06554871,0.99801859,-0.03529284,-0.04752803,0.02131645
1755651285345,-0.25309896,-1.53588358,-1.15660791,0.09601599,0.11886773,0.06627879,0.99806019,-0.03476475,-0.04687426,0.02168098
1755651285356,-0.78615623,-1.38874870,2.22954961,0.06457645,0.09903327,0.04992115,0.99809308,-0.03439666,-0.04630977,0.02196553
1755651285367,-0.22571151,-1.63249043,-1.81956357,0.04627474,0.09233729,0.04882227,0.99811978,-0.03413752,-0.04579268,0.02223894
1755651285378,-0.31895874,-1.70882189,-2.17616769,0.00159830,0.08168746,0.04778872,0.99813470,-0.03412873,-0.04534340,0.02250178
1755651285390,-1.01529712,-0.41431759,0.45712561,-0.13043816,0.07367302,0.07378932,0.99811871,-0.03485919,-0.04493083,0.02291500
1755651285401,-0.55879354,-1.09715501,-1.16700422,-0.11502957,0.07346882,0.08858336,0.99810293,-0.03550335,-0.04451941,0.02341106
1755651285412,-0.51350070,-1.24374556,-2.52049535,-0.02851004,0.08172822,0.09380714,0.99810505,-0.03566016,-0.04406990,0.02392700
1755651285423,-0.32485314,-0.93211532,1.43333939,0.02040980,0.10136723,0.09400600,0.99812142,-0.03554484,-0.04349718,0.02445814
1755651285434,-0.45466102,-1.28487025,-1.48712217,0.02391410,0.11944126,0.08733449,0.99814300,-0.03541092,-0.04282831,0.02494721
1755651285445,-0.55899586,-1.38637096,-2.27152104,-0.00857152,0.10955798,0.06044024,0.99815863,-0.03545807,-0.04222574,0.02527963
1755651285457,-0.44266109,-0.78375463,2.03555391,-0.03230562,0.08453841,0.00637363,0.99817142,-0.03564221,-0.04174387,0.02531596
1755651285468,-0.36684036,-1.59311281,-3.84746816,0.00166137,0.04387296,0.01219397,0.99818011,-0.03563307,-0.04150257,0.02538303
1755651285479,-0.65843010,-1.01920860,0.27073230,0.03996007,0.01631087,0.02366457,0.99818841,-0.03541129,-0.04141204,0.02551436
1755651285490,-1.13316906,-0.52973573,0.45739085,0.03314325,-0.00101963,0.03311673,0.99818998,-0.03522569,-0.04141775,0.02569982
1755651285501,-0.58350210,-1.08955238,-0.49036983,0.08815472,-0.00343280,0.03000361,0.99820214,-0.03473202,-0.04143698,0.02586784
1755651285512,-0.39913825,-1.24635669,-1.13659369,0.10332080,-0.01842916,0.02137079,0.99821471,-0.03415343,-0.04154018,0.02598752
1755651285524,0.01598151,-0.64969595,-1.67216713,0.09595790,-0.05584992,-0.01205385,0.99822158,-0.03362086,-0.04185015,0.02592062
1755651285535,-0.47199681,0.28609617,0.28116046,0.08080710,-0.09114359,0.00455798,0.99821453,-0.03316834,-0.04236055,0.02594614
1755651285546,-0.84539604,-0.12516115,-1.55309192,0.14007170,-0.12491452,0.05394546,0.99820257,-0.03239094,-0.04305383,0.02624554
1755651285557,-0.78341369,0.44573006,-0.17516878,0.18895112,-0.12367732,0.10892171,0.99819001,-0.03133282,-0.04374642,0.02685550
1755651285568,-1.03235380,0.55019593,-1.64220826,0.20413199,-0.10965581,0.11432625,0.99818080,-0.03019988,-0.04435501,0.02749001
1755651285579,-0.94624369,0.10159058,-0.61534867,0.26574824,-0.11092891,0.08308663,0.99818398,-0.02872498,-0.04497066,0.02795114
1755651285590,-1.13818139,0.94902557,0.95289447,0.23812221,-0.14256072,0.04647283,0.99817778,-0.02737959,-0.04577613,0.02821371
1755651285602,-0.89161059,0.53524977,-1.38492391,0.23388918,-0.20577936,0.04057526,0.99815289,-0.02606981,-0.04692850,0.02844093
1755651285613,-0.92687240,1.20329380,-3.28597060,0.22044172,-0.28106211,0.04081838,0.99810399,-0.02486840,-0.04846028,0.02866339
1755651285624,0.30333809,0.98143282,2.16779670,0.27666289,-0.27464993,0.08559561,0.99805165,-0.02331909,-0.04999832,0.02914273
1755651285635,-0.68328304,0.89107292,-1.66802057,0.34949491,-0.25404619,0.13841948,0.99800072,-0.02137939,-0.05140828,0.02991096
1755651285646,-0.47841796,1.33210035,0.65338127,0.33650324,-0.19756389,0.15837127,0.99795473,-0.01949498,-0.05251464,0.03079784
1755651285657,-0.06061625,1.39730374,0.67721485,0.24640582,-0.19166993,0.13013831,0.99790042,-0.01810278,-0.05359757,0.03153312
1755651285668,-0.29344394,3.23451907,-1.90211130,-0.05131355,-0.25871596,0.08789915,0.99780152,-0.01838757,-0.05503345,0.03202096
1755651285679,-0.62695901,5.94837036,-1.70672173,-0.33557715,-0.36950339,0.06764710,0.99763811,-0.02025003,-0.05708419,0.03239640
1755651285691,-1.92896272,4.71739541,-2.54633423,-0.03316122,-0.43792797,0.01884235,0.99748754,-0.02043573,-0.05953659,0.03250192
1755651285702,-0.24708558,1.34946740,-1.60795694,0.44921576,-0.42695764,-0.00188387,0.99739068,-0.01792012,-0.06192755,0.03249137
1755651285713,0.12707461,4.01625315,-0.06541187,0.24828406,-0.39176294,0.09729282,0.99725937,-0.01654215,-0.06410183,0.03303134
1755651285724,1.73961775,1.97279232,3.61081947,0.17394703,-0.33100122,0.12779196,0.99713139,-0.01557674,-0.06593889,0.03374059
1755651285735,0.44977110,1.22135704,1.86130955,0.21765808,-0.29843965,0.14334318,0.99701027,-0.01435785,-0.06761015,0.03454331
1755651285746,0.55751806,0.66063867,-0.51448589,0.24042982,-0.27951506,0.22260664,0.99687982,-0.01303549,-0.06914749,0.03576765
1755651285758,0.84181885,-0.10715393,3.26885585,0.20635842,-0.24236410,0.27679606,0.99674236,-0.01187988,-0.07050473,0.03731770
1755651285769,0.52838301,-0.44427888,1.76381090,0.17117652,-0.20821761,0.27744858,0.99661078,-0.01092129,-0.07167074,0.03887142
1755651285780,0.17923616,-0.20650511,-0.52525273,0.08623753,-0.19604963,0.25438409,0.99648218,-0.01044699,-0.07274902,0.04027053
1755651285791,-0.54320986,-0.33550448,3.03065000,-0.10337275,-0.17490859,0.20729915,0.99635521,-0.01103104,-0.07373725,0.04144177
1755651285802,0.93554093,1.20914196,-0.27224393,-0.16216266,-0.17930219,0.17367550,0.99623013,-0.01193105,-0.07473238,0.04240567
1755651285813,1.49571224,0.79098750,0.10913539,-0.08015674,-0.18869618,0.12564663,0.99611670,-0.01237191,-0.07577021,0.04309672
1755651285824,2.24251872,0.16664043,3.88805316,0.02040957,-0.18459686,0.06489681,0.99602231,-0.01225659,-0.07681318,0.04346339
1755651285836,0.89068549,-0.48823371,0.15645952,0.12461066,-0.18136978,0.02422762,0.99594588,-0.01155878,-0.07782885,0.04359907
1755651285847,0.48338457,-0.30800260,0.38518033,0.05947741,-0.21742409,0.00702245,0.99585291,-0.01122868,-0.07903555,0.04363804
1755651285858,0.70314084,-1.28892459,1.99028035,0.04109598,-0.21761788,-0.05031752,0.99577032,-0.01099854,-0.08025421,0.04335626
1755651285869,0.56069420,-0.10691203,1.21262002,-0.11660336,-0.26919329,-0.13762034,0.99567351,-0.01165152,-0.08176170,0.04258559
1755651285880,0.71788949,-0.24461215,0.51838839,-0.17478238,-0.32159899,-0.20643959,0.99556185,-0.01262156,-0.08354657,0.04143985
1755651285891,-0.92245284,-0.47126909,1.38689838,-0.14129765,-0.38809705,-0.17705758,0.99540752,-0.01341283,-0.08571991,0.04044833
1755651285903,-0.03801317,-0.69706644,0.98073970,-0.10968869,-0.41273693,-0.09722008,0.99521928,-0.01402708,-0.08803124,0.03990389
1755651285914,0.11188786,-0.69185690,-0.23331280,-0.05369934,-0.39552887,-0.07407703,0.99503483,-0.01432511,-0.09022643,0.03949277
1755651285925,1.84411092,-0.96898063,0.25542774,-0.04078093,-0.36165302,-0.04596584,0.99485759,-0.01455145,-0.09223360,0.03923766
1755651285936,0.62115383,-0.77305594,0.12384376,0.00152778,-0.32823317,-0.03716451,0.99469526,-0.01454297,-0.09405529,0.03903139
1755651285947,0.20279254,-0.76114139,2.42468481,0.00707612,-0.28413098,-0.04621916,0.99455168,-0.01450263,-0.09567484,0.03876794
1755651285958,0.41341918,-0.09748195,-5.46867064,0.05026354,-0.29572416,-0.06096100,0.99441476,-0.01423372,-0.09725696,0.03844180
1755651285969,0.21054676,-1.61654542,3.69907186,0.08671972,-0.26059489,-0.03105501,0.99428449,-0.01374809,-0.09871630,0.03826789
1755651285980,0.12894056,-0.93858120,-0.78846730,0.07359543,-0.22906881,-0.05378821,0.99417446,-0.01333964,-0.09998763,0.03796937
1755651285992,-0.58014599,-1.03222870,0.39749444,0.04284084,-0.20907670,-0.07846173,0.99407588,-0.01309973,-0.10115846,0.03752998
1755651286003,-0.06652304,-1.29814963,-0.19386716,0.01508194,-0.15615347,-0.10473407,0.99400959,-0.01301527,-0.10203292,0.03694347
1755651286014,0.20743138,-1.16849900,-1.16138075,-0.02811453,-0.14105761,-0.11569611,0.99395052,-0.01317131,-0.10281579,0.03630136
1755651286025,0.70293536,-1.13792927,0.82409806,-0.06649709,-0.10813060,-0.13045945,0.99390911,-0.01354369,-0.10342132,0.03557079
1755651286036,0.50326824,-1.11069774,0.23099524,-0.06653661,-0.07079201,-0.10848342,0.99388396,-0.01391962,-0.10382129,0.03495786
1755651286047,0.33013815,-0.89499820,-2.54153891,-0.03705359,-0.05195079,-0.09554018,0.99386954,-0.01412342,-0.10410702,0.03443239
1755651286059,0.22181050,-0.62156723,0.13999270,-0.00616778,-0.02625342,-0.09022099,0.99387100,-0.01415765,-0.10425273,0.03393166
1755651286070,0.33270901,-1.05941132,1.10048480,0.01798877,0.00154070,-0.03406448,0.99387991,-0.01405601,-0.10424402,0.03373919
1755651286081,0.45273523,-1.70459832,-1.90207706,0.00422786,0.03068020,0.00317089,0.99389749,-0.01403255,-0.10407375,0.03375679
1755651286092,0.20318116,-1.88474715,-0.13545411,-0.04097298,0.04709866,-0.01413359,0.99392425,-0.01425995,-0.10381235,0.03367835
1755651286103,0.30023552,-1.43706464,0.35345397,-0.06495868,0.04804878,-0.03537114,0.99395373,-0.01462372,-0.10354328,0.03348027
1755651286114,0.68043568,-1.22022264,-0.31931061,-0.10087628,0.04730252,-0.02259676,0.99397707,-0.01518862,-0.10327838,0.03335373
1755651286126,0.71141050,-0.81639175,-1.05229181,-0.13809703,0.06368425,-0.02349950,0.99400609,-0.01595506,-0.10292494,0.03322331
1755651286137,0.42583308,-1.38045584,0.19900407,-0.12884966,0.07883268,-0.01638625,0.99404292,-0.01667662,-0.10248347,0.03313155
1755651286148,0.57912211,-1.90313514,-1.66998563,-0.11666143,0.11764454,-0.01004423,0.99410029,-0.01731826,-0.10183643,0.03307630
1755651286159,0.20668795,-1.90840782,1.37027097,-0.09311250,0.14652598,-0.00425515,0.99417557,-0.01783969,-0.10101588,0.03305247
1755651286170,0.65327235,-1.54693687,-1.00049444,-0.08916492,0.17004951,-0.00005316,0.99426202,-0.01833455,-0.10007211,0.03305218
1755651286181,0.31569196,-0.30291206,1.78883846,-0.13515868,0.18216062,-0.01311513,0.99435396,-0.01910496,-0.09903379,0.03297742
1755651286192,1.11924010,-0.74927724,-4.12522087,-0.19624403,0.19424906,-0.02072656,0.99444145,-0.02017449,-0.09797514,0.03286446
1755651286203,0.45083964,0.04182756,1.68778458,-0.24784196,0.19159542,-0.03315899,0.99452357,-0.02156240,-0.09690220,0.03267877
1755651286215,0.68423699,-0.29222621,-0.29650268,-0.18919464,0.17054470,-0.05183174,0.99460212,-0.02262189,-0.09594715,0.03238851
1755651286226,0.23529968,-0.39606505,-1.05937553,-0.15237344,0.15201731,-0.04710309,0.99467203,-0.02346757,-0.09510345,0.03212709
1755651286237,0.70049124,0.54762160,-0.35992091,-0.14243665,0.13556157,-0.03670315,0.99473128,-0.02425809,-0.09435109,0.03192339
1755651286248,0.59019290,0.83884793,-0.58438772,-0.12158718,0.11656434,-0.03008480,0.99478109,-0.02493290,-0.09370416,0.03175642
1755651286259,1.21134673,1.15232744,-0.47215430,-0.09000033,0.10597410,-0.03123471,0.99482919,-0.02543240,-0.09311600,0.03158307
1755651286270,0.28999967,1.40299952,0.95595594,-0.07934468,0.09075762,-0.04601391,0.99487371,-0.02588070,-0.09260322,0.03132309
1755651286281,0.47462634,0.58957833,-1.42636836,-0.02347636,0.07835051,-0.01151415,0.99491305,-0.02601217,-0.09216446,0.03125861
1755651286293,0.44509962,1.05107724,-2.47545761,0.00401525,0.06481078,0.03760639,0.99494007,-0.02599008,-0.09180800,0.03146544
1755651286304,-0.06652304,2.19738564,1.44291067,0.00733937,0.07098632,0.09892457,0.99496007,-0.02594898,-0.09141047,0.03201942
1755651286315,0.26385406,1.49207498,0.44775337,0.04010349,0.10744632,0.16212012,0.99499164,-0.02572240,-0.09080340,0.03293540
1755651286326,0.68336313,1.73026970,-2.66998120,-0.03037164,0.16516574,0.16544018,0.99503926,-0.02588944,-0.08989499,0.03384532
1755651286337,-0.26833840,3.97639318,1.69538721,-0.28624391,0.21682948,0.13655041,0.99507891,-0.02749241,-0.08868074,0.03461000
1755651286348,0.21833336,4.99897788,-1.40105159,-0.41876657,0.24198688,0.12773581,0.99510586,-0.02981656,-0.08733772,0.03531894
1755651286359,0.17028516,1.51369965,-1.01397074,-0.02145338,0.26049452,0.09739421,0.99520878,-0.02993563,-0.08589197,0.03585948
1755651286371,-0.26730790,3.54245895,0.53841713,-0.00213486,0.27514024,0.01335267,0.99533751,-0.02994758,-0.08435119,0.03593425
1755651286382,-0.21287373,4.43138486,0.72605146,-0.13733248,0.28774011,0.04958028,0.99543925,-0.03071664,-0.08273984,0.03621190
1755651286393,0.06072974,2.54247705,0.00127852,-0.05900945,0.33275943,0.10269768,0.99555998,-0.03104415,-0.08089303,0.03678187
1755651286404,-0.39862209,0.92399051,0.57664750,0.05546004,0.36135013,0.06262060,0.99571755,-0.03073634,-0.07888754,0.03712942
1755651286415,-0.41216749,0.10546070,0.66179005,0.14513266,0.36005831,0.01865231,0.99589452,-0.02993086,-0.07688921,0.03723294
1755651286427,-1.53125722,-1.55449903,3.88687357,0.26633889,0.32015384,-0.02275226,0.99608303,-0.02841273,-0.07506433,0.03710325
1755651286438,0.11089558,-0.99082675,-1.35943875,0.21845473,0.25729423,-0.12302463,0.99624718,-0.02721122,-0.07364922,0.03642661
1755651286449,-0.61937710,-0.64491108,2.39029002,-0.02285516,0.16613677,-0.21502488,0.99635436,-0.02733807,-0.07272716,0.03523323
1755651286460,0.11223340,-0.62550772,1.61383893,-0.21141180,0.09542943,-0.22597690,0.99640355,-0.02851141,-0.07219752,0.03397905
1755651286471,-0.89706450,-0.28282957,2.36238704,-0.26141761,0.07285366,-0.11050344,0.99641103,-0.02998842,-0.07178590,0.03335471
1755651286482,-0.61593355,0.18091512,-1.78173118,-0.20389211,0.10626459,-0.05519406,0.99642870,-0.03110982,-0.07120145,0.03305114
1755651286493,-2.01367483,0.21893870,0.77718993,-0.11741734,0.15408023,-0.04690085,0.99647748,-0.03176149,-0.07034630,0.03279084
1755651286504,-1.05914613,-0.47825529,1.50155431,-0.04709264,0.17576529,-0.00941004,0.99653977,-0.03202521,-0.06936201,0.03273815
1755651286515,-0.69754160,-0.28462358,0.96553444,-0.08397642,0.15555007,-0.03849450,0.99659185,-0.03249547,-0.06849093,0.03252258
1755651286526,0.31329384,-0.43775460,0.25840407,-0.14171701,0.11307638,-0.05542874,0.99661858,-0.03327492,-0.06786901,0.03221772
1755651286538,-0.89690338,-0.97797510,2.34631085,-0.16748517,0.09153016,-0.03668269,0.99662822,-0.03421284,-0.06735645,0.03201230
1755651286549,-0.82385418,-1.38437111,1.37090084,-0.21162641,0.09391764,0.00279656,0.99662167,-0.03540852,-0.06682581,0.03202810
1755651286560,-0.62346883,-1.26379501,-2.30545662,-0.24578891,0.11395894,0.01153783,0.99661260,-0.03674807,-0.06620473,0.03209098
1755651286571,-0.77843742,-1.05048283,3.32921051,-0.26588777,0.13544975,0.01778471,0.99660338,-0.03825034,-0.06543944,0.03219146
1755651286582,-0.40904522,0.20975783,0.06371409,-0.30389438,0.12779106,0.03757273,0.99657653,-0.03995215,-0.06472381,0.03240187
1755651286593,-0.22318315,0.35209491,-0.65487700,-0.24685779,0.13240537,0.03247619,0.99656238,-0.04130987,-0.06399558,0.03258049
1755651286605,-0.38185267,-1.06365301,2.01952804,-0.13670212,0.13160129,0.03820550,0.99657045,-0.04208223,-0.06325204,0.03279635
1755651286616,-0.78302077,-1.19754930,-0.78996743,-0.10550388,0.11876442,0.03409398,0.99658102,-0.04267306,-0.06258696,0.03298727
1755651286627,-0.48334652,-1.31995788,-1.11264349,-0.10763977,0.12878249,0.01896690,0.99659626,-0.04326507,-0.06187865,0.03309159
1755651286638,-0.60009688,-0.87893004,0.94909351,-0.07240843,0.09521708,-0.02396707,0.99661582,-0.04366694,-0.06135020,0.03295857
1755651286649,0.00625753,-0.47751539,1.59102829,-0.02489562,0.08893207,-0.00941203,0.99664220,-0.04380760,-0.06084773,0.03290540
1755651286660,-0.09642761,-0.28703780,-1.67787532,-0.01294443,0.08509324,-0.00930081,0.99666922,-0.04387880,-0.06037972,0.03285424
1755651286672,-0.38928938,-1.14622655,1.36944160,0.00430273,0.07184491,0.00751975,0.99669319,-0.04385470,-0.05997739,0.03289635
1755651286683,-0.28890006,-0.97408739,-0.31170798,-0.00482439,0.06618268,0.01121905,0.99671216,-0.04388172,-0.05960676,0.03295918
1755651286694,-0.01685397,-1.42480259,-2.02275786,0.00817014,0.05226954,0.04193372,0.99672363,-0.04383678,-0.05931928,0.03318982
1755651286705,-0.48332013,-0.45615800,1.14274489,0.01331772,0.03507467,0.05605845,0.99672808,-0.04376220,-0.05912286,0.03350374
1755651286716,-0.54738959,-0.53741114,-0.04941710,0.07551730,0.01206509,0.09033935,0.99673343,-0.04333930,-0.05905530,0.03400964
1755651286727,-0.66604028,-0.20979405,-0.19250379,0.09021745,0.02132831,0.09757537,0.99674345,-0.04283860,-0.05893693,0.03455119
1755651286738,-0.40442726,-0.71887430,-0.00387012,0.05714878,0.00985871,0.10394634,0.99674010,-0.04252142,-0.05888221,0.03512809
1755651286749,-0.57175569,-0.62818470,0.62797067,0.02038275,-0.01184829,0.09310623,0.99672253,-0.04240728,-0.05894856,0.03564948
1755651286761,-0.51374700,-2.07361885,-1.72783099,-0.01065967,-0.01912376,0.08159249,0.99669766,-0.04246591,-0.05905374,0.03609824
1755651286772,-0.58450427,-0.79206480,1.21040833,-0.02054520,-0.05009149,0.06364079,0.99666312,-0.04258096,-0.05933425,0.03645463
1755651286783,-0.21287373,-0.95222982,0.06082107,-0.00171630,-0.06089453,0.05290046,0.99663147,-0.04259057,-0.05967526,0.03675087
1755651286794,-0.41962514,0.18983587,-0.90814396,0.00387208,-0.09807335,0.04448497,0.99659088,-0.04256927,-0.06021467,0.03699554
1755651286805,-0.23198704,-0.36599872,2.05558134,0.04960301,-0.10047901,0.03276735,0.99656146,-0.04228902,-0.06078237,0.03718068
1755651286816,-0.26992712,-1.20751094,-1.09077604,0.06465840,-0.10037929,0.05308273,0.99653118,-0.04192693,-0.06134450,0.03747794
1755651286827,-0.53350124,-1.09306746,-2.17740030,0.07654341,-0.10569339,0.06507511,0.99649961,-0.04150977,-0.06192053,0.03783260
1755651286839,-0.39789504,-0.06408752,2.53167316,0.09189700,-0.10606838,0.03589560,0.99647597,-0.04099055,-0.06251981,0.03803541
1755651286850,-0.63027848,-0.00576926,-0.29075027,0.09675717,-0.11549454,0.03060054,0.99645077,-0.04044871,-0.06316658,0.03820677
1755651286861,-0.60519474,-0.27610251,-1.10082108,0.08607231,-0.12972709,0.03996644,0.99641593,-0.03997531,-0.06388008,0.03842659
1755651286872,-0.36392786,0.04202824,1.77054978,0.09340161,-0.15234339,0.01202346,0.99637879,-0.03944759,-0.06474082,0.03849452
1755651286883,-0.39360447,-1.04989927,-1.27539220,0.11662279,-0.18333498,-0.00597302,0.99633848,-0.03879451,-0.06576750,0.03846107
1755651286894,-0.54161411,-0.27268069,-1.91135980,0.15766669,-0.19394078,-0.00718595,0.99630241,-0.03792734,-0.06683417,0.03842155
1755651286906,-0.23468594,0.53677662,1.78409523,0.19922128,-0.20005273,0.01922382,0.99626397,-0.03680174,-0.06796447,0.03853016
1755651286917,-0.72390031,0.44832141,-1.44889659,0.26568819,-0.19932160,0.05968804,0.99622840,-0.03532717,-0.06907070,0.03886143
1755651286928,-0.77420802,0.36413818,-1.05244291,0.27225017,-0.20805437,0.05045821,0.99618951,-0.03382979,-0.07021500,0.03913895
1755651286939,-0.17463105,0.55090344,1.54777976,0.28516930,-0.20225104,0.04894377,0.99615082,-0.03221859,-0.07135772,0.03941548
1755651286950,-0.54427795,0.11173324,0.25985719,0.30364272,-0.19879021,0.03657296,0.99611521,-0.03048782,-0.07249083,0.03962395
1755651286961,-1.03668288,-0.72864673,-4.02150504,0.34858821,-0.19016253,0.01245572,0.99609288,-0.02858802,-0.07352721,0.03969183
1755651286972,-0.09613159,0.47341920,1.18730939,0.39914307,-0.17126398,-0.03226909,0.99609050,-0.02637277,-0.07447773,0.03951274
1755651286984,0.06482786,2.12920820,0.30270125,0.22130158,-0.16858657,-0.05127403,0.99606285,-0.02513349,-0.07542181,0.03922561
1755651286995,0.01392551,4.20392360,-1.27682774,-0.07540953,-0.18502253,-0.01211637,0.99597656,-0.02555201,-0.07644869,0.03915836
1755651287006,-0.24972620,3.28185455,-1.05176836,-0.09045907,-0.18456099,0.01640243,0.99588169,-0.02604953,-0.07746377,0.03924857
1755651287017,0.69816437,1.09179285,2.29786171,0.10584538,-0.16622356,0.00832298,0.99582126,-0.02544621,-0.07841125,0.03929601
1755651287027,-0.82045060,2.23176007,-9.15141783,0.10315190,-0.19517931,-0.07708884,0.99577063,-0.02491498,-0.07941642,0.03889901
1755651287038,0.77576346,3.66130231,6.09864090,-0.07755743,-0.24085294,-0.10769870,0.99567716,-0.02533767,-0.08072907,0.03831205
1755651287050,0.82992507,2.86389974,3.10930264,-0.03121240,-0.30668091,-0.20116950,0.99557467,-0.02551246,-0.08244648,0.03718550
1755651287061,0.49397261,2.48722723,-0.39288399,0.10614375,-0.38744083,-0.27034442,0.99546513,-0.02492867,-0.08457741,0.03569860
1755651287072,1.19503028,1.65833302,2.28652651,0.16900784,-0.42411609,-0.16367539,0.99531620,-0.02398223,-0.08695246,0.03478202
1755651287083,0.57130880,1.49103614,0.78221292,0.27806903,-0.43133387,-0.08432890,0.99515641,-0.02243894,-0.08934636,0.03431400
1755651287094,0.34250539,-0.01354541,1.92344832,0.42412398,-0.41310847,-0.05125480,0.99500797,-0.02008505,-0.09163911,0.03402953
1755651287105,0.91454974,-0.76225700,3.60583979,0.42669658,-0.35945037,-0.00445893,0.99486414,-0.01765288,-0.09368798,0.03400412
1755651287116,0.59993540,-0.03332398,-1.13833896,0.32255499,-0.38877023,0.03608173,0.99468356,-0.01587883,-0.09582621,0.03420257
1755651287127,0.91211629,-0.23437079,1.53485335,0.14967787,-0.38982234,-0.00388623,0.99448641,-0.01504812,-0.09798973,0.03418100
1755651287139,0.74458099,-0.44230188,0.87084645,0.07046517,-0.40192254,-0.04731582,0.99428082,-0.01466056,-0.10020030,0.03392076
1755651287150,0.45874980,0.46761378,2.60397101,0.00069480,-0.40014028,-0.06184574,0.99406427,-0.01465667,-0.10244109,0.03357442
1755651287161,0.59304365,-0.30780391,0.45321838,0.12147583,-0.36654047,-0.01796392,0.99386560,-0.01398248,-0.10447539,0.03347473
1755651287172,0.31506408,0.37442969,1.74038659,0.09339641,-0.34194002,-0.01505495,0.99367250,-0.01345946,-0.10639025,0.03339042
1755651287183,0.71084621,-0.15110234,0.66523042,0.09770328,-0.29984418,-0.04694570,0.99350735,-0.01291232,-0.10806938,0.03312752
1755651287194,0.68124432,-0.49092611,0.03023528,0.08066335,-0.29705601,-0.07570481,0.99334627,-0.01246464,-0.10971804,0.03270736
1755651287205,0.42151807,0.17483488,1.93911668,-0.01545985,-0.28775784,-0.08576908,0.99318157,-0.01255121,-0.11132948,0.03222705
1755651287217,0.28699941,-0.57827529,1.72199644,0.02200190,-0.27350231,-0.07418293,0.99302363,-0.01242800,-0.11286110,0.03181163
1755651287228,0.14208002,-0.44041112,0.65009174,0.02507415,-0.27143216,-0.07469563,0.99286762,-0.01229010,-0.11435397,0.03140080
1755651287239,0.20447628,-0.64417630,2.05284921,-0.02622499,-0.25349521,-0.09326827,0.99271765,-0.01243696,-0.11577355,0.03087850
1755651287250,0.22866519,-0.59056004,0.36690095,-0.02488507,-0.23520154,-0.12833811,0.99258470,-0.01257507,-0.11707892,0.03016622
1755651287261,0.15867481,-0.89254581,0.58438773,0.00877800,-0.23118902,-0.15128953,0.99245830,-0.01252635,-0.11836201,0.02932657
1755651287272,0.30573927,-0.55197548,0.53794630,0.03248795,-0.21262556,-0.17090506,0.99234669,-0.01234604,-0.11954209,0.02837804
1755651287283,0.32806047,-1.25982397,-0.09606030,0.08046971,-0.20982355,-0.15333082,0.99223413,-0.01189541,-0.12071710,0.02751939
1755651287294,0.21660563,-0.57100212,-0.50681260,0.09021088,-0.20834522,-0.15619499,0.99212231,-0.01139474,-0.12187341,0.02665251
1755651287306,0.27569819,-0.84771073,0.50989013,0.13298718,-0.20239934,-0.16524050,0.99201512,-0.01065001,-0.12300685,0.02572716
1755651287317,0.23393834,-0.77794898,1.70200705,0.15077861,-0.19382301,-0.14823438,0.99190792,-0.00979057,-0.12411164,0.02488223
1755651287328,0.42100665,-0.52819902,-1.92782565,0.13797425,-0.18843157,-0.11791285,0.99180193,-0.00903861,-0.12513859,0.02423960
1755651287339,0.21695404,-1.11507177,1.21575872,0.08399062,-0.17769956,-0.07977632,0.99169087,-0.00856827,-0.12613371,0.02379285
1755651287350,0.26039019,-0.85482108,-0.22047637,0.04894080,-0.16342905,-0.08495880,0.99158766,-0.00829420,-0.12704891,0.02331708
1755651287361,0.34158969,-0.92662531,-0.40612044,0.02226012,-0.14126308,-0.09017517,0.99149956,-0.00817066,-0.12783292,0.02281661
1755651287373,0.43502815,-0.70528550,0.45571280,-0.00747855,-0.13351214,-0.13093691,0.99141914,-0.00821254,-0.12858059,0.02208337
1755651287384,0.62727000,-0.47842166,-0.60688278,-0.01218887,-0.15881354,-0.19292149,0.99132714,-0.00828018,-0.12946201,0.02101265
1755651287395,0.77595853,-0.56068325,-0.74306253,-0.02431774,-0.18958008,-0.15893033,0.99120633,-0.00841515,-0.13051418,0.02013059
1755651287406,0.53794631,-0.51037173,0.13158399,-0.04731024,-0.18069185,-0.07541421,0.99107992,-0.00867772,-0.13151702,0.01971204
1755651287417,0.18778847,-0.57028739,0.52704742,-0.07612544,-0.16686294,-0.01267534,0.99095306,-0.00910402,-0.13245145,0.01964106
1755651287428,0.32155920,-0.14276838,-1.00429244,-0.14052229,-0.13178776,-0.02220021,0.99085185,-0.00986987,-0.13316969,0.01952007
1755651287439,0.25178827,-0.50923167,2.33917358,-0.14233746,-0.10372715,0.00645649,0.99076307,-0.01068119,-0.13376094,0.01955687
1755651287451,0.75905222,-0.49277797,-1.34038458,-0.12885707,-0.09953189,-0.02314047,0.99068289,-0.01139635,-0.13431334,0.01942844
1755651287462,0.59599807,-0.10062305,0.10836328,-0.12488108,-0.10191186,-0.04416731,0.99060260,-0.01208944,-0.13487895,0.01918331
1755651287473,0.68314770,-0.22786168,0.95212070,-0.10200936,-0.10528000,-0.01511004,0.99051588,-0.01266579,-0.13547378,0.01909794
1755651287484,1.23029781,-0.53752888,-1.37503377,-0.09565212,-0.10077685,0.00372193,0.99043113,-0.01320144,-0.13603813,0.01911878
1755651287495,1.10313894,-0.34751149,-0.75063000,-0.10710090,-0.08491495,0.01388691,0.99035669,-0.01379585,-0.13650941,0.01919585
1755651287506,1.01926528,-0.83625330,-1.57027622,-0.09447823,-0.08176361,0.02162881,0.99028622,-0.01430604,-0.13695093,0.01931265
1755651287517,-0.12167706,-0.42951329,4.16862364,-0.12189524,-0.06949325,0.02722445,0.99021864,-0.01499474,-0.13734357,0.01946647
1755651287528,0.84681927,-0.35632008,-0.15819010,-0.19023753,-0.10687646,-0.03825231,0.99012465,-0.01604105,-0.13793139,0.01925608
1755651287539,0.90722587,0.15900905,1.21810184,-0.19961134,-0.14198436,-0.10443176,0.99000709,-0.01714889,-0.13871940,0.01867648
1755651287551,0.78649792,0.25881713,1.20925149,-0.12674526,-0.20502160,-0.09596379,0.98984150,-0.01786500,-0.13987778,0.01813429
1755651287562,1.55335642,-0.25490543,-0.94631583,-0.00178091,-0.25649945,-0.03965041,0.98964491,-0.01787480,-0.14128852,0.01791621
1755651287573,0.65939858,-0.35542376,1.76515197,0.09889685,-0.28023984,-0.00068434,0.98942758,-0.01731603,-0.14287188,0.01791234
1755651287584,1.29892335,-0.74233322,-0.39930645,0.11970279,-0.29289378,0.00815981,0.98920002,-0.01664570,-0.14451208,0.01795804
1755651287595,1.51330352,-1.01349008,-0.90624393,0.07819273,-0.32325844,-0.01952923,0.98894775,-0.01621564,-0.14629000,0.01785063
1755651287607,0.62345049,0.44277563,1.78337042,-0.02609742,-0.35496760,-0.08928681,0.98865815,-0.01636178,-0.14827782,0.01735062
1755651287618,0.97123640,0.10881269,1.10998446,0.02747772,-0.42647106,-0.13740670,0.98831276,-0.01620791,-0.15066606,0.01658114
1755651287629,1.11517687,0.78810781,-0.11646481,0.09762365,-0.49414646,-0.22699062,0.98792344,-0.01567098,-0.15338387,0.01533270
1755651287640,0.17518319,0.50543618,1.23348710,0.27268800,-0.52418084,-0.23021691,0.98749787,-0.01411665,-0.15637170,0.01402046
1755651287651,1.91101289,0.00129632,-1.98374490,0.39318628,-0.55980402,-0.16009656,0.98704607,-0.01195413,-0.15945062,0.01313993
1755651287662,1.02263837,-0.25664479,0.10640168,0.45576155,-0.57402439,-0.07433858,0.98656342,-0.00944744,-0.16260775,0.01273107
1755651287673,0.42478054,-0.92510496,1.62735503,0.46501885,-0.60322134,-0.07956930,0.98602300,-0.00682008,-0.16601595,0.01228150
1755651287684,0.52058215,1.25189306,0.88570889,0.13494976,-0.71484972,-0.13784569,0.98536093,-0.00607111,-0.16998337,0.01151646
1755651287695,1.90919477,-2.74539944,-0.27195091,0.43798412,-0.80054153,-0.01084925,0.98460385,-0.00366220,-0.17438635,0.01145679
1755651287707,0.56157599,2.33715015,2.05727877,0.15453695,-0.86479732,0.01272713,0.98372796,-0.00278907,-0.17927245,0.01152869
1755651287718,3.17867443,-0.11861874,-2.10121982,0.22199730,-0.93912025,0.06165232,0.98275365,-0.00154588,-0.18453153,0.01187395
1755651287729,2.33232201,0.63804943,-0.99463052,0.19699627,-0.99417253,0.08255611,0.98170668,-0.00046240,-0.18999948,0.01232801
1755651287740,0.51279761,2.12264657,1.12892193,-0.00397883,-1.02492829,-0.00504198,0.98057876,-0.00048468,-0.19573907,0.01229977
1755651287751,1.54713587,2.48368525,0.25088689,-0.09299567,-1.06587284,-0.10407207,0.97937511,-0.00100546,-0.20170796,0.01171697
1755651287762,2.41286217,3.53585027,-0.43151792,-0.13828901,-1.15173945,-0.15650070,0.97805794,-0.00176605,-0.20804253,0.01085621
1755651287774,0.75490692,2.84555332,1.12705583,0.01008807,-1.19722528,-0.17008384,0.97661800,-0.00170956,-0.21474699,0.00990374
1755651287785,0.98644167,-0.24993657,0.39913824,0.28620281,-1.25582055,-0.09786228,0.97505193,-0.00010682,-0.22177959,0.00935571
1755651287796,0.84385835,-0.77910732,1.16815346,0.18468050,-1.34349932,-0.17381075,0.97333427,0.00091816,-0.22923601,0.00839106
1755651287807,0.66406080,-0.83004050,1.94501703,-0.05918639,-1.43033009,-0.29645544,0.97146086,0.00059263,-0.23710282,0.00676056
1755651287818,-0.43924260,-1.16277413,3.93174489,-0.24441053,-1.49393767,-0.37475160,0.96937411,-0.00078829,-0.24554357,0.00464321
1755651287829,1.25972320,-0.32690933,2.08106142,-0.39887294,-1.65259191,-0.48236794,0.96700939,-0.00300203,-0.25471546,0.00196607
1755651287840,0.43345314,-0.44312844,2.60071886,-0.37371396,-1.80150634,-0.51421989,0.96431325,-0.00507615,-0.26471382,-0.00088785
1755651287852,0.23590422,-0.59693941,2.30640606,-0.30433719,-1.93130303,-0.42515954,0.96126326,-0.00678043,-0.27552911,-0.00326874
1755651287863,0.39666976,-0.10591423,2.55690360,-0.30896085,-2.00548508,-0.34798070,0.95798074,-0.00849517,-0.28665955,-0.00520004
1755651287874,-0.58699520,0.28743176,2.50647175,-0.33626136,-2.07093823,-0.26251745,0.95440593,-0.01037823,-0.29825681,-0.00667013
1755651287885,0.47424487,-0.02491820,1.02758527,-0.22514320,-2.14580295,-0.21267441,0.95057888,-0.01162777,-0.31016602,-0.00785048
1755651287896,0.65671174,0.08474058,1.47350528,-0.11091617,-2.25150545,-0.11781892,0.94643540,-0.01223781,-0.32254930,-0.00849848
1755651287907,-0.88681955,0.02951397,2.76741337,0.02294859,-2.27945241,-0.05935842,0.94194654,-0.01210815,-0.33542820,-0.00883386
1755651287918,0.21119174,-0.14010207,2.86568814,0.12215624,-2.38675011,-0.05400458,0.93708525,-0.01142408,-0.34879400,-0.00913628
1755651287929,1.02206625,-0.43217076,2.52363143,0.08853369,-2.53246171,-0.01792981,0.93183647,-0.01094157,-0.36259592,-0.00923400
1755651287941,-2.24642483,-0.88665175,2.63469282,0.05613462,-2.51576145,-0.04143237,0.92618126,-0.01062441,-0.37680997,-0.00946809
1755651287952,0.19595466,-0.38187869,2.34227721,-0.08424027,-2.62585909,-0.11509695,0.92010531,-0.01109194,-0.39138349,-0.01010688
1755651287963,-0.43925832,-0.05321411,2.77874425,-0.19607113,-2.72065841,-0.16539501,0.91351056,-0.01218014,-0.40648314,-0.01102482
1755651287974,-0.57780013,0.07426694,2.52205372,-0.19295462,-2.80737585,-0.15685902,0.90632548,-0.01326068,-0.42220445,-0.01190323
1755651287985,-0.14635068,1.78234234,0.92371994,-0.18961803,-2.90495696,-0.14522573,0.89854064,-0.01432255,-0.43847221,-0.01271650
1755651287996,0.49298741,1.41483623,1.84528099,-0.19395195,-3.03826279,-0.14964288,0.89016212,-0.01538928,-0.45518265,-0.01353953
1755651288007,-1.46127900,0.29963366,2.31287698,-0.16122431,-3.03096484,-0.09496756,0.88117064,-0.01630020,-0.47230760,-0.01407610
1755651288019,-0.66913264,-0.40703523,4.05358277,-0.14977561,-3.10931311,-0.05786189,0.87159248,-0.01713894,-0.48971976,-0.01440013
1755651288030,-0.56154712,0.04244171,2.89439856,-0.10594026,-3.16926049,-0.04705017,0.86145704,-0.01772691,-0.50730915,-0.01466125
1755651288041,-0.87658158,0.86932511,1.96214949,-0.08905163,-3.20323483,-0.07667950,0.85071964,-0.01822115,-0.52508711,-0.01508682
1755651288052,-0.18106392,-0.04792425,2.24306244,0.02832195,-3.26842750,-0.03148678,0.83935860,-0.01806538,-0.54306346,-0.01526000
1755651288063,-1.23741213,0.42954752,2.30931053,0.04507117,-3.30027851,-0.03339539,0.82733413,-0.01781748,-0.56121499,-0.01544368
1755651288074,-2.46243784,-0.03257166,1.17498151,0.03259566,-3.22049075,-0.02672924,0.81458114,-0.01763169,-0.57957179,-0.01559603
1755651288085,-0.08835695,0.73718942,2.36448178,-0.01891943,-3.34256401,-0.00171796,0.80118080,-0.01773575,-0.59795589,-0.01560548
1755651288097,-2.05416240,0.26491721,1.03810501,-0.07499688,-3.26289320,0.03155645,0.78720726,-0.01815573,-0.61622809,-0.01542877
1755651288108,-1.29507257,-0.06109257,1.24769819,-0.10623076,-3.23056491,0.03370272,0.77282617,-0.01874531,-0.63415773,-0.01524172
1755651288119,-1.86418982,-1.07089188,0.28158900,-0.15049661,-3.11848108,0.05204783,0.75800998,-0.01959562,-0.65177714,-0.01494765
1755651288130,-0.37713136,-0.37544867,1.03995349,-0.13456715,-3.16551770,0.04745940,0.74267009,-0.02033573,-0.66918749,-0.01468662
1755651288141,-2.06953417,-0.24928379,0.48885832,-0.12123696,-3.03329522,0.06933971,0.72685002,-0.02102072,-0.68632561,-0.01429485
1755651288152,-0.93340038,0.04849206,1.35471232,-0.11003633,-3.05560274,0.09165029,0.71044588,-0.02163142,-0.70328420,-0.01378619
1755651288163,-0.95569797,0.94605011,2.64694149,-0.12143911,-3.04572154,0.10508863,0.69345289,-0.02229934,-0.72003567,-0.01320820
1755651288174,-2.44119966,-0.84029043,0.22144108,-0.16367616,-2.95206236,0.11613595,0.67601013,-0.02320774,-0.73641962,-0.01256365
1755651288186,-2.16291975,-0.81159534,-0.98808470,-0.21247619,-2.84822475,0.03863234,0.65801017,-0.02440823,-0.75251209,-0.01234538
1755651288197,-1.20225877,-1.42024533,-1.06453991,-0.29749782,-2.83975114,-0.00895809,0.63964307,-0.02604447,-0.76813072,-0.01239465
1755651288208,-1.73111959,-0.55236586,-0.78307122,-0.28825730,-2.70097390,0.00933437,0.62096089,-0.02765871,-0.78325617,-0.01234237
1755651288219,-1.11378578,0.37157870,-0.45995932,-0.25666658,-2.60236912,0.04116717,0.60205889,-0.02909604,-0.79782944,-0.01211184
1755651288230,-1.16239613,0.56583949,-0.06636030,-0.19575889,-2.54670131,0.01979117,0.58298144,-0.03017272,-0.81183630,-0.01200299
1755651288242,-1.88168490,-0.10233473,-1.14736315,-0.14779303,-2.38563993,0.04474940,0.56352287,-0.03101514,-0.82543445,-0.01174791
1755651288253,-1.50794480,-0.49639426,0.66495865,-0.10011200,-2.39322901,0.07160870,0.54371814,-0.03156576,-0.83859720,-0.01135407
1755651288264,-1.73198290,-0.32413104,-0.39802110,-0.04497923,-2.34008548,0.08670237,0.52332820,-0.03181314,-0.85146767,-0.01087720
1755651288275,-2.25694536,-0.24678320,-0.88798756,0.11359409,-2.22474500,0.04155412,0.50253968,-0.03117701,-0.86392625,-0.01064450
1755651288286,-1.66574653,-0.22781524,-1.22939623,0.08420570,-2.12653067,0.07338491,0.48133138,-0.03070125,-0.87594115,-0.01022988
1755651288297,-1.42521057,-0.03882824,-0.96588034,-0.08580766,-2.03964691,0.08184262,0.46030548,-0.03117319,-0.88715920,-0.00977974
1755651288308,-1.12387654,-0.01046226,-2.53222979,-0.14602571,-1.85731598,-0.01816344,0.43961878,-0.03199094,-0.89756017,-0.00988146
1755651288320,-0.76623874,-1.31299781,-1.80788464,-0.11445937,-1.70029329,-0.03706525,0.41938205,-0.03263763,-0.90716683,-0.01009087
1755651288330,-1.58335652,-1.46958163,-0.91762223,-0.04301439,-1.62215965,-0.05879174,0.39967626,-0.03287206,-0.91600760,-0.01041129
1755651288342,-1.40040966,-0.63445570,-1.76250305,0.02753285,-1.46008478,-0.05850733,0.38021454,-0.03271650,-0.92425708,-0.01074186
1755651288353,-2.35741520,-1.83635356,0.21724031,-0.01225199,-1.41563415,0.07869750,0.36053121,-0.03278450,-0.93211385,-0.01030508
1755651288364,-1.93908807,-1.42321123,-1.15831205,-0.09695574,-1.34527567,0.04792054,0.34074136,-0.03331776,-0.93951286,-0.01004152
1755651288375,-1.36446533,-2.07081907,-1.66421642,-0.13613925,-1.23343685,0.03358498,0.32098353,-0.03408014,-0.94642011,-0.00985345
1755651288386,-0.57561085,-1.33487949,-2.19632615,-0.22651136,-1.15723120,-0.14751506,0.30121103,-0.03533727,-0.95284274,-0.01067215
1755651288397,-0.52835162,0.43141142,-1.29503306,-0.25788517,-1.07910483,-0.35250292,0.28148726,-0.03675564,-0.95877782,-0.01261092
1755651288408,-0.06811268,0.32002766,-0.32228254,-0.19977317,-0.97219289,-0.26775933,0.26199651,-0.03787437,-0.96422210,-0.01411037
1755651288420,-0.44643634,0.40948894,-0.72682817,-0.12122481,-0.87205798,-0.06715761,0.24300823,-0.03855929,-0.96914923,-0.01448981
1755651288431,-1.45820172,-0.74945877,-0.47788339,-0.10131359,-0.80454511,0.10966218,0.22456688,-0.03911652,-0.97357423,-0.01388667
1755651288442,-0.41969552,-0.75712677,-1.63149243,-0.14452184,-0.71306180,-0.00597363,0.20667551,-0.03991139,-0.97749607,-0.01391953
1755651288453,-0.11007799,-0.58122793,-1.59133568,-0.16376929,-0.61113013,-0.15553766,0.18934764,-0.04083668,-0.98094895,-0.01479831
1755651288464,-0.08792281,-0.81382767,-1.24779007,-0.11912068,-0.55136478,-0.21927851,0.17279432,-0.04148589,-0.98395389,-0.01599338
1755651288475,0.26972986,2.20693005,-1.02775393,0.06892551,-0.45607891,-0.14984507,0.15728840,-0.04109302,-0.98655354,-0.01684750
1755651288486,-0.35092155,2.28271565,-1.07603937,0.05452333,-0.39129463,-0.06949084,0.14290908,-0.04078769,-0.98874479,-0.01723665
1755651288497,-0.86267523,1.94439217,-1.15863081,-0.04801968,-0.33308847,0.02482760,0.12966548,-0.04104939,-0.99056012,-0.01710134
1755651288509,0.32793623,1.65481975,-0.25825149,-0.03937622,-0.27133114,0.08615348,0.11735325,-0.04127187,-0.99209314,-0.01661457
1755651288520,-0.20068100,1.29731128,-0.46304413,0.07530307,-0.23864221,0.06717583,0.10577627,-0.04085394,-0.99341761,-0.01624174
1755651288531,-0.14512940,1.04541545,-0.54568655,0.05102227,-0.20244200,0.02075026,0.09477251,-0.04057076,-0.99454116,-0.01612658
1755651288542,-0.08179680,1.06794309,-0.74060607,-0.00084872,-0.16322728,-0.01947174,0.08461035,-0.04057552,-0.99545523,-0.01623562
1755651288553,-1.05296471,-0.81063077,-1.87404910,0.00498074,-0.13357680,0.02213591,0.07533501,-0.04054762,-0.99620326,-0.01611166
1755651288564,-1.42453933,-0.07578509,-2.00647064,-0.00782580,-0.11269804,-0.03747701,0.06664202,-0.04059027,-0.99681747,-0.01631591
1755651288575,-0.76884464,-0.37656394,-1.15915110,-0.12599407,-0.08578948,-0.06448180,0.05834612,-0.04130214,-0.99730218,-0.01668023
1755651288587,-0.23463879,0.97778778,-1.20747309,-0.15081431,-0.06913000,-0.19065782,0.05024656,-0.04214670,-0.99768931,-0.01774792
1755651288598,-0.20119207,0.45482848,-1.49342358,-0.14666225,-0.05446591,-0.36413859,0.04222725,-0.04295334,-0.99798887,-0.01975068
1755651288609,0.65620742,0.82171058,-0.78502499,-0.03966530,-0.04101900,-0.49708962,0.03438563,-0.04317745,-0.99822063,-0.02255924
1755651288620,-0.25493113,-0.89241738,-1.65476628,-0.01630261,-0.02941955,-0.43247703,0.02710149,-0.04326793,-0.99838390,-0.02495948
1755651288631,0.00387012,0.53068984,-0.97139946,-0.04809397,-0.01864428,-0.30173858,0.02045219,-0.04353485,-0.99848738,-0.02663413
1755651288642,0.10176227,0.89074523,-0.61238869,15.56054220,356.61598650,9.71013426,-0.01423607,0.04360418,0.99856214,0.02774262
1755651288653,-0.34972113,2.83578221,0.00760264,-0.03187063,0.00869348,0.16725681,-0.00825361,0.04342571,0.99861083,0.02867926
1755651288664,-0.67271618,1.60234984,-0.75522674,-0.01664068,0.00301419,0.11700835,-0.00237178,0.04333418,0.99862741,0.02932280
1755651288676,0.31117503,0.49634695,0.19762226,-0.00451021,-0.00036033,0.00068414,0.00340083,0.04330915,0.99862541,0.02932660
1755651288687,0.21355865,0.34818434,-0.14975818,-0.01455109,-0.00274694,-0.08743056,0.00882145,0.04322767,0.99861002,0.02883699
1755651288698,0.29754643,-0.87232968,-2.18848666,-0.04389468,-0.00463164,-0.13126971,0.01391715,0.04297966,0.99858385,0.02809532
1755651288709,-0.45710629,-0.04718015,-1.28256141,-0.08323834,-0.00783449,-0.12802055,0.01888036,0.04252601,0.99854116,0.02739760
1755651288720,0.31749164,-0.34093426,0.24051536,-0.10625537,-0.01276889,-0.08387865,0.02393933,0.04193630,0.99847029,0.02693208
1755651288731,-0.08514258,0.67727054,1.33519048,-0.08732494,-0.01907916,-0.02761018,0.02886486,0.04145164,0.99836440,0.02677884
1755651288742,0.45607238,-0.71162531,0.06996477,-0.06727469,-0.02300316,-0.03122034,0.03362739,0.04107490,0.99823558,0.02660401
1755651288754,0.63672054,-1.14657213,-0.61581329,-0.05260498,-0.02755615,-0.00634681,0.03827356,0.04078032,0.99808127,0.02656847
1755651288765,0.37310959,-0.65838678,-0.26157080,-0.04705375,-0.02987241,-0.01840128,0.04265223,0.04052152,0.99791697,0.02646726
1755651288776,0.79675597,-0.36357002,0.54199864,-0.03432507,-0.03193118,-0.02003998,0.04687786,0.04032930,0.99773815,0.02635503
1755651288787,0.57208628,0.71487892,0.73912330,-0.04463760,-0.03363655,-0.02458708,0.05096190,0.04008156,0.99755147,0.02621858
1755651288798,0.65514494,-0.30080486,0.49149997,-0.11546327,-0.02950795,-0.10686453,0.05485622,0.03943497,0.99738623,0.02562013
1755651288810,0.75626194,-0.36039968,0.65048027,-0.16372639,-0.02678463,-0.16681491,0.05860273,0.03850173,0.99723356,0.02466929
1755651288821,-0.12413529,-1.74674363,-1.07722195,-0.11018979,-0.03009447,-0.20752991,0.06217466,0.03789568,0.99706804,0.02352788
1755651288832,0.55959402,-1.14923666,-0.04728964,-0.10043572,-0.03077511,-0.20499884,0.06554799,0.03734329,0.99689877,0.02240038
1755651288843,0.67338283,-1.08317988,0.48833844,-0.05621635,-0.03178440,-0.17241079,0.06865405,0.03703129,0.99672237,0.02144350
1755651288854,0.97476375,0.50182516,1.09875174,-0.01288295,-0.03289172,-0.07373448,0.07143809,0.03695914,0.99653818,0.02103059
1755651288865,0.61868318,0.23042748,0.78770710,0.07194130,-0.03499401,0.00293171,0.07389245,0.03735841,0.99634396,0.02104686
1755651288876,0.83704307,-0.67027315,1.13518958,0.04278379,-0.02609091,-0.13271546,0.07592099,0.03759800,0.99619785,0.02030365
1755651288887,0.68993897,-0.04086415,0.13304608,0.02137142,-0.01979370,-0.14664106,0.07751444,0.03771768,0.99608700,0.01948246
1755651288898,0.67853502,-0.92847159,0.68043568,0.02168206,-0.01266559,-0.21815882,0.07865570,0.03783910,0.99601608,0.01826077
1755651288910,0.73678941,-0.60116597,0.01928178,0.03380823,-0.01074720,-0.14837052,0.07949525,0.03802505,0.99595697,0.01744474
1755651288921,0.71139793,0.36876941,0.61151372,0.05792172,-0.00994964,0.02837621,0.07999635,0.03834651,0.99590175,0.01760222
1755651288932,0.56310207,0.53891384,0.48763479,0.10085328,-0.00936584,0.17215996,0.08015707,0.03890625,0.99584977,0.01855771
1755651288943,0.54770618,0.82502273,1.05932413,0.11913240,-0.00634267,0.22636897,0.07996260,0.03959126,0.99581330,0.01985933
1755651288954,-0.01076650,0.70194245,-0.28645513,0.06601204,0.00159302,0.16401422,0.07944688,0.03995103,0.99582198,0.02075321
1755651288965,0.12238182,1.01063519,0.41989436,0.00832873,0.00680847,0.07754694,0.07883957,0.03999683,0.99585943,0.02117972
1755651288976,-0.20986591,0.63710927,1.05105351,0.00505944,0.00840143,-0.04266358,0.07829772,0.04002491,0.99590605,0.02094294
1755651288988,-0.06526674,0.53972066,1.15865294,-0.00164989,0.00952778,-0.12002575,0.07779459,0.04001559,0.99595989,0.02026479
1755651288999,0.15237224,-0.00374665,0.79679633,-0.00928387,0.00948579,-0.16343100,0.07737310,0.03996360,0.99601301,0.01934958
1755651289010,-0.06021142,-0.35796426,0.11022924,-0.04141984,0.01216853,-0.16492192,0.07684377,0.03973372,0.99608054,0.01843426
1755651289021,-0.50505031,-0.97043192,-0.44893361,-0.05154047,0.01038328,-0.13194577,0.07641513,0.03944767,0.99613817,0.01770196
1755651289032,-0.08790973,-0.31375417,0.41170656,-0.05858484,0.00837928,-0.07080672,0.07606208,0.03911960,0.99618509,0.01730544
1755651289043,-0.26989348,-0.19196649,0.27749611,-0.04006104,0.00465693,-0.01458809,0.07585383,0.03889526,0.99621117,0.01722375
1755651289054,0.46164971,-0.11281219,1.16611473,-0.01634672,0.00388317,-0.04289028,0.07567071,0.03880453,0.99623272,0.01698571
1755651289065,-0.09315916,-0.28240646,0.61487177,0.00513042,0.00419354,-0.06180454,0.07542773,0.03883275,0.99625579,0.01664578
1755651289077,0.06921852,-0.43619244,0.63143325,0.01412614,0.00442039,-0.06653949,0.07514077,0.03891186,0.99628054,0.01627316
1755651289088,-0.46566129,-0.22285219,-0.40293956,0.01381076,0.00371746,-0.06548445,0.07490280,0.03898920,0.99630136,0.01590645
1755651289099,-0.26040361,0.15679158,0.08507347,0.01658167,0.00096855,0.01728905,0.07476277,0.03908122,0.99630673,0.01600240
1755651289110,-0.21866163,-0.21479151,0.58825784,0.02511294,-0.00157335,0.01091973,0.07479315,0.03922060,0.99629800,0.01606301
1755651289121,0.28058351,-0.20463245,1.28487896,0.03685266,-0.00335975,0.03523637,0.07489168,0.03942513,0.99627936,0.01625857
1755651289132,-0.00666087,-0.10036246,0.64797038,0.04133132,-0.00464915,0.04927225,0.07505522,0.03965659,0.99625332,0.01653450
1755651289143,-0.08809700,0.40168449,0.57301925,0.01670378,-0.00290953,0.07856177,0.07512317,0.03974930,0.99623717,0.01697051
1755651289155,-0.04003369,0.32320181,0.68653148,0.02193003,-0.00235780,0.07993246,0.07513074,0.03987210,0.99622397,0.01741813
1755651289166,-0.18794257,0.52386098,0.42961758,-0.00122015,0.00102572,0.04149029,0.07500500,0.03986533,0.99622966,0.01764841
1755651289177,-0.08743028,0.38410421,0.68040143,-0.03712743,0.00494024,-0.07300818,0.07484267,0.03965742,0.99625733,0.01723956
1755651289188,-0.76786596,0.37300419,0.14825135,-0.07980408,0.00858768,-0.17367425,0.07465544,0.03921051,0.99630542,0.01626698
1755651289199,-0.20356992,-0.03748550,0.38191474,-0.06854164,0.00857097,-0.21150004,0.07446031,0.03881983,0.99635427,0.01506143
1755651289210,-0.35555799,-0.08028295,0.52413874,-0.06223806,0.00792058,-0.20368793,0.07427657,0.03848374,0.99639704,0.01396152
1755651289222,0.70591858,-0.32918346,0.97229232,-0.05028035,0.00799533,-0.16471672,0.07398838,0.03820217,0.99644182,0.01303911
1755651289233,-0.10263555,-0.00807780,0.51317775,-0.02585629,0.00851150,-0.13198843,0.07354631,0.03805738,0.99648948,0.01229997
1755651289244,-0.34587583,-0.50062272,0.82792048,-0.00992427,0.00825266,-0.13971302,0.07308256,0.03800279,0.99653487,0.01153155
1755651289255,-0.16967695,0.28641193,0.51732464,-0.01082624,0.00782579,-0.09698433,0.07259855,0.03794217,0.99657870,0.01098844
1755651289266,-0.15124557,-0.28227668,0.93528988,0.01972601,0.00508162,-0.12717431,0.07225669,0.03805165,0.99660690,0.01028262
1755651289277,-0.29726435,-0.19199432,0.48805602,0.03546591,0.00524822,-0.12416511,0.07184837,0.03824671,0.99663576,0.00959971
1755651289288,-1.06669564,-0.13354913,-0.38059657,0.02545215,0.00519758,-0.11017527,0.07144365,0.03839051,0.99666513,0.00897722
1755651289299,-0.41748099,-0.19137306,0.49737816,0.00660980,0.00515903,-0.06232665,0.07106954,0.03842687,0.99669351,0.00863442
1755651289311,-0.21584567,-0.22915892,0.39367817,0.01301289,0.00347810,0.00464323,0.07075308,0.03849974,0.99671298,0.00866043
1755651289322,0.77904217,-0.34184580,1.28407755,0.01540939,0.00203579,0.04209948,0.07051369,0.03858680,0.99672448,0.00889829
1755651289333,-0.57873666,-0.04561944,0.58195605,0.04363489,0.00096926,0.07763858,0.07024852,0.03882898,0.99672986,0.00932918
1755651289344,-0.37218356,0.05217476,0.75485269,0.05637187,0.00126332,0.06805233,0.06992939,0.03913620,0.99673675,0.00970007
1755651289355,-0.03222148,0.08877609,0.28730393,0.05206380,0.00272767,0.04225389,0.06950969,0.03943036,0.99675216,0.00993880
1755651289366,-0.46963080,-0.02202998,0.64222067,0.05996716,0.00427883,0.00916036,0.06896529,0.03976618,0.99677612,0.00999010
1755651289377,-0.46223508,0.04800215,0.60653180,0.00863739,0.00525837,0.01164559,0.06850906,0.03981368,0.99680504,0.01005415
1755651289389,-0.80048852,0.85267585,-0.56225497,-0.06019742,0.00729763,-0.00662894,0.06811026,0.03947357,0.99684627,0.01001670
1755651289400,-0.61426982,-0.38964889,0.49941638,-0.06376035,0.00510250,-0.01567111,0.06791240,0.03911970,0.99687459,0.00992972
1755651289411,-0.68782988,0.19655642,0.28249522,-0.07111544,0.00359021,0.04260516,0.06781199,0.03872856,0.99689434,0.01016405
1755651289422,0.38792945,-0.81825632,0.85886296,-0.04644396,0.00165843,0.06389404,0.06776851,0.03846616,0.99690371,0.01052505
1755651289433,-0.56277671,-0.68584987,0.52147263,0.00748733,-0.00066975,0.06298047,0.06774440,0.03850771,0.99689999,0.01087459
1755651289444,-0.33503926,-0.26533409,0.30180870,-0.02437190,0.00109759,0.11529271,0.06762677,0.03837367,0.99690603,0.01150870
1755651289455,0.21611611,-0.29146056,0.17609084,-0.04266091,0.00068444,0.16683258,0.06753907,0.03813263,0.99690990,0.01245131
1755651289467,-0.57885978,-0.20720119,-0.02395166,-0.05071201,0.00177657,0.16049930,0.06738009,0.03784864,0.99691985,0.01335010
1755651289478,-0.62174323,0.82081627,0.63785076,-0.09449340,0.00147216,0.12392575,0.06741149,0.03733365,0.99692787,0.01402550
1755651289489,-0.63794114,0.64519503,-0.49912333,-0.06459603,-0.00098465,0.04685640,0.06763692,0.03697192,0.99692235,0.01428790
1755651289500,-0.31950929,1.00921948,0.47574800,-0.04570737,-0.00208551,0.00695074,0.06793688,0.03671824,0.99691078,0.01432647
1755651289511,-0.36185597,-0.27381080,0.56503713,0.02567286,-0.00304250,-0.06926654,0.06818702,0.03686073,0.99689389,0.01394204
1755651289522,0.53911083,-0.16998130,0.59052791,0.04186231,-0.00372676,-0.06041653,0.06843726,0.03709934,0.99687265,0.01359767
1755651289533,-0.68139527,-0.04263494,0.05917206,0.05391524,-0.00536488,-0.03359848,0.06874421,0.03739857,0.99684288,0.01341120
1755651289545,-0.47408937,0.04353882,-0.12384376,0.05208816,-0.00816932,-0.01900695,0.06926232,0.03768766,0.99679754,0.01330571
1755651289556,-0.50160257,0.04436154,-0.06695111,0.03365290,-0.01053661,-0.03725454,0.07004403,0.03787612,0.99673853,0.01309708
1755651289567,-0.40674088,0.35684860,0.19006583,0.04128630,-0.01454459,-0.03479284,0.07110573,0.03810732,0.99665708,0.01290224
1755651289578,-0.76395280,0.30066215,0.29084533,0.07130700,-0.01630174,-0.05281917,0.07219491,0.03849951,0.99656742,0.01261174
1755651289589,-0.15750404,-0.06216818,-0.75701748,0.07845583,-0.01632160,-0.12854342,0.07334412,0.03894278,0.99647521,0.01188547
1755651289600,-0.82143073,-0.00707078,0.36387910,0.08476826,-0.01656774,-0.10963995,0.07442040,0.03940901,0.99638408,0.01128245
1755651289611,-0.24107313,-0.34657780,0.11758120,0.06828815,-0.01690584,-0.11197617,0.07555782,0.03978801,0.99629026,0.01066098
1755651289623,-0.06519946,-0.55871614,0.85223566,0.03648996,-0.01854392,-0.09293742,0.07689093,0.03999418,0.99618548,0.01013588
1755651289634,-1.16361798,-0.07432599,0.52702137,-0.01636782,-0.02065822,-0.12959283,0.07848381,0.03990415,0.99607186,0.00942312
1755651289645,-0.41181391,-0.14778011,0.55959402,-0.04644878,-0.02429407,-0.16549693,0.08038983,0.03964868,0.99593824,0.00851289
1755651289656,-0.11323521,-0.52038798,0.04386146,-0.01143303,-0.02759837,-0.17798418,0.08242769,0.03958409,0.99578231,0.00750728
1755651289667,-0.56370142,-0.45047481,0.55746814,-0.00536676,-0.02823805,-0.14288532,0.08438042,0.03955430,0.99562559,0.00671427
1755651289678,-0.33748895,-0.50884731,0.75592412,0.00798722,-0.02973857,-0.09025847,0.08630564,0.03959823,0.99546203,0.00621784
1755651289689,-1.05960041,-0.10077186,1.15879791,0.02437387,-0.02879631,-0.05195147,0.08812036,0.03973594,0.99529933,0.00592432
1755651289700,-0.65737197,-0.27892244,0.87317382,-0.00212915,-0.02809192,-0.05567063,0.08988900,0.03972413,0.99514342,0.00561535
1755651289711,-0.21479151,0.17560657,0.63856936,-0.02334719,-0.03072224,-0.08951509,0.09184212,0.03959455,0.99497291,0.00511854
1755651289723,1.61396087,0.42590152,-0.96676013,-0.03458723,-0.03392252,-0.10741723,0.09402753,0.03939740,0.99477955,0.00450626
1755651289734,-1.01341195,-0.59464526,1.41107725,-0.02077377,-0.03817108,-0.16115176,0.09628644,0.03928419,0.99457152,0.00362798
1755651289745,0.56246297,-0.48140798,0.15679301,0.00896081,-0.03920289,-0.12287922,0.09851088,0.03933392,0.99435395,0.00294600
1755651289756,0.38544387,-0.17560623,0.04773892,0.04218225,-0.03580187,-0.01881196,0.10044122,0.03957225,0.99415167,0.00283971
1755651289767,-0.04407824,-0.60105834,0.77186580,0.08624420,-0.03595636,-0.02564238,0.10221476,0.04005090,0.99395211,0.00269740
1755651289778,-0.01299400,-0.51596117,0.61877707,0.08690437,-0.03380249,-0.01472243,0.10382349,0.04052888,0.99376619,0.00261643
1755651289789,0.69242710,-0.23668380,-0.80546444,-0.00381973,-0.03263022,0.01431316,0.10556406,0.04050749,0.99358346,0.00269658
1755651289801,0.06114440,0.39069180,0.64071175,-0.07000278,-0.03487658,0.04608081,0.10750934,0.04011897,0.99338990,0.00295233
1755651289812,0.71677078,0.61919510,0.20509987,-0.01277554,-0.04194111,0.05843632,0.10967468,0.04004743,0.99315503,0.00327957
1755651289823,0.50747577,0.78687254,1.28864633,0.05618899,-0.04226655,-0.01428556,0.11168635,0.04036209,0.99291834,0.00319957
1755651289834,0.86619791,0.15978920,1.03933384,0.09030810,-0.03964309,-0.14638506,0.11346604,0.04086330,0.99269832,0.00238714
1755651289845,0.53726280,-0.67571013,0.86292934,0.12461446,-0.03539692,-0.29807814,0.11493339,0.04154868,0.99250363,0.00074771
1755651289856,0.79012094,-1.45524768,0.00787909,0.11630428,-0.03316755,-0.37116182,0.11628664,0.04219998,0.99231790,-0.00133080
1755651289868,0.73251103,-0.69709759,-0.10627307,0.09546212,-0.03520790,-0.27045240,0.11776302,0.04274411,0.99211721,-0.00287238
1755651289879,-0.04445502,-1.04602392,1.41834338,0.12069591,-0.04083908,-0.14923698,0.11937834,0.04340794,0.99189260,-0.00369318
1755651289890,0.14386255,-0.40277542,0.33451587,0.13883629,-0.03934662,-0.04178413,0.12090643,0.04418543,0.99167226,-0.00392717
1755651289901,0.32838852,-0.03274913,1.62980351,0.13938359,-0.03725984,0.04054677,0.12230345,0.04495204,0.99146733,-0.00370417
1755651289912,0.69208253,0.16803346,1.03508047,0.14752347,-0.03277783,0.06337399,0.12347888,0.04577079,0.99128541,-0.00335244
1755651289923,1.12411097,0.37690825,1.11775833,0.11776371,-0.02675999,0.08686264,0.12444409,0.04643027,0.99113555,-0.00286601
1755651289934,0.29383520,0.25971684,1.73218850,0.08214245,-0.02594849,0.12315892,0.12543004,0.04688616,0.99099154,-0.00218248
1755651289946,0.68817727,1.29002329,0.95141420,-0.00092189,-0.02424372,0.19151095,0.12652352,0.04688095,0.99085456,-0.00110044
1755651289957,0.08558168,1.14011266,2.70182149,-0.04325554,-0.02625493,0.18983646,0.12774115,0.04664304,0.99071016,-0.00005634
1755651289968,0.68332199,0.59977144,1.47412770,-0.06881122,-0.02515119,0.07822293,0.12895623,0.04626114,0.99057057,0.00037780
1755651289979,0.51085549,0.06143811,2.05890243,-0.08865427,-0.01978451,-0.03900261,0.12997166,0.04576911,0.99046077,0.00016133
1755651289990,0.49334926,-1.95317042,0.58797121,-0.01751978,-0.01665706,-0.00230018,0.13071487,0.04567100,0.99036749,0.00014845
1755651290001,0.56068325,-0.74944218,1.44628359,0.01051177,-0.01250590,0.10361911,0.13121744,0.04572934,0.99029808,0.00072354
1755651290012,0.63082913,-1.01735710,1.11072368,0.01800333,-0.00662111,0.17687778,0.13145062,0.04582926,0.99026133,0.00170521
1755651290023,0.70823147,0.63324795,1.78025398,-0.00300343,-0.00146557,0.27438194,0.13148912,0.04581259,0.99025320,0.00322803
1755651290035,0.70917029,-0.55380431,0.66245746,-0.01639191,0.00131884,0.26487122,0.13141997,0.04571998,0.99026065,0.00472455
1755651290046,0.34963703,-0.51308103,1.92107778,-0.00651150,0.00429603,0.21525949,0.13120232,0.04568351,0.99028471,0.00593000
1755651290057,0.35308891,-0.93489393,2.61971914,0.01726534,0.00655851,0.14679301,0.13085753,0.04577847,0.99032078,0.00673737
1755651290068,0.82592243,-0.81044934,0.65437937,0.01935660,0.01127132,0.10967260,0.13030765,0.04588687,0.99038390,0.00735153
1755651290079,0.64845198,-1.08891540,1.84397270,0.04972131,0.01544216,0.11402373,0.12951915,0.04616282,0.99046960,0.00798436
1755651290090,0.47795949,-1.66705305,-0.36379103,0.07900177,0.02013918,0.15258718,0.12844792,0.04660128,0.99058138,0.00883122
1755651290101,0.46547974,-0.82132648,0.31809127,0.06284395,0.02319573,0.15152351,0.12724046,0.04695635,0.99071243,0.00968733
1755651290113,0.08273730,-0.61268048,2.86421311,-0.00256661,0.02397936,0.13960562,0.12616324,0.04694236,0.99084312,0.01044818
1755651290124,0.46913861,0.96535970,0.88561966,-0.01763402,0.01553996,0.08865439,0.12546629,0.04684273,0.99093092,0.01094908
1755651290135,0.07552731,-0.87386061,3.48061401,0.00631260,0.00870896,0.04040968,0.12505849,0.04687713,0.99097838,0.01116931
1755651290146,0.40196308,0.29512080,-0.32234467,0.00719315,0.00815875,0.00281952,0.12467934,0.04691741,0.99102407,0.01118510
1755651290157,0.51087028,0.00520556,0.92421441,0.00656518,0.00904050,-0.01322477,0.12426535,0.04695451,0.99107515,0.01111038
1755651290168,0.44250017,0.17578566,1.78167375,-0.01772646,0.01162806,-0.01442935,0.12378976,0.04685524,0.99114027,0.01102958
1755651290179,0.33060522,0.22979807,2.53302147,-0.03645058,0.01216543,-0.04725382,0.12335184,0.04665476,0.99120718,0.01076968
1755651290190,0.63323024,1.17556581,-0.86082544,-0.02202693,0.00652178,-0.12575687,0.12316429,0.04653141,0.99124370,0.01006544
1755651290202,0.52764537,0.71681271,2.49220602,0.06322336,0.00180669,-0.19651166,0.12303597,0.04687914,0.99125364,0.00898463
1755651290213,0.83504559,0.70722632,1.01909844,0.06558887,0.00103705,-0.26156657,0.12294690,0.04724644,0.99125944,0.00751985
1755651290224,0.96363377,1.08432557,2.97262961,0.03533935,0.00518104,-0.26270506,0.12271773,0.04744434,0.99128846,0.00604871
1755651290236,0.74139190,1.84493524,-2.75387651,0.02026595,0.00942869,-0.24965141,0.12227756,0.04756593,0.99134503,0.00455080
1755651290247,1.00900976,0.30746473,7.99983001,0.04074786,0.00835496,-0.33729187,0.12187192,0.04779004,0.99139098,0.00269569
1755651290258,0.77660941,0.93594390,1.20997459,0.04899189,0.00693640,-0.37548954,0.12147947,0.04806195,0.99142948,0.00061173
1755651290269,0.82051064,0.89836815,0.34601469,0.04796085,0.00645670,-0.37508292,0.12106571,0.04833293,0.99146596,-0.00150749
1755651290280,1.03545470,0.14298053,3.96828395,0.10418435,0.00777723,-0.38061823,0.12043949,0.04890594,0.99150873,-0.00360089
1755651290292,0.50388180,0.09941307,-0.67774021,0.14818479,0.01076044,-0.32094380,0.11953302,0.04973578,0.99156899,-0.00539818
1755651290303,0.76495288,1.40497786,2.42483586,0.12910788,0.01415656,-0.38447340,0.11846073,0.05045233,0.99164756,-0.00753201
1755651290314,0.37577160,2.33963199,0.60348190,0.11507745,0.01326989,-0.34963107,0.11740763,0.05110251,0.99172254,-0.00950742
1755651290325,0.92798935,4.58873810,4.77185901,0.11489837,0.00894910,-0.19300436,0.11662172,0.05173445,0.99177176,-0.01056895
1755651290336,0.09337416,3.25918840,0.29546597,0.11299012,0.00683990,-0.19150408,0.11590927,0.05236720,0.99181006,-0.01164137
1755651290347,-0.34371480,1.12751290,2.31947882,0.17147381,0.00045397,-0.48834111,0.11514744,0.05331888,0.99181258,-0.01435166
1755651290358,-0.65598489,1.65641022,0.63082913,0.17921731,-0.00533693,-0.39690482,0.11464096,0.05431354,0.99178296,-0.01655448
1755651290370,-0.76923580,3.25176525,-1.24378396,0.10146905,-0.00417772,-0.11055077,0.11448155,0.05488176,0.99175957,-0.01717357
1755651290381,-0.76406464,2.72031722,-0.39533692,0.05706281,-0.00682001,-0.07118913,0.11459821,0.05520131,0.99172137,-0.01757223
1755651290392,-0.60273622,1.27702642,-0.73784479,0.10247483,-0.01559494,-0.14946739,0.11494111,0.05577005,0.99163482,-0.01840177
1755651290403,-0.82820511,0.99510392,-0.14706446,0.09938256,-0.01749426,-0.21493974,0.11531200,0.05632162,0.99153773,-0.01959469
1755651290414,-0.78279726,0.49033132,-1.42658962,0.01211101,-0.01045447,-0.25776089,0.11552773,0.05638944,0.99147918,-0.02103815
1755651290425,-1.09286911,0.03230931,1.57976940,-0.05960678,-0.00774831,-0.33050607,0.11570754,0.05606161,0.99143657,-0.02285593
1755651290436,-1.15041664,-1.67057499,-3.06068192,-0.11279096,-0.00578204,-0.27020777,0.11598018,0.05542998,0.99140419,-0.02436909
1755651290448,-0.97042681,-1.59479418,-2.26820804,-0.14448854,-0.00578471,-0.13517784,0.11648276,0.05461362,0.99137150,-0.02513285
1755651290459,-1.04549851,-0.43063299,0.58738889,-0.16127115,-0.00291147,0.10316672,0.11715067,0.05372663,0.99135549,-0.02456543
1755651290470,-0.82880322,-0.22026685,-1.71977460,-0.14552676,-0.00231890,0.21413851,0.11786819,0.05291895,0.99134262,-0.02337696
1755651290481,-0.65658327,-0.34982387,-1.64357287,-0.11199216,-0.00350804,0.15939554,0.11848535,0.05229180,0.99132298,-0.02248435
1755651290492,-0.45596548,-0.36928522,-0.74109293,-0.08799393,-0.00413659,0.02834659,0.11892091,0.05180343,0.99130002,-0.02232702
1755651290503,-0.77973223,-0.15431719,-0.99892435,-0.06841088,-0.00379859,-0.02929401,0.11923317,0.05142033,0.99127875,-0.02249107
1755651290514,-0.89901138,-0.49749731,0.42194615,-0.06556358,-0.00473726,-0.02627956,0.11958313,0.05105317,0.99125222,-0.02263824
1755651290526,-1.11003258,-0.22808641,1.37168015,-0.10665427,-0.00313920,0.07002632,0.12005083,0.05046124,0.99123479,-0.02224959
1755651290537,-0.63327880,-0.51330617,-1.25679745,-0.12589643,-0.00290006,0.16974717,0.12065011,0.04975622,0.99121855,-0.02129901
1755651290548,-0.86099822,-0.94700301,-0.39533693,-0.13759416,-0.00683448,0.17689172,0.12144801,0.04898569,0.99118028,-0.02030841
1755651290559,-0.97023192,-0.19641235,1.85109305,-0.17219884,-0.01072825,0.18695378,0.12246197,0.04804721,0.99112181,-0.01928951
1755651290570,-0.44790395,-0.97743542,-1.55557413,-0.15977136,-0.01554052,0.17677018,0.12364952,0.04716048,0.99103556,-0.01830844
1755651290581,-0.61894681,-1.61225054,-1.10371743,-0.16677965,-0.01732931,0.11851835,0.12487044,0.04622651,0.99093852,-0.01764474
1755651290592,-0.81903086,-1.86068417,-0.85235878,-0.16069532,-0.01788276,0.12925668,0.12607845,0.04533465,0.99083927,-0.01692736
1755651290603,-0.51472561,-1.82476033,-0.15867481,-0.15376691,-0.01758397,0.15162545,0.12725404,0.04448125,0.99074168,-0.01608584
1755651290615,-0.15882696,-1.60539792,-1.07104748,-0.15432391,-0.01496361,0.18898355,0.12833989,0.04360932,0.99065713,-0.01501808
1755651290626,-0.09355276,-1.34107003,2.03319981,-0.14519521,-0.01484076,0.21958226,0.12938881,0.04279622,0.99057403,-0.01378842
1755651290637,-0.42699143,-1.54104531,0.86552410,-0.14506192,-0.01046278,0.25800368,0.13023901,0.04199113,0.99051596,-0.01235650
1755651290648,-0.08901270,-1.17554814,0.39088184,-0.18209495,-0.00474175,0.26200523,0.13088930,0.04098050,0.99048964,-0.01090237
1755651290659,-0.13862820,-0.98686118,-0.24164044,-0.19567967,-0.00132046,0.16580224,0.13135697,0.03988470,0.99048225,-0.00997388
1755651290670,-0.32260192,-0.71096993,1.06428227,-0.22051577,-0.00048976,0.03675800,0.13175809,0.03866084,0.99047953,-0.00976987
1755651290681,-0.17444961,-0.99361622,-0.47697963,-0.20068041,-0.00290303,-0.04309603,0.13218645,0.03753702,0.99046327,-0.01001121
1755651290693,-0.03877028,-2.03886075,0.15231677,-0.14143479,-0.00672829,-0.09139299,0.13264663,0.03675206,0.99042593,-0.01051844
1755651290704,-0.35312790,-0.98251141,1.18898640,-0.11187583,-0.00562937,-0.05569158,0.13302169,0.03613674,0.99039497,-0.01082475
1755651290715,-0.08421644,0.01964590,-0.42540188,-0.10791896,-0.00188344,0.01659517,0.13327032,0.03553240,0.99038442,-0.01073181
1755651290726,-0.62531658,0.12306763,1.20881868,-0.08201731,0.00119430,0.06078153,0.13336922,0.03507310,0.99039111,-0.01039144
1755651290737,-0.46185997,-1.12614005,0.68803832,-0.05236862,0.00069965,0.04281616,0.13343538,0.03477984,0.99039503,-0.01015167
1755651290748,-0.52507472,-0.64735055,1.34258517,-0.08728295,0.00136048,0.06848995,0.13353306,0.03429542,0.99040258,-0.00977155
1755651290759,-0.43538820,-0.51279055,0.49924514,-0.10578811,-0.00043536,0.09091454,0.13373630,0.03370829,0.99040016,-0.00926697
1755651290771,-0.46600375,-0.28236334,0.28814664,-0.08974293,-0.00169010,0.10128602,0.13397001,0.03320573,0.99039070,-0.00869977
1755651290782,-0.57085959,-0.34060056,1.41210908,-0.05903264,-0.00046736,0.10369529,0.13410606,0.03287810,0.99038810,-0.00812426
1755651290793,0.91928507,-0.76339684,-1.35008383,-0.04272399,0.00595005,0.03921822,0.13393143,0.03263885,0.99042142,-0.00790464
1755651290804,0.17541653,-1.02787898,0.80881995,-0.03267301,0.01114953,-0.02428292,0.13350920,0.03245751,0.99048330,-0.00803941
1755651290815,-0.74191829,-0.90436103,1.08322379,-0.02791521,0.01751413,-0.03677157,0.13281764,0.03230398,0.99057963,-0.00824165
1755651290826,-1.55301063,0.26141827,0.33548348,-0.08848799,0.01912343,-0.06997520,0.13211172,0.03180845,0.99068672,-0.00863351
1755651290837,-1.26963975,0.16013046,1.19741474,-0.09008447,0.01818047,-0.10524565,0.13142711,0.03130397,0.99078853,-0.00922289
1755651290849,-0.91956752,-0.37765607,1.36604774,-0.06761735,0.01765725,-0.16469829,0.13070786,0.03092870,0.99088653,-0.01013697
1755651290860,-0.63197746,-0.72572186,-0.09561508,-0.02676141,0.01819483,-0.26204411,0.12984588,0.03077883,0.99098842,-0.01160441
1755651290871,-0.76524660,-0.79111505,1.23429099,-0.02594877,0.02016811,-0.25356764,0.12888868,0.03063482,0.99110035,-0.01301171
1755651290882,-0.61956324,-0.63146376,-0.73290071,-0.03093011,0.02429553,-0.20763121,0.12775585,0.03046161,0.99123641,-0.01417445
1755651290893,-0.90219758,-1.54275399,1.07647256,-0.06125540,0.02429490,-0.18761769,0.12667570,0.03012470,0.99137003,-0.01520635
1755651290904,-0.68385686,0.02841484,-0.92420374,-0.10097313,0.02129448,-0.20643822,0.12572801,0.02955925,0.99148928,-0.01636240
1755651290915,-1.13849433,0.34164333,1.07957392,-0.09336702,0.01688393,-0.18389313,0.12496363,0.02903640,0.99158383,-0.01739220
