UnixTime(ms),Ax,Ay,Az,Gx,Gy,Gz,QuatW,QuatX,QuatY,QuatZ
1755649435187,0.00000000,0.00000000,0.00000000,0.00000000,0.00000000,0.00000000,0.98886992,-0.04264827,-0.13369387,0.04943028
1755649435209,1.44616894,-0.97424773,-2.88927179,-0.12092373,-0.01298744,-0.02056413,0.98880484,-0.04395425,-0.13383414,0.04920818
1755649435231,-0.50079348,0.21500904,0.80944579,-0.15485821,0.02181202,-0.08645752,0.98880696,-0.04562671,-0.13359857,0.04827444
1755649435255,-0.12565649,0.08553385,0.67932424,-0.10510009,-0.02235163,0.00049152,0.98870898,-0.04691945,-0.13387349,0.04828049
1755649435287,-0.21297375,0.09270592,0.19521635,-0.06706308,-0.02951213,-0.01321927,0.98860439,-0.04798575,-0.13434273,0.04807030
1755649435322,-0.14980841,0.16626624,0.27050784,-0.05486782,0.00520523,-0.02107900,0.98858746,-0.04895142,-0.13425112,0.04769931
1755649435343,0.68067096,-0.66744638,-1.55426381,-0.19036357,0.05267452,-0.05773464,0.98859047,-0.05091217,-0.13370857,0.04710464
1755649435355,0.95141475,-1.09485304,-1.37037210,-0.20784231,-0.00340244,0.00148960,0.98852170,-0.05216961,-0.13372916,0.04711366
1755649435399,-0.51517042,0.40782553,0.95622688,-0.07990505,0.00598322,-0.03122664,0.98847766,-0.05392752,-0.13359753,0.04642667
1755649435421,1.09586797,-1.31009156,-2.47009195,-0.50698097,0.00759427,-0.28478315,0.98830857,-0.05958036,-0.13351285,0.04325134
1755649435454,-0.49752490,0.42101476,1.26262384,-0.11919249,0.05673296,-0.07386128,0.98836664,-0.06154704,-0.13257676,0.04203263
1755649435476,0.60781952,-0.86861266,-1.64228430,-0.42387594,0.11343073,-0.06681203,0.98826180,-0.06625206,-0.13131768,0.04129101
1755649435509,-0.55723801,0.70230757,1.16718156,-0.18516314,0.03116956,-0.05545757,0.98815959,-0.06927022,-0.13080961,0.04038706
1755649435521,1.74480803,-3.41808350,-4.62995592,-0.65452350,0.07824077,-0.17573397,0.98798415,-0.07313191,-0.13034799,0.03935023
1755649435543,-0.62593644,1.09683317,1.45535857,-0.27683101,0.07519676,-0.06570331,0.98789135,-0.07617705,-0.12952083,0.03862749
1755649435565,-0.05819355,0.50324908,0.22159398,-0.27812834,0.07953600,-0.06874106,0.98779103,-0.07933381,-0.12861810,0.03784728
1755649435578,0.19078192,-0.97739770,-1.74629783,-0.14898471,0.10859595,-0.05003723,0.98781588,-0.08026496,-0.12793937,0.03753455
1755649435613,-0.38580054,0.93445058,1.39199272,-0.09069718,0.04550704,-0.02108311,0.98780254,-0.08183856,-0.12714982,0.03716875
1755649435632,1.00344192,-2.00006499,-2.87656743,-0.30282056,0.17658885,-0.02965160,0.98778484,-0.08474564,-0.12545457,0.03688410
1755649435663,-0.40199721,0.90339745,1.33799963,-0.14374008,0.04978194,-0.04525144,0.98771364,-0.08700954,-0.12467050,0.03617139
1755649435677,3.20459439,-4.35049707,-6.43500395,-0.49191286,0.07262828,-0.18484199,0.98751486,-0.09045293,-0.12416211,0.03487749
1755649435698,-1.70780864,2.31760482,3.80927262,-0.29578734,0.04689088,-0.10215280,0.98732550,-0.09354391,-0.12367210,0.03381000
1755649435721,-0.02546286,0.45379890,0.00488752,-0.23258635,0.05320920,-0.10403248,0.98718829,-0.09616051,-0.12307349,0.03263963
1755649435744,-0.01747933,0.22015628,-0.05085868,-0.14448470,0.06802034,-0.03168372,0.98713496,-0.09780041,-0.12230146,0.03228002
1755649435756,-0.36849251,0.40222134,0.01235798,-0.11477343,0.12138576,0.01801187,0.98715423,-0.09854070,-0.12151852,0.03239620
1755649435764,2.01689949,-0.63958021,-3.13900229,-0.02431686,0.25427332,0.06969097,0.98725079,-0.09862945,-0.12059043,0.03265057
1755649435788,-0.84557109,0.62409733,1.80432585,-0.05069763,0.07199341,0.01559665,0.98728892,-0.09924036,-0.11972291,0.03283851
1755649435798,0.34884298,-0.90364351,-2.79191124,-0.04594232,0.11234219,-0.00331980,0.98733431,-0.09947007,-0.11916120,0.03282191
1755649435809,-0.11139519,0.50321556,0.97283145,-0.04073938,0.10311620,-0.00662381,0.98738248,-0.09970025,-0.11857859,0.03278449
1755649435820,0.20772682,0.21630921,0.32704779,-0.07386515,0.08343137,0.03407553,0.98739027,-0.10011389,-0.11811137,0.03297531
1755649435832,-0.25661789,-0.29629165,0.51895845,-0.05514044,0.05346105,0.04466393,0.98738611,-0.10043646,-0.11779863,0.03323659
1755649435844,0.15301684,0.12623820,0.03808023,-0.04305021,0.02876221,0.04740007,0.98737063,-0.10069692,-0.11762461,0.03352336
1755649435854,0.20714869,0.11892819,-1.17023290,-0.02702843,0.01143055,0.01454618,0.98736165,-0.10082530,-0.11757032,0.03359246
1755649435876,-0.39589666,0.20849701,1.18328704,-0.03368907,0.00441879,0.02770190,0.98731756,-0.10120936,-0.11751995,0.03390826
1755649435887,2.82953834,-1.41186145,-5.80483731,-0.04283560,0.03187834,0.16407742,0.98728506,-0.10142996,-0.11735577,0.03475326
1755649435898,-1.25853962,0.58626642,3.68942420,-0.05709952,0.05161071,0.07401799,0.98727192,-0.10174686,-0.11706933,0.03516406
1755649435910,0.19498623,0.35292805,0.54811659,-0.07662222,0.03360502,0.02995902,0.98724114,-0.10221809,-0.11686266,0.03534831
1755649435921,0.09592102,-0.23162633,-0.33133634,-0.09036301,-0.02825689,0.01353725,0.98716980,-0.10270605,-0.11701525,0.03542141
1755649435932,0.50839090,-0.10742239,0.04807962,-0.10143580,-0.05232833,0.02634337,0.98707045,-0.10327409,-0.11730829,0.03556893
1755649435944,0.41995279,-0.05926662,-0.19101494,-0.07431623,-0.04133926,-0.00417441,0.98699824,-0.10370141,-0.11754599,0.03554493
1755649435954,1.15960131,0.31094965,-0.42902049,-0.07555676,-0.07455105,-0.02688591,0.98691247,-0.10410942,-0.11794856,0.03539974
1755649435965,-0.47012320,-0.20885343,-0.09176962,-0.05453286,-0.07044341,-0.04440228,0.98684313,-0.10440935,-0.11833600,0.03515553
1755649435977,-0.19116397,0.77141588,0.58238642,-0.11749681,-0.05632134,-0.05871131,0.98674622,-0.10507320,-0.11865422,0.03482381
1755649436000,-0.79542791,0.05114910,0.90838129,-0.05270874,-0.01762307,-0.02623357,0.98666769,-0.10567935,-0.11885688,0.03452213
1755649436023,1.36991389,-0.12430628,-0.75389829,-0.03164183,-0.05494907,-0.02769531,0.98656205,-0.10604798,-0.11949704,0.03419948
1755649436033,11.12977109,0.92223474,-2.43658323,-0.03839763,-0.16917697,-0.13313826,0.98646547,-0.10623229,-0.12030909,0.03356041
1755649436044,-5.96046448,-0.02173917,3.09681952,-0.03598496,-0.20645685,-0.04776381,0.98631250,-0.10643201,-0.12145493,0.03329532
1755649436055,-0.41800321,0.31265510,0.22161702,-0.00913940,-0.27049303,-0.04288414,0.98611902,-0.10648547,-0.12303731,0.03304445
1755649436077,-1.82650795,0.00545782,0.37489012,-0.03349052,-0.16773747,-0.02764314,0.98586692,-0.10684047,-0.12481533,0.03275143
1755649436088,5.95809762,0.51202121,-0.79691376,-0.02910733,-0.46442294,-0.06064538,0.98552771,-0.10700347,-0.12741610,0.03241182
1755649436112,-2.15461461,-0.75094469,0.39201754,-0.01992675,-0.23973220,-0.01183647,0.98513519,-0.10723960,-0.13025692,0.03227156
1755649436123,17.87210631,0.98758769,0.18122291,-0.22855603,-1.02924006,-0.18105350,0.98420791,-0.10857666,-0.13627798,0.03121239
1755649436134,-8.41627747,-1.27770943,1.70669370,-0.11601218,-0.73675598,-0.11532102,0.98357616,-0.10922633,-0.14040381,0.03056660
1755649436167,-3.63493009,0.08695954,-0.28996381,-0.06295995,-0.31247340,-0.01516337,0.98273398,-0.11024628,-0.14546588,0.03032095
1755649436188,9.58087473,-0.49150680,0.87366083,-0.17962341,-1.20152155,-0.06862947,0.98059181,-0.11213232,-0.15808185,0.02960034
1755649436201,8.88237818,-1.27446020,0.87846447,-0.26607136,-1.75266617,-0.13577502,0.97854685,-0.11383518,-0.16929892,0.02873138
1755649436247,-5.69579611,0.26068519,-0.25915906,-0.03351771,-0.52482797,-0.02428904,0.97628752,-0.11461279,-0.18147493,0.02816787
1755649436257,114.16228922,-20.64120004,22.61202239,-0.43177183,-5.73021716,-0.21158977,0.97048976,-0.11670688,-0.20926648,0.02714166
1755649436291,-29.03335723,4.56401079,-5.39041632,-0.23970790,-1.06071252,-0.21190219,0.96596424,-0.12082986,-0.22751074,0.02349695
1755649436311,6.85974513,-1.24381286,2.60885219,-0.71073500,-1.73673937,-0.63509517,0.96100172,-0.12783060,-0.24461762,0.01724126
1755649436333,-1.05409620,0.32220937,-0.24686732,-0.54313575,-1.71609647,-0.52737021,0.95521310,-0.13385941,-0.26366629,0.01138745
1755649436344,10.17453850,-4.14392815,3.46569008,-0.47976369,-2.34147990,-0.65962144,0.95118896,-0.13652209,-0.27666150,0.00772655
1755649436357,-7.64153843,2.84387358,-2.42002283,-0.46250576,-1.82000803,-0.57630711,0.94731517,-0.13948213,-0.28830955,0.00403818
1755649436368,1.84201751,1.88441963,-1.38359129,-0.69190455,-2.00830857,-0.56847257,0.94332087,-0.14328761,-0.29935525,0.00091159
1755649436379,-1.42043242,-1.88186856,0.25457776,-0.31164385,-1.75898802,-0.54358473,0.93999404,-0.14497048,-0.30885379,-0.00202377
1755649436389,-2.91339376,1.62334749,0.74833633,-0.45557635,-1.75126300,-0.40356714,0.93664315,-0.14729392,-0.31778523,-0.00408196
1755649436400,-3.90847704,0.13262266,-0.80236639,-0.16174843,-1.39785185,-0.47663977,0.93381772,-0.14819163,-0.32554331,-0.00672731
1755649436411,2.75889972,-0.19593048,0.60651548,-0.37215766,-1.70226287,-0.43524443,0.93008457,-0.15027571,-0.33507598,-0.00916468
1755649436434,-6.98579892,1.62587805,-2.22747288,-0.22116072,-0.84694168,-0.28270611,0.92615272,-0.15276377,-0.34460407,-0.01234513
1755649436436,1023.07145637,-253.79772209,331.38416427,-3.69767539,-15.75991307,-5.58674922,0.91697847,-0.15775563,-0.36587995,-0.01988724
1755649436458,-127.76576212,31.88027333,-41.59964968,-0.32947466,-1.08588162,-0.38820903,0.91159175,-0.16124806,-0.37739030,-0.02400225
1755649436480,0.37244306,-0.08955800,-0.36639244,-0.28639984,-1.12386639,-0.45838058,0.90566125,-0.16439846,-0.38975283,-0.02904444
1755649436502,6.77809713,-1.21629872,1.97016240,-0.38598537,-1.90099258,-0.73624727,0.89518719,-0.16868290,-0.41085385,-0.03721679
1755649436512,35.29745622,-5.50220690,10.34925763,-0.84538713,-4.00688157,-1.54271981,0.88388451,-0.17316345,-0.43209032,-0.04539320
1755649436534,-23.88797629,3.62908637,-7.19316276,-0.16133913,-1.22463538,-0.40626341,0.87674539,-0.17489784,-0.44525515,-0.04976053
1755649436549,15.33295918,-3.47562518,3.77207172,-0.35633524,-2.28762254,-0.88004779,0.86680446,-0.17758817,-0.46252670,-0.05640489
1755649436551,633.63158390,-128.92828132,139.64109507,-2.24729371,-10.21727546,-4.10900915,0.85925094,-0.18028493,-0.47478743,-0.06133570
1755649436588,-48.88718149,10.02704752,-11.28715273,-0.16738974,-0.99579820,-0.33045492,0.84771481,-0.18337327,-0.49315991,-0.06743260
1755649436592,419.85875802,-97.49884234,59.45572179,-1.73802255,-9.80240843,-3.47494574,0.83430551,-0.18693621,-0.51325484,-0.07455624
1755649436635,-42.21697672,9.68366049,-6.19492742,-0.08264883,-0.56327241,-0.20409165,0.82606044,-0.18868424,-0.52516806,-0.07887277
1755649436649,41.52854431,-13.43318924,3.71231701,-0.66370967,-3.72951624,-1.26922594,0.80714143,-0.19326383,-0.55090172,-0.08763043
1755649436669,-17.32734246,5.23023837,-3.05973014,-0.28016317,-1.80749252,-0.77308530,0.79241385,-0.19616352,-0.56960927,-0.09563187
1755649436682,16.84701203,-6.37020534,-2.96667432,-0.44688933,-2.95835147,-1.32802352,0.77726911,-0.19891189,-0.58780313,-0.10379921
1755649436715,-12.16646667,4.15785780,0.89769714,-0.09223596,-0.69481578,-0.29965479,0.76723252,-0.20045684,-0.59944129,-0.10881843
1755649436752,4.52942875,-2.13372441,-0.75495441,-0.21456773,-1.71615968,-0.78567029,0.73771635,-0.20445853,-0.63144767,-0.12347118
1755649436781,-3.04484876,1.24014667,0.26068009,-0.22038907,-1.26122182,-0.74690326,0.71880932,-0.20765417,-0.64973539,-0.13430128
1755649436802,1.80747021,-2.67157872,0.35778049,-0.40429950,-1.76616257,-1.04253395,0.69804133,-0.21191953,-0.66836840,-0.14530001
1755649436812,21.83069237,-17.51981971,0.44727237,-0.96841386,-4.03560217,-2.49473818,0.67531691,-0.21647108,-0.68733573,-0.15702528
1755649436849,-9.04367569,5.98664215,-0.05426111,-0.01539504,-1.02747559,-0.57361688,0.65242824,-0.21675897,-0.70654953,-0.16775192
1755649436869,11.23815928,-5.97659686,-2.10725587,-0.13186225,-2.19173892,-1.37303801,0.62432295,-0.21804462,-0.72791898,-0.18113904
1755649436941,-3.80047536,2.43863323,0.71730765,-0.07540408,-0.37048110,-0.15554451,0.60575009,-0.22075917,-0.74125630,-0.18673864
1755649436981,4.00216891,-1.99442765,1.00640185,-0.08596275,-1.91719187,-1.08160714,0.54629545,-0.22249992,-0.78007943,-0.20864118
1755649436991,6.47342009,-2.15699387,27.81002027,0.68718345,-3.92453891,-0.76314588,0.51827492,-0.21920143,-0.79891722,-0.21230428
1755649437027,-7.36222810,3.10344326,-4.94187657,0.45801933,-1.01250918,-0.34055141,0.48963233,-0.21086548,-0.81734489,-0.21850232
1755649437070,-1.00602324,0.22490888,-0.05992338,0.31136550,-0.71565361,-0.22023380,0.46359602,-0.20413999,-0.83280301,-0.22325937
1755649437092,-2.92040433,0.38482473,3.47734952,0.44172822,-1.02130820,-0.35163086,0.44354030,-0.19939141,-0.84378207,-0.22703940
1755649437114,-0.59271632,1.44964575,-0.56449651,0.41526070,-0.91053476,-0.35837094,0.42365858,-0.19476125,-0.85393453,-0.23103524
1755649437124,-9.26588724,3.03462025,10.81792128,0.67949705,-1.29922728,-0.27965650,0.41072828,-0.19126184,-0.86062555,-0.23247547
1755649437162,3.32685057,-0.94360343,-5.05642032,0.27797929,-0.44127220,-0.07375104,0.39460058,-0.18604973,-0.86889941,-0.23385830
1755649437191,-2.03196755,1.29247220,2.66271042,0.49609692,-0.73467406,-0.07315122,0.37280230,-0.17875711,-0.87969912,-0.23493362
1755649437215,-4.54993042,2.33443630,6.11186626,0.88318138,-1.19381854,0.20746645,0.34512005,-0.16851220,-0.89354741,-0.23252701
1755649437237,-4.81591601,1.44820687,1.78193937,1.05645535,-1.31451838,0.30431719,0.31366381,-0.15689119,-0.90800711,-0.22917952
1755649437268,5.26668173,-2.57779930,-5.97498557,0.50004363,-0.56422129,0.06466905,0.29154805,-0.14899050,-0.91692181,-0.22815775
1755649437296,-1.01734007,0.16724230,0.94641316,0.62858637,-0.60879923,0.06929346,0.26902772,-0.14025315,-0.92538412,-0.22719457
1755649437331,-2.52353534,0.06615477,0.90221111,0.61277258,-0.61560749,0.13555242,0.23764073,-0.12965219,-0.93603413,-0.22484952
1755649437360,-1.51345575,-0.05658677,1.18286793,0.68943442,-0.62717262,0.20189680,0.20720338,-0.11948303,-0.94528492,-0.22187154
1755649437382,-6.34087651,1.65373258,5.15190908,0.92508257,-0.71497925,0.29672956,0.17838137,-0.10935338,-0.95311395,-0.21862235
1755649437404,5.88220625,-2.06019196,-6.12394482,0.57332559,-0.42199498,0.30434135,0.16044270,-0.10304679,-0.95775589,-0.21527459
1755649437424,0.03017141,0.04781007,-0.81839295,0.42060888,-0.36653662,0.29139530,0.14379897,-0.09873555,-0.96151289,-0.21228779
1755649437458,3.60026065,-0.92088104,-2.47561373,0.22173583,-0.20940622,0.16923072,0.12560889,-0.09497713,-0.96506233,-0.20941933
1755649437483,-3.93217500,0.65680783,1.44796901,0.37567242,-0.25233455,0.21516272,0.10855871,-0.09041271,-0.96812819,-0.20680510
1755649437493,-42.98174823,13.68884196,22.76306780,0.93172058,-0.53784812,0.49114892,0.09165743,-0.08575411,-0.97081743,-0.20434936
1755649437515,19.08513745,-4.11982039,-10.13981950,0.24941904,-0.19836079,0.30066926,0.07678807,-0.08293567,-0.97305891,-0.20095180
1755649437538,0.43780602,0.24278096,-1.17630654,0.21937745,-0.18296096,0.39599332,0.06339441,-0.08041283,-0.97516296,-0.19639787
1755649437587,4.43932617,-1.35966207,-2.19303458,0.05351719,-0.05513928,0.15637723,0.05547770,-0.07909631,-0.97651939,-0.19255099
1755649437615,-17.93507398,8.82847483,9.55141982,0.25301147,-0.34417312,1.24005467,0.02483027,-0.07560475,-0.98126898,-0.17543824
1755649437647,8.91090789,-4.53696576,-5.58217205,9.27238268,122.77193076,21.46889368,-0.00337121,0.07275337,0.98308192,0.16806406
1755649437672,1.11543499,-3.13042147,-1.24603807,-0.06490607,0.08623579,-0.50717605,0.00990945,0.07195503,0.98414262,0.16182579
1755649437705,3.21033036,-0.81132871,-1.15787693,-0.14854791,0.02638615,-0.16368761,0.02146773,0.06945942,0.98458590,0.15907584
1755649437729,-2.59502041,-0.89625527,1.20123358,-0.28653404,0.01588229,-0.11984756,0.03155570,0.06609265,0.98477252,0.15766763
1755649437749,-5.53704947,0.01941883,3.27097001,-0.38429498,0.00830345,-0.22945496,0.04549067,0.06215362,0.98485763,0.15531572
1755649437783,6.50750897,-0.31463294,-2.53384973,-0.18803459,-0.00436377,-0.06103712,0.05391231,0.05902285,0.98478497,0.15429945
1755649437792,-26.04388689,2.55805914,23.66004630,-0.57865226,-0.08748530,0.07658313,0.06251378,0.05633211,0.98437817,0.15465556
1755649437830,7.53569196,-0.16925983,-5.60815792,-0.08836929,-0.03058479,0.03465794,0.07086690,0.05467077,0.98380317,0.15530713
1755649437851,-4.34262997,1.45045560,6.25544269,-0.14017754,-0.08465055,-0.00971212,0.08365105,0.05317087,0.98289741,0.15520321
1755649437896,3.21309155,-0.53026294,-3.31589917,-0.03319213,-0.01525281,-0.07619108,0.09102611,0.05242073,0.98255270,0.15348129
1755649437927,-0.68885459,0.39350315,4.04913494,-0.20142632,-0.05475015,-0.10296798,0.10375718,0.04928855,0.98170133,0.15188014
1755649437938,8.45455693,-0.71537070,23.50192579,-0.99940906,-0.23483102,0.34787054,0.11442968,0.04409162,0.98048021,0.15368907
1755649437977,-0.31593040,-0.48684681,-8.65745105,-0.13888656,-0.04096366,0.02868267,0.12140797,0.04134861,0.97967118,0.15425555
1755649438012,0.53232212,0.00690515,0.16163937,-0.19189469,-0.06069299,0.09195416,0.12883204,0.03797127,0.97860298,0.15587394
1755649438039,1.95461385,-0.89781384,3.62745737,-0.43495481,-0.14662115,0.16279653,0.14190397,0.03218637,0.97665292,0.15803914
1755649438060,2.88068562,-1.23548809,2.57031140,-0.65660278,-0.24650610,0.33055338,0.15656835,0.02522638,0.97403996,0.16154300
1755649438084,-0.43197073,-0.38869918,-5.91699871,-0.20371013,-0.08511856,-0.12859054,0.16457075,0.02281241,0.97303130,0.16001921
1755649438104,1.24503304,1.41962080,2.41177345,0.04101375,-0.05427176,-0.24815323,0.17021216,0.02323691,0.97246959,0.15745082
1755649438126,2.77196080,-0.40484510,-1.46558746,0.02530798,-0.00504711,-0.41324199,0.17450189,0.02351023,0.97241508,0.15298781
1755649438151,-3.15005567,1.00432975,-2.83306028,-0.02186315,0.00243270,-0.14992683,0.17600743,0.02323476,0.97244573,0.15109873
1755649438174,3.66458960,1.75731924,3.06822867,-0.01033010,-0.01233469,-0.10006388,0.17772828,0.02311958,0.97230820,0.14998302
1755649438193,3.04962527,0.60020239,2.50700195,0.02931134,0.02213024,-0.25080990,0.17856350,0.02340829,0.97252618,0.14751254
1755649438227,-3.04691134,-0.32530366,-2.33706994,0.02853603,0.03539850,-0.33294146,0.17979240,0.02388912,0.97312265,0.14190248
1755649438237,86.42153274,27.57775517,53.12400304,0.71598575,0.19872604,-2.39419353,0.18278791,0.02729006,0.97406660,0.13053006
1755649438262,-29.66088529,-9.06747699,-17.23279783,0.12657061,0.04200140,-0.48016083,0.18396733,0.02892915,0.97461052,0.12431197
1755649438285,1.72206163,-0.69455691,0.36788601,0.16712620,0.07994848,-0.69073508,0.18398106,0.03081767,0.97551393,0.11650667
1755649438330,-3.10226852,-0.44456916,-1.85791247,0.18964003,0.03724430,-0.30153123,0.18293721,0.03509405,0.97635379,0.10970714
1755649438339,117.16280839,9.58622541,57.71477961,1.06892398,0.23784514,-0.98382201,0.17864604,0.04006455,0.97745977,0.10513237
1755649438370,-34.17955285,-3.78309544,-17.07941528,0.15743540,0.04728154,-0.22711682,0.17610641,0.04248906,0.97818791,0.10163477
1755649438393,1.84156447,0.29475714,0.67886929,0.26073356,0.07875827,-0.32663992,0.17241337,0.04548749,0.97909363,0.09787841
1755649438404,6.11703229,0.34833792,2.92483254,0.38919365,0.08511014,-0.39981619,0.17045502,0.04756968,0.97954897,0.09573939
1755649438427,-6.48825457,0.20488648,-2.79009816,0.01664857,0.02707810,-0.06818239,0.16901978,0.04776447,0.97986578,0.09494166
1755649438438,3.81199900,-0.77661622,-0.96631357,0.09414818,-0.02361403,-0.20774757,0.17024779,0.04827757,0.97973709,0.09380943
1755649438450,-2.61027028,-0.28717773,0.31161807,0.10478172,-0.06461710,-0.21498081,0.17298294,0.04890626,0.97934938,0.09251955
1755649438472,-3.48812356,0.31862212,-1.57082470,0.00565796,-0.02786814,-0.12631436,0.17536608,0.04896709,0.97904980,0.09116167
1755649438483,14.39159028,1.46843977,7.13161477,-0.12388248,-0.04928040,-0.50171569,0.17850879,0.04827335,0.97877383,0.08835206
1755649438507,-6.73473510,-0.69249781,-3.35480135,-0.05489447,0.01082632,-0.29396539,0.17965698,0.04762834,0.97890104,0.08489797
1755649438516,27.16396016,7.85437576,2.78892534,-0.13929323,-0.03586209,-0.63194340,0.18210992,0.04697366,0.97873249,0.08192783
1755649438553,-7.67209133,-1.77219393,-1.42110441,-0.02892632,-0.01832155,-0.07343519,0.18464999,0.04643997,0.97839445,0.08057295
1755649438571,12.97487741,7.13468812,0.62954228,0.36765803,0.04523530,-1.38830280,0.18665764,0.04976727,0.97880383,0.06800881
1755649438620,-4.63365097,-2.21713476,-0.47237471,0.10558986,0.02582154,-0.15348870,0.18394402,0.05235422,0.97943646,0.06424834
1755649438639,4.71555720,4.60266928,-1.18885498,0.44699801,0.06570003,-0.99816154,0.18244247,0.05655601,0.98005404,0.05486562
1755649438661,-2.79556583,-2.67760156,-0.69119814,0.11088190,0.03735832,-0.29893815,0.18081949,0.05776462,0.98046125,0.05160720
1755649438694,-1.49407065,-1.79228589,0.09112480,-0.04284450,0.01467891,-0.10981154,0.18022140,0.05703840,0.98071006,0.04974589
1755649438705,3.77822137,1.46800165,-7.82212734,-0.02954931,-0.00422220,-0.34024979,0.18087409,0.05688327,0.98068789,0.04795958
1755649438728,-2.21539470,-0.20893161,3.36975992,0.11782679,0.00964163,-0.22735677,0.18051735,0.05823239,0.98079829,0.04535634
1755649438749,0.16818152,-0.05364274,-0.22118688,0.14701454,0.01842776,-0.36279818,0.17986736,0.05979809,0.98099454,0.04149254
1755649438760,-0.12573152,3.72935668,-2.11353488,0.29507405,0.04292368,-0.34523276,0.17840298,0.06148001,0.98123921,0.03952472
1755649438771,-1.71190297,2.14983683,0.34777101,0.46046200,0.01753402,-0.25195560,0.17732170,0.06392046,0.98133214,0.03818935
1755649438784,0.76311808,-2.50839082,2.03388592,0.29761779,0.00215883,-0.26446320,0.17691115,0.06579545,0.98134574,0.03652323
1755649438795,-1.07387014,-1.09439709,0.03794374,0.19093586,0.02555641,-0.45281754,0.17618840,0.06691243,0.98149524,0.03387425
1755649438806,-0.17157520,0.82231311,0.43598360,0.12391413,0.01542282,-0.38930973,0.17585086,0.06760015,0.98158084,0.03171358
1755649438830,0.04916716,-0.95916555,0.79552412,0.06437108,0.00879446,-0.22449902,0.17543894,0.06835329,0.98168373,0.02908694
1755649438839,-0.83240282,13.87623611,-11.18490258,0.32941688,0.01519797,-1.03484072,0.17516794,0.06990155,0.98175516,0.02422319
1755649438850,-0.92054207,-6.97214270,5.86300474,0.38964752,-0.01346449,-0.73579501,0.17522731,0.07190824,0.98168582,0.02043385
1755649438862,0.57734450,-0.59422830,1.32892170,0.26522837,-0.01408715,-0.60815767,0.17543560,0.07357918,0.98159707,0.01660246
1755649438873,0.19551913,1.90760615,-2.08129208,0.15723578,-0.01252904,-0.46642524,0.17566790,0.07439680,0.98153192,0.01417704
1755649438884,0.81903753,-3.23554182,0.13713981,0.00743075,0.01070114,-0.41296809,0.17548675,0.07443841,0.98159185,0.01186442
1755649438895,-0.41878069,0.36131358,0.09408667,-0.03135587,0.00919492,-0.35631567,0.17539847,0.07426596,0.98164242,0.00990469
1755649438906,0.37578839,-0.38140446,0.46284844,0.08674449,0.00429348,-0.35402141,0.17516038,0.07474739,0.98166625,0.00793987
1755649438916,-0.19614702,0.87681695,0.06008318,0.19526621,0.01483449,-0.43895942,0.17437095,0.07577254,0.98174413,0.00563533
1755649438928,-0.29751217,1.27420227,1.47671077,0.21481324,0.00468367,-0.34809211,0.17373594,0.07699697,0.98177083,0.00365121
1755649438938,0.28292624,-1.52966852,-0.70749301,0.24163409,-0.01576958,-0.27779062,0.17366305,0.07824139,0.98168961,0.00222058
1755649438950,-1.64481654,-2.32596370,-0.76017029,0.10190738,-0.00482319,-0.24776386,0.17356628,0.07883245,0.98166164,0.00078355
1755649438961,1.47029759,-2.15085186,0.16730462,-0.05207541,-0.01702211,-0.12066987,0.17424401,0.07853823,0.98156547,0.00010177
1755649438972,-2.24161940,-0.15667743,-1.11528211,-0.21638849,0.02597765,-0.11261857,0.17397050,0.07734809,0.98170834,-0.00051763
1755649438983,2.82731919,2.02750121,1.13040298,-0.26287474,-0.00275383,0.21830852,0.17466493,0.07595485,0.98169375,0.00063940
1755649438994,-2.09837032,-0.54861652,0.40822436,-0.23655658,0.01465906,-0.00237301,0.17477365,0.07464196,0.98177510,0.00062623
1755649439005,1.51950616,-1.07586649,1.27625428,-0.10745101,-0.00275417,0.03239550,0.17512123,0.07402949,0.98175941,0.00081089
1755649439017,-0.76551421,-0.64313827,-0.32156913,-0.00589321,0.00701784,-0.08554037,0.17490711,0.07399502,0.98180046,0.00031047
1755649439064,0.29695644,-0.08926110,0.86180505,0.00893180,-0.00085740,-0.01375085,0.17493146,0.07420402,0.98178040,-0.00001130
1755649439094,-0.42146646,0.21185275,-1.46583512,0.03705200,0.02204690,0.06722646,0.17281584,0.07476165,0.98211220,0.00100046
1755649439124,0.54314626,-0.44308262,1.10708156,-0.03448868,0.02488040,0.05739941,0.17089335,0.07424260,0.98248665,0.00186432
1755649439143,0.11731864,0.57527848,0.09286754,0.03634858,0.04022820,-0.07174523,0.16847268,0.07459700,0.98287888,0.00116481
1755649439185,-0.03305397,-0.15233777,0.14039394,0.00744212,0.00992519,0.00566724,0.16719074,0.07475217,0.98308582,0.00128297
1755649439196,0.05871513,0.34986675,-6.55523276,-0.12349470,0.04098222,0.01559211,0.16616368,0.07407295,0.98331122,0.00136873
1755649439229,-0.14619878,-0.31940418,2.07962628,-0.03027588,0.00040215,-0.02274193,0.16634725,0.07357793,0.98331780,0.00099690
1755649439262,0.01532383,0.02152106,0.02215624,-0.04965154,0.00099068,0.08061298,0.16659896,0.07275372,0.98333424,0.00233507
1755649439273,-0.06509350,-1.84617699,-1.99918815,-0.28950906,0.03200328,0.32937321,0.16619725,0.07110352,0.98351666,0.00421250
1755649439296,0.03670659,0.45177947,0.94308022,-0.23299125,0.02234532,0.22073335,0.16572346,0.06845907,0.98377028,0.00671782
1755649439306,0.59030364,-1.82064906,-0.73252855,-0.31100788,0.05076378,0.39924879,0.16472613,0.06685738,0.98403171,0.00877395
1755649439333,-0.02583229,0.52070768,0.68502073,-0.08783740,0.02702289,0.15234617,0.16293225,0.06569792,0.98438841,0.01078492
1755649439361,-0.15830393,0.26344356,0.24607926,-0.05204222,0.01961050,0.03452375,0.16148625,0.06494851,0.98467081,0.01128207
1755649439375,-0.26509292,-3.14230226,-1.44663094,-0.35088584,0.05277923,0.41639277,0.15997638,0.06250986,0.98503762,0.01417599
1755649439406,-0.03010863,1.36732220,0.46276995,-0.06642552,0.00511328,0.12617678,0.15970092,0.06147694,0.98511713,0.01613804
1755649439418,-1.56006768,-4.62181738,-1.07320580,-0.27851746,0.03394414,0.37638799,0.15889209,0.05991724,0.98530722,0.01824582
1755649439440,-0.08209480,2.00349544,0.92972000,-0.03014684,-0.00059312,0.04032673,0.15900719,0.05958111,0.98530061,0.01869546
1755649439452,1.10109280,-0.04294384,-1.95164965,-0.14243139,0.00391337,0.16467871,0.15905996,0.05873364,0.98532389,0.01967530
1755649439474,-0.12979166,0.48109367,0.37614789,-0.14708043,0.00330077,0.17739317,0.15917330,0.05707163,0.98536119,0.02167984
1755649439485,-0.80858445,-1.13472552,0.78034828,-0.20631864,0.02023602,0.04306731,0.15885727,0.05594719,0.98547148,0.02191456
1755649439495,-0.15587118,1.00959915,-0.57063066,-0.10443977,0.01458924,0.04607429,0.15854949,0.05541455,0.98554588,0.02214954
1755649439507,0.98896216,0.66007752,-0.20802585,-0.07351523,0.01090192,0.03134764,0.15827448,0.05498081,0.98561020,0.02233449
1755649439540,0.33928272,0.04080255,0.15723623,-0.00225677,0.00465913,-0.00898153,0.15783564,0.05494414,0.98568591,0.02218854
1755649439551,-2.90270877,-0.82435791,-2.60803656,-0.02557052,0.02923639,-0.07927306,0.15692202,0.05480094,0.98584964,0.02174461
1755649439561,0.62224629,-0.05790260,0.85448649,-0.09446483,0.01505560,0.05533322,0.15656038,0.05430973,0.98592793,0.02203234
1755649439573,0.29650270,0.62253870,0.13216886,-0.12008521,0.00622421,0.11260663,0.15648268,0.05363725,0.98596278,0.02266294
1755649439585,0.48226970,-0.19704121,0.48610269,-0.09516843,0.00938876,0.04316268,0.15628124,0.05305672,0.98602005,0.02292623
1755649439596,-0.35760910,-0.21217961,-0.25229001,-0.00962788,0.01199468,0.06228138,0.15583989,0.05300473,0.98608482,0.02326255
1755649439607,0.16429446,0.24695129,0.03964674,-0.04592809,0.01164357,0.03058179,0.15548222,0.05274294,0.98615119,0.02343687
1755649439618,0.15136052,0.15126005,0.48336360,-0.09141478,0.01976136,0.00935903,0.15496836,0.05225387,0.98625692,0.02348694
1755649439629,-0.01303780,0.07581442,-0.29412385,-0.04559143,0.01782918,0.02240396,0.15440886,0.05200312,0.98635498,0.02361016
1755649439659,0.38248740,0.15386678,0.32695165,-0.01845713,0.00897653,0.01784536,0.15360380,0.05172811,0.98648873,0.02387605
1755649439686,-0.57036884,0.08474276,-0.47350792,-0.05598321,0.02190483,0.01093738,0.15191228,0.05096674,0.98678663,0.02402480
1755649439697,-3.99110120,0.97144214,-3.94052645,-0.26725691,0.06377490,0.08575739,0.15001523,0.04948346,0.98714058,0.02450076
1755649439708,3.74710307,-0.70035106,3.46094318,-0.12676481,0.03432302,-0.03002682,0.14897056,0.04874822,0.98733966,0.02432660
1755649439742,0.35662515,0.05209636,0.49782486,-0.03805787,0.01519949,-0.01184668,0.14750664,0.04810695,0.98759577,0.02412698
1755649439752,-3.29807513,-0.38868884,-3.37015528,0.00139006,0.05543774,-0.11816061,0.14569733,0.04811404,0.98787850,0.02352437
1755649439763,0.78935307,0.39026628,1.51762823,-0.05456472,0.03257423,0.01496486,0.14460493,0.04782485,0.98805114,0.02360368
1755649439808,0.54675923,-0.10863814,0.39670184,-0.03433369,0.01121056,0.02028476,0.14305457,0.04705405,0.98830282,0.02405907
1755649439819,-5.04871572,1.48653281,-3.48656084,-0.33045576,0.09629321,0.13221608,0.13976052,0.04520350,0.98884206,0.02479948
1755649439841,1.74647684,-0.97363255,1.53840620,0.04247205,0.02878563,-0.08477101,0.13749157,0.04567494,0.98916158,0.02385852
1755649439889,0.35631898,-0.01293923,0.09965431,0.00855360,0.01079547,-0.00226644,0.13555477,0.04588023,0.98942067,0.02380413
1755649439921,-0.99893952,-0.16462980,-0.49054003,-0.07525463,0.02061548,0.10782141,0.13322972,0.04468368,0.98974846,0.02551849
1755649439943,-0.58976304,-0.94423532,-0.31901106,0.02065336,-0.01655995,0.14522187,0.13420892,0.04491603,0.98956216,0.02715224
1755649439964,0.75608112,0.38134365,0.08525013,-0.13273061,-0.01223839,0.23122223,0.13507898,0.04355554,0.98943672,0.02952226
1755649439987,0.18738645,0.20377633,0.45527612,-0.01919736,-0.01186804,0.14534073,0.13576334,0.04333765,0.98930202,0.03117188
1755649440010,0.12524657,0.24913207,-0.24284829,0.00047363,-0.00509824,0.13381139,0.13582700,0.04334312,0.98924313,0.03271740
1755649440020,-1.37123596,-0.58570876,-1.40467222,0.00649468,-0.00577864,0.10251432,0.13590708,0.04337754,0.98921250,0.03326073
1755649440032,1.00927929,0.00021730,0.80294369,0.00165533,-0.00821894,0.00244981,0.13624707,0.04338714,0.98916483,0.03327494
1755649440053,0.61692904,0.47996479,0.53249138,0.04897890,-0.00222807,-0.03454487,0.13634112,0.04390632,0.98914122,0.03290876
1755649440065,-0.71706266,0.06787857,-0.49381288,0.05539146,-0.00752993,0.03712847,0.13649774,0.04421928,0.98909867,0.03311854
1755649440075,-0.80817262,0.27469832,-1.07764643,-0.06691276,0.00530058,0.02569445,0.13637659,0.04386799,0.98912650,0.03325343
1755649440085,0.89657517,0.79257759,0.98135278,-0.12292415,-0.01000961,0.01872544,0.13692796,0.04323493,0.98907495,0.03334987
1755649440098,-0.35352985,-0.62029570,0.23390390,-0.12712595,-0.00696668,0.02810277,0.13744717,0.04244039,0.98903141,0.03352551
1755649440120,0.64891452,0.11486207,0.35266125,-0.04588500,-0.00671901,0.02958621,0.13805006,0.04193795,0.98895784,0.03384948
1755649440130,-1.98843562,0.46290078,-3.26972590,-0.22362324,-0.01644303,-0.01486132,0.13905431,0.04074157,0.98886987,0.03376997
1755649440143,1.21115543,0.16836608,1.71266524,-0.05875119,-0.00272719,0.05468329,0.13920143,0.04036850,0.98885255,0.03411721
1755649440155,-1.27603060,-0.95203878,-0.22163327,-0.02360117,-0.00689735,-0.01241842,0.13954245,0.04023161,0.98881254,0.03404519
1755649440191,0.84969581,0.15478592,0.63638655,-0.01036722,-0.00108803,-0.00671273,0.13976784,0.04004189,0.98879263,0.03392234
1755649440222,-0.91092339,-0.23085836,-0.63268549,-0.01637424,-0.00497137,0.05419802,0.14017580,0.03978973,0.98871607,0.03475699
1755649440261,0.20263344,-0.27898834,0.20451737,-0.11441385,0.00651695,0.11179521,0.13934168,0.03757582,0.98884218,0.03692023
1755649440297,0.23908784,0.29748817,0.20189425,-0.07800369,0.01141317,0.08804002,0.13781366,0.03616785,0.98904818,0.03850935
1755649440338,-0.16939514,-0.16456414,0.13200109,0.00638095,0.00032148,0.03315323,0.13753877,0.03629930,0.98905481,0.03919231
1755649440383,0.13171405,0.02449370,0.03268818,-0.07357058,0.00467448,0.08604139,0.13664111,0.03464396,0.98915998,0.04112824
1755649440415,-0.26458874,0.03671092,0.00395295,-0.01678227,0.00877623,0.06512363,0.13536881,0.03437545,0.98930040,0.04217022
1755649440457,0.39395237,0.07842013,0.02564319,-0.07884498,0.00219162,0.06573701,0.13500702,0.03272759,0.98934621,0.04354412
1755649440477,-0.77553638,0.43487933,-0.25065456,-0.04687826,0.01515833,-0.00060027,0.13397704,0.03224474,0.98950234,0.04353794
1755649440500,0.35873176,0.45282883,-0.22939418,0.03117466,0.01355962,-0.07595426,0.13303289,0.03259702,0.98965556,0.04267966
1755649440532,0.42207931,-0.35111428,0.20288295,0.01578247,0.00664926,-0.06681600,0.13251860,0.03284875,0.98976162,0.04161394
1755649440580,0.12663858,0.07546672,0.03326702,-0.00233786,0.00355235,0.00973642,0.13181444,0.03279217,0.98984758,0.04184956
1755649440619,-0.33223448,0.17336643,-0.32707361,0.01918795,-0.00295106,-0.00423991,0.13217494,0.03316250,0.98979063,0.04176773
1755649440659,-0.16390473,-0.26530895,0.13960118,0.16300284,-0.02234784,-0.10479710,0.13525745,0.03640625,0.98934591,0.03968227
1755649440693,0.19111902,0.15477981,0.07047096,-0.01539558,-0.02069101,0.00124842,0.13784581,0.03614684,0.98899726,0.03970330
1755649440721,-0.17495620,0.18608985,-0.18253214,0.12616439,-0.01822463,-0.09812529,0.13960394,0.03793837,0.98873847,0.03830993
1755649440732,-1.27272901,0.12432816,-3.95733874,0.18308102,-0.03771121,0.00050909,0.14085386,0.03900024,0.98851975,0.03831288
1755649440806,0.44428379,-0.14802293,0.75619387,-0.03189267,0.00167883,0.01142227,0.14062615,0.03783138,0.98858128,0.03873150
1755649440836,-0.38899778,0.16374942,-0.65585575,-0.09081510,0.01206931,-0.03322988,0.13983695,0.03645099,0.98876473,0.03822641
1755649440880,0.21447496,-0.03818340,0.41852850,-0.01067239,0.01191650,-0.06294767,0.13842153,0.03621833,0.98902451,0.03685415
1755649440916,-0.05789175,-0.08527517,-0.06967045,-0.05854585,0.00721544,-0.03924026,0.13794271,0.03514694,0.98915655,0.03613605
1755649440954,0.03551490,-0.14488693,-0.18627396,-0.06721067,0.00322604,0.04623565,0.13759401,0.03388674,0.98921704,0.03700297
1755649441003,0.03427722,0.12046840,0.18278604,-0.01588251,-0.00411189,-0.02214672,0.13856088,0.03349523,0.98911568,0.03645706
1755649441036,0.03100950,0.07481096,-0.37613848,-0.02204876,0.00005493,0.01460346,0.13857801,0.03313694,0.98911658,0.03669436
1755649441073,-0.00753401,-0.03465898,0.37193146,0.05522409,-0.00644388,-0.03753967,0.13936492,0.03416411,0.98899672,0.03599612
1755649441117,0.07166739,-0.03805258,0.02402438,-0.01754270,-0.00164052,0.02177677,0.13959240,0.03377466,0.98896030,0.03647957
1755649441159,-0.02471915,0.00391606,0.13903250,0.02081010,0.00384957,-0.01928808,0.13902555,0.03420543,0.98903999,0.03608031
1755649441214,0.03697965,-0.04742976,0.04197982,-0.00565194,0.00426300,0.02104797,0.13806804,0.03404887,0.98915807,0.03666333
1755649441224,-3.81058117,-0.49088376,5.11465150,-0.28855272,0.03332287,0.11216586,0.13708908,0.03263496,0.98932135,0.03721295
1755649441293,0.46507254,0.05541601,-0.66235192,-0.01802193,-0.00327573,0.02122694,0.13784508,0.03201591,0.98920883,0.03794209
1755649441328,-0.16562621,0.02827262,0.17023326,0.02569893,-0.00507959,0.01282867,0.13832168,0.03247207,0.98911867,0.03816980
1755649441370,0.19173489,-0.04833607,-0.18718131,-0.03703529,-0.00478063,0.06304051,0.13884360,0.03169988,0.98901899,0.03948420
1755649441404,-0.04436193,0.20769397,0.20748986,0.01488050,-0.00073615,-0.01512394,0.13894851,0.03195508,0.98900637,0.03922482
1755649441446,0.03155360,0.02670370,0.00483122,0.02584185,-0.00717193,-0.00556874,0.13991718,0.03249388,0.98885683,0.03910871
1755649441479,0.12822864,0.01028611,0.01751912,0.00975918,0.00058634,-0.01137990,0.13986351,0.03265540,0.98886654,0.03892037
1755649441511,-0.15479240,0.18796352,-0.12378163,0.06556249,-0.00742960,-0.07158565,0.14077732,0.03371751,0.98874618,0.03776069
1755649441548,0.09545644,-0.25686936,-0.12760099,-0.04609644,-0.00280553,0.04526423,0.14111601,0.03286473,0.98869428,0.03859808
1755649441568,-0.16307197,0.23091610,0.30074354,0.06607860,-0.01173961,-0.06761016,0.14195115,0.03351560,0.98857864,0.03793212
1755649441590,-0.18584483,-0.10561015,-0.11825809,-0.02129078,-0.01653007,0.04151654,0.14316625,0.03327714,0.98839350,0.03839710
1755649441646,0.13062252,-0.07610247,-0.07465223,-0.00095785,-0.00519942,0.00590042,0.14411784,0.03325066,0.98824974,0.03856025
1755649441657,-1.31763918,0.32716592,3.05798115,0.10737702,-0.02626917,-0.07898016,0.14508338,0.03384123,0.98810526,0.03812586
1755649441701,0.34256618,-0.00706421,-0.70706289,0.04284023,-0.00073298,-0.03105759,0.14514919,0.03479871,0.98808888,0.03743172
1755649441736,-0.09857116,-0.15891491,0.08588599,0.00910430,-0.00602734,0.04883703,0.14560526,0.03495804,0.98798340,0.03828637
1755649441768,-0.05698266,-0.26402125,-0.11417283,-0.01455200,-0.01399916,0.10014954,0.14674248,0.03472593,0.98776011,0.03988375
1755649441779,-1.60478456,-1.40876427,1.63075958,0.00137586,-0.00221366,0.14958421,0.14660070,0.03473329,0.98774827,0.04068403
1755649441816,0.47419390,0.55577792,-0.46973911,-0.00730817,-0.00926443,0.05137066,0.14751766,0.03459809,0.98757688,0.04163439
1755649441845,-0.33487787,-0.33958660,0.17959642,0.02895333,-0.02451862,0.12108856,0.14927571,0.03501647,0.98722258,0.04338411
1755649441857,-0.59050983,-1.45273327,1.13610149,-0.08761197,-0.02958417,0.22871912,0.15017875,0.03448204,0.98704212,0.04477930
1755649441879,0.50740802,1.39585641,-0.70513202,-0.01409580,-0.00993608,0.14430431,0.15045423,0.03432487,0.98693133,0.04638829
1755649441901,-0.31916320,-0.48561704,0.62226813,0.08714955,-0.00967783,-0.05958639,0.15112380,0.03527480,0.98682584,0.04573880
1755649441913,0.61001944,0.69922661,-0.67003549,0.00993059,-0.00448201,0.07275450,0.15115203,0.03533289,0.98679962,0.04616442
1755649441924,0.40676416,-0.05295944,-0.03130142,0.00680595,-0.00681540,0.12043954,0.15118394,0.03536998,0.98676248,0.04682081
1755649441951,0.09430361,0.11656262,-0.26320113,0.00242206,-0.00207572,0.02676123,0.15124778,0.03540317,0.98673404,0.04718744
1755649441981,-0.14714622,0.02750680,0.10757741,0.01350815,-0.00264235,0.02514862,0.15133844,0.03560106,0.98669533,0.04755587
1755649441983,-60.07831220,-8.41781691,60.52454941,-0.13195074,-0.06718127,0.59535733,0.15174414,0.03540973,0.98659792,0.04841914
1755649442040,3.09115928,0.41064794,-3.09429610,0.00036601,-0.00132361,0.02365775,0.15177036,0.03542018,0.98656013,0.04909457
1755649442072,-0.66147000,-0.27752255,0.45479514,-0.01374256,0.00147728,0.10109129,0.15114681,0.03520442,0.98658332,0.05068170
1755649442092,-0.11892819,0.18388059,0.69778596,-0.07116060,-0.00870168,0.11609538,0.15148638,0.03448926,0.98649587,0.05184846
1755649442125,0.20122475,0.17020485,-0.46013993,0.00797922,0.01534042,-0.02672495,0.14997371,0.03461892,0.98674515,0.05141418
1755649442167,0.32654505,0.12703488,-0.24630313,0.01037047,0.00166471,-0.03479246,0.14994164,0.03483878,0.98678045,0.05067658
1755649442199,-0.27032213,-0.06994156,0.21468016,-0.01624128,0.00162439,0.01266732,0.14976144,0.03457810,0.98680652,0.05087989
1755649442235,-0.04481921,0.01438671,-0.10099938,0.01650990,-0.00240977,0.00486020,0.14994899,0.03487611,0.98676302,0.05096761
1755649442265,-0.21077381,-0.30968309,0.59235717,-0.02445347,-0.00271223,0.09287033,0.14982200,0.03451053,0.98672247,0.05235602
1755649442291,-0.11964314,-0.04000017,-0.27242840,-0.01198987,0.00829199,0.09466115,0.14869566,0.03435286,0.98683151,0.05360082
1755649442313,0.20650601,-0.16589596,-0.01199779,-0.01605837,0.00138658,0.07181435,0.14835743,0.03418104,0.98684635,0.05436923
1755649442336,0.22499864,0.24396828,-0.24065540,-0.04669364,0.00304751,0.09233957,0.14784880,0.03363939,0.98688170,0.05544037
1755649442357,-0.07120855,0.17720935,0.00218761,-0.03635136,-0.00177657,0.10595571,0.14763301,0.03324861,0.98686260,0.05657940
1755649442368,-1.01818792,-0.19602501,0.77527254,-0.01852397,0.00131541,0.04572786,0.14751758,0.03315229,0.98686944,0.05681718
1755649442380,-0.09781275,-0.22157517,-0.60063142,0.01528492,-0.00316378,0.01320017,0.14759339,0.03324400,0.98685046,0.05689638
1755649442392,0.68402243,0.07447697,0.10540019,-0.05748293,-0.00373671,0.00729121,0.14780530,0.03289623,0.98682785,0.05694049
1755649442403,0.28302130,0.09077281,0.05696252,-0.07942589,-0.00097503,0.02250258,0.14788993,0.03245938,0.98682249,0.05706426
1755649442413,-0.00812452,0.49894714,-0.18402040,-0.06516226,0.00548715,0.02621364,0.14773055,0.03214009,0.98684938,0.05719270
1755649442423,0.51445658,0.01347850,-0.04356425,-0.03260857,0.00051622,0.03774413,0.14767218,0.03196726,0.98685211,0.05739275
1755649442436,-0.28784410,-0.16711613,-0.23396330,0.01148619,0.00580426,-0.00382759,0.14742328,0.03203905,0.98688839,0.05736883
1755649442459,0.25993130,-0.00844449,-0.22646419,0.01112733,0.00323098,-0.01663492,0.14721645,0.03216980,0.98692635,0.05717337
1755649442492,-0.07165290,0.03439900,0.01833873,-0.01345972,-0.00027175,0.00356557,0.14727217,0.03194704,0.98692186,0.05723238
1755649442503,-7.09984333,-0.54816788,5.21723636,-0.24586661,-0.01741836,0.15132899,0.14784729,0.03065624,0.98683041,0.05802685
1755649442526,2.86310859,0.26554868,-1.99561817,-0.02434338,-0.00382080,0.02114289,0.14809697,0.03038238,0.98678743,0.05826471
1755649442535,-0.88479784,0.22000737,0.33325619,0.00329702,-0.00327399,-0.00358294,0.14820966,0.03039886,0.98677106,0.05824680
1755649442547,0.83446503,-0.16860740,-0.21576273,-0.00264903,-0.00767392,0.00642536,0.14848441,0.03038403,0.98672808,0.05828278
1755649442559,0.23286563,0.37581497,-0.34199958,-0.05790608,-0.00410683,-0.01096478,0.14874659,0.03003370,0.98670324,0.05821644
1755649442570,-0.09952538,-0.16510595,0.39038893,-0.00974915,-0.00645648,-0.00406573,0.14900612,0.02997910,0.98666708,0.05819367
1755649442580,0.26828041,-0.26617361,-0.13116462,0.01283230,-0.00591428,-0.00911119,0.14920466,0.03004262,0.98663780,0.05814857
1755649442591,-0.32184576,0.16617238,0.13081952,-0.01032927,-0.00252744,-0.03151794,0.14937226,0.02998684,0.98662416,0.05797838
1755649442612,0.63274901,-0.00157240,-0.54692451,-0.00473146,-0.00179763,-0.00567765,0.14953595,0.02993527,0.98660456,0.05791649
1755649442614,-204.86767044,29.71248579,214.54212590,0.11054628,-0.08796704,0.12017520,0.14989366,0.03001265,0.98654298,0.05800061
1755649442624,26.17522433,-3.83713348,-27.82739480,0.02546555,-0.00968068,0.02285469,0.15015462,0.03014635,0.98649216,0.05812060
1755649442637,-0.01964930,0.01025943,0.15325841,-0.01435975,-0.00987927,0.00179197,0.15056331,0.03005875,0.98643190,0.05813153
1755649442646,-0.21878053,-0.19682949,1.25601963,-0.05310004,-0.01049594,-0.03334458,0.15099592,0.02980918,0.98638257,0.05797481
1755649442658,0.03829358,0.24822321,-0.33652860,-0.06032367,-0.00748740,0.02076944,0.15130954,0.02945026,0.98633802,0.05809839
1755649442689,0.45103119,-0.09065239,-0.52979173,-0.01782724,-0.00077141,0.00636933,0.15140305,0.02917393,0.98632606,0.05819711
1755649442719,-0.50025510,0.06921623,0.52897669,-0.02499994,-0.00150562,0.02840898,0.15145845,0.02879268,0.98630310,0.05863035
1755649442738,-1.62405704,-0.39052976,1.24616406,0.02021366,-0.01672740,0.07937140,0.15213541,0.02897764,0.98615004,0.05935660
1755649442748,-0.66144959,0.51017020,2.94858756,-0.21501286,-0.01749155,0.15049153,0.15263035,0.02784882,0.98605821,0.06014668
1755649442780,1.24168487,-0.07096941,-1.51432574,-0.04885511,-0.00424809,0.07983039,0.15270176,0.02706225,0.98598982,0.06143195
1755649442791,-5.73046385,-0.06045515,5.84660680,0.04001390,-0.00123856,0.04253300,0.15261391,0.02727833,0.98598313,0.06166163
1755649442825,1.70857780,-0.07890076,-1.87011808,0.01919253,-0.00810019,-0.00541052,0.15348712,0.02760748,0.98584421,0.06156884
1755649442836,-3.73383898,-0.55426370,7.20462655,-0.15423197,-0.01303798,0.10702566,0.15385350,0.02677463,0.98577381,0.06214677
1755649442848,1.32807081,-0.05979218,-2.78295935,-0.05851515,-0.00430650,0.08504591,0.15387264,0.02642646,0.98574818,0.06265280
1755649442870,0.78570001,0.27746112,-1.52851912,-0.01234906,0.00178854,0.04844173,0.15355311,0.02629124,0.98576777,0.06318323
1755649442881,-1.37881964,-0.10425249,0.71335163,0.00482404,-0.00446804,0.07712702,0.15353201,0.02631681,0.98574409,0.06359201
1755649442891,0.18543050,-0.66935089,0.70924853,-0.03217697,-0.00704519,0.00569886,0.15379298,0.02614305,0.98570604,0.06362278
1755649442904,0.71608744,0.38477713,-0.98909088,-0.03712393,-0.00592421,0.04905627,0.15393757,0.02591845,0.98567020,0.06391957
1755649442915,-0.44247612,0.02419412,0.71348971,-0.06725467,-0.00182751,0.06613414,0.15391135,0.02553510,0.98565978,0.06429654
1755649442925,-0.15582914,-0.32206095,0.54166304,-0.07561344,-0.00060243,0.07776508,0.15382831,0.02514947,0.98565671,0.06469314
1755649442936,0.21543056,0.67512330,-0.41861373,-0.06609236,0.00186513,0.11162085,0.15356194,0.02478597,0.98566697,0.06530705
1755649442949,-0.08627566,-0.76394144,-0.65833386,-0.04354076,0.00585365,0.06234790,0.15319267,0.02450513,0.98570473,0.06570920
1755649442959,-1.01640069,0.75585483,1.91762896,-0.07675649,0.00045294,0.12021666,0.15299058,0.02414053,0.98570688,0.06628023
1755649442969,0.26360063,-0.82571533,-0.28283574,-0.06152730,0.00418582,0.03249362,0.15282553,0.02381752,0.98572885,0.06645082
1755649442980,0.05734290,1.08771990,-0.31737776,-0.05061204,-0.00087372,0.08157847,0.15269939,0.02352903,0.98572387,0.06691582
1755649442991,-0.54410144,-0.90532718,0.41380279,-0.01492696,0.00330955,0.04030576,0.15250260,0.02344917,0.98574158,0.06713145
1755649443003,0.50101629,0.30903677,-0.61138361,-0.04084671,-0.00046526,0.04042508,0.15245289,0.02321226,0.98573888,0.06736592
1755649443014,-0.49226954,-0.00985196,0.52954958,-0.06904197,-0.00028286,0.07116091,0.15234778,0.02283598,0.98573734,0.06775374
1755649443025,-0.01486882,-0.01656469,-0.15586564,-0.06862573,-0.00791241,0.10328648,0.15243398,0.02244824,0.98569263,0.06833731
1755649443036,0.13640591,0.10352978,-0.34750370,-0.07154583,-0.00390179,0.08599113,0.15241629,0.02202970,0.98566981,0.06884036
1755649443047,-0.74590540,0.39416210,0.26837512,-0.07129069,-0.01236943,0.17213523,0.15247901,0.02165542,0.98560487,0.06974407
1755649443058,0.86481048,-0.08922300,-0.16469243,-0.08736477,-0.00431103,0.07498189,0.15251002,0.02118365,0.98558159,0.07014897
1755649443069,-0.19935794,0.40072213,-0.07306975,-0.04729575,-0.00739161,0.08760588,0.15258760,0.02091880,0.98554020,0.07063957
1755649443081,0.48344061,-0.16120648,0.14135600,-0.00918688,-0.01130781,0.10954175,0.15272414,0.02086505,0.98547405,0.07128038
1755649443092,-1.82958649,-0.04673810,-0.49025874,-0.10295022,0.02576712,-0.06698938,0.15206817,0.02030912,0.98561319,0.07091864
1755649443104,1.85951852,0.53944309,0.36130995,-0.00213384,-0.01500993,0.05191172,0.15253292,0.02029557,0.98551787,0.07124828
1755649443115,-1.85749018,-1.05566236,0.77548453,-0.00850030,0.00788024,-0.03452399,0.15235768,0.02025137,0.98555885,0.07106876
1755649443125,-0.06337169,1.04269127,0.39895961,-0.03485472,0.00461484,0.00568261,0.15221537,0.02007361,0.98558239,0.07109774
1755649443136,0.54461449,0.16967959,-1.44859951,-0.02796067,0.00491016,0.03439189,0.15195875,0.01991144,0.98561087,0.07129721
1755649443149,0.14527075,0.03526820,0.07490005,0.01604607,0.00611541,-0.00021035,0.15170432,0.02000932,0.98564817,0.07129593
1755649443159,-1.23476735,1.20528963,0.90184458,0.04250077,-0.00915702,0.05241111,0.15185742,0.02023245,0.98560010,0.07157109
1755649443170,0.62532704,-1.50155343,-0.38134438,-0.00809544,0.00031802,-0.03033171,0.15192852,0.02018914,0.98560180,0.07140881
1755649443182,0.30194546,-0.70822895,0.08272166,0.04600864,-0.00327323,-0.06302988,0.15218937,0.02045829,0.98558265,0.07104009
1755649443193,-0.45118646,1.17845577,0.10244570,0.06546950,-0.00772493,-0.02755335,0.15248337,0.02081510,0.98554055,0.07088992
1755649443204,-0.56763443,-1.08124631,-0.70928216,0.05426707,0.00293374,-0.02127521,0.15238905,0.02112442,0.98555727,0.07076865
1755649443214,0.26025270,0.62210518,1.78257624,-0.05868078,-0.00998439,-0.00171845,0.15275584,0.02083102,0.98550735,0.07076006
1755649443252,1.27083824,-0.06272663,-1.49210678,-0.00630205,-0.00024802,-0.00187410,0.15281867,0.02071191,0.98550266,0.07072464
1755649443261,-21.87526244,-1.17405574,20.30990584,-0.03082560,-0.03080236,-0.00183364,0.15376267,0.02056857,0.98535943,0.07071611
1755649443270,11.67733087,-0.67508091,-11.53609272,0.09504977,0.00852201,-0.09395344,0.15364799,0.02101530,0.98539948,0.07027453
1755649443327,1.62276747,0.31632956,-1.35148130,-0.00755767,-0.00070585,0.00654738,0.15372071,0.02080029,0.98537940,0.07046080
1755649443337,-38.92763277,-8.34127263,31.59073043,-0.45970992,0.03074687,0.23495675,0.15254429,0.01861667,0.98552545,0.07157685
1755649443381,7.66567357,1.55430162,-6.06334548,-0.08911209,0.00367979,0.07773834,0.15142920,0.01665174,0.98560659,0.07329098
1755649443405,-0.76769701,-0.41549024,0.74875238,-0.01446548,0.01488260,0.02031781,0.15016219,0.01647816,0.98578518,0.07353479
1755649443426,1.17921365,0.40183867,-1.15238413,-0.03973269,0.00557519,0.05661004,0.14952646,0.01605898,0.98584400,0.07413203
1755649443438,-3.49910456,-0.89008802,2.19533333,-0.07740535,0.00549590,0.19425314,0.14876760,0.01559068,0.98587725,0.07530726
1755649443450,1.50464856,1.01124727,-0.70135649,-0.04470634,-0.00250090,0.15972354,0.14840017,0.01531797,0.98586199,0.07628157
1755649443460,-1.97115179,-0.07769327,2.51779517,-0.00147127,0.00163408,0.09517285,0.14812199,0.01531113,0.98586959,0.07672413
1755649443472,2.06341807,0.31975609,-2.20194515,0.02774594,0.00948272,0.01518990,0.14766697,0.01548176,0.98592791,0.07681755
1755649443484,0.83207753,0.39240020,-0.81159077,0.04506909,0.00459056,0.03038092,0.14735150,0.01575894,0.98595614,0.07700439
1755649443521,1.03407193,0.06962805,-0.90711022,0.00836883,0.00312667,-0.01256710,0.14707038,0.01591293,0.98601367,0.07677315
1755649443552,-1.57764218,-0.04459016,1.34432620,0.02955189,0.00792214,0.01614573,0.14605271,0.01637541,0.98613765,0.07702583
1755649443571,-3.04848332,-0.36110963,2.91150743,0.04424632,0.01555641,0.00409379,0.14502786,0.01677805,0.98627922,0.07706309
1755649443581,-1.99893982,-0.19542702,0.87462008,0.08430182,0.01319940,0.04711839,0.14434020,0.01724171,0.98635181,0.07732224
1755649443604,3.03417244,0.00754917,-2.53578379,0.06060930,0.00275178,-0.00865767,0.14409209,0.01793872,0.98638346,0.07722268
1755649443615,-3.44593944,-0.53310987,3.47894148,-0.01871602,-0.00139788,0.02680766,0.14407903,0.01784046,0.98637612,0.07736342
1755649443638,2.10447525,0.14036429,-1.97533397,-0.02003092,0.00551263,0.02297492,0.14353976,0.01761411,0.98643841,0.07762303
1755649443648,-2.62486750,-0.80173718,1.91077675,-0.02149295,0.00925517,0.10781687,0.14290503,0.01750020,0.98648747,0.07819446
1755649443659,1.34466197,-0.17989014,-0.38848739,-0.00996857,-0.00160103,0.11897571,0.14260732,0.01744438,0.98647850,0.07886073
1755649443671,-0.12134261,-0.60850667,0.48343762,0.01083830,-0.00436553,0.12207410,0.14238522,0.01750615,0.98645362,0.07955655
1755649443682,0.04542296,1.12123919,1.27067155,-0.06906370,-0.01262637,0.21746894,0.14223774,0.01712285,0.98638354,0.08076350
1755649443693,-0.71961633,-0.66996398,-0.20713781,-0.03844016,0.00304982,0.13876127,0.14169587,0.01690566,0.98640077,0.08154750
1755649443705,-0.08128505,0.36310536,0.10903862,-0.00118493,-0.00132501,0.10241254,0.14140680,0.01689879,0.98639309,0.08214150
1755649443715,-0.12480280,-0.51310160,0.43138826,0.05701167,-0.00263770,0.07025551,0.14124953,0.01720380,0.98637898,0.08251736
1755649443727,0.80528609,-0.14686445,-0.62410392,0.05085617,-0.00363680,0.07985252,0.14108640,0.01750385,0.98635752,0.08298849
1755649443738,-0.63933884,0.22879558,1.47712424,-0.00016345,-0.01108283,0.15588810,0.14100721,0.01750297,0.98629767,0.08383029
1755649443749,-0.62093165,-0.11966006,0.38818912,-0.09833292,-0.01178495,0.18795506,0.14090920,0.01696706,0.98623344,0.08485464
1755649443761,1.31626027,-0.61469857,-0.95027111,-0.14279971,-0.00610868,0.17779266,0.14062451,0.01612454,0.98619740,0.08590362
1755649443772,-0.54981616,0.61761643,0.72414980,-0.12697523,-0.01617483,0.28365845,0.14036969,0.01543887,0.98611006,0.08743538
1755649443783,0.73609234,-0.87819615,-0.88880281,-0.07605518,-0.00126735,0.17276077,0.13983121,0.01499015,0.98610258,0.08845466
1755649443793,0.02879915,0.86267731,2.46024804,0.00785889,-0.00592700,0.25377095,0.13922014,0.01502984,0.98607265,0.08973621
1755649443804,-1.21649856,-0.68976733,-1.59479614,0.02046123,0.02286008,0.08351339,0.13801533,0.01514237,0.98619838,0.09019553
1755649443815,1.32410979,1.31918379,2.42753462,0.08514463,-0.01879854,0.24665252,0.13780853,0.01561067,0.98609499,0.09155212
1755649443827,-1.80882856,-2.65068259,-0.64826209,0.03931814,0.03281604,-0.03895681,0.13662939,0.01582692,0.98627548,0.09133786
1755649443837,0.59901962,3.16755130,-0.57731547,0.04847504,-0.01054410,0.25046049,0.13609794,0.01608868,0.98621854,0.09269034
1755649443851,1.87922244,-0.62180154,-1.32847225,-0.02033478,-0.00236360,0.14674486,0.13555040,0.01595142,0.98620258,0.09368087
1755649443873,0.96370712,0.38381445,-1.55838900,-0.02019737,0.00038009,0.07914912,0.13493727,0.01572824,0.98620678,0.09455547
1755649443883,-11.89068973,-3.47468633,18.87560359,0.07901982,-0.00801203,0.36991714,0.13389213,0.01611544,0.98616752,0.09636806
1755649443893,8.85863655,2.51293337,-12.10258121,0.07516422,-0.01596257,0.14244404,0.13392093,0.01651005,0.98608372,0.09711589
1755649443895,-212.69498610,-46.26789680,297.38327675,0.83187755,-0.09960818,1.26197179,0.13367288,0.01721715,0.98599905,0.09818857
1755649443905,34.18702754,7.09225741,-51.13219735,0.12573014,-0.00147775,0.01812486,0.13357734,0.01785208,0.98599159,0.09828010
1755649443916,1.37871700,0.87271026,-0.50040878,0.11528079,-0.02826882,0.12977860,0.13410572,0.01848036,0.98583753,0.09898739
1755649443927,0.27318883,0.18972731,0.04941998,0.06695672,-0.01970543,0.10783449,0.13441999,0.01885867,0.98572619,0.09959666
1755649443938,-3.81094633,-2.52643891,3.29771940,0.11282561,-0.00336315,0.01969886,0.13438839,0.01945100,0.98570853,0.09970008
1755649443949,0.90113028,1.59743263,0.75869840,0.00504932,-0.04243972,0.27317734,0.13497191,0.01947878,0.98547512,0.10120255
1755649443961,1.28296854,-0.86499196,-1.95907210,-0.03218004,-0.02546764,0.23377158,0.13505494,0.01928891,0.98532486,0.10258181
1755649443972,0.79510709,0.80622817,-0.09938839,-0.06116567,-0.03908079,0.36894430,0.13511403,0.01895250,0.98510991,0.10461100
1755649443983,-1.42247922,2.49164752,0.46492423,0.00546287,-0.04002609,0.45005215,0.13477183,0.01898282,0.98488777,0.10710879
1755649443995,1.44774732,-1.03007310,0.92304753,0.13801014,-0.03936518,0.20075810,0.13543535,0.01983848,0.98464370,0.10835349
1755649444035,0.87323705,0.34099616,-2.39875278,0.06148223,-0.00481292,0.05334556,0.13509034,0.02107120,0.98454720,0.10942307
1755649444064,-2.97693630,-0.39871880,7.76053187,0.14679495,-0.00780804,0.11619176,0.13419489,0.02318505,0.98443477,0.11109623
1755649444073,-6.80891660,4.75506089,22.86975724,0.54867252,0.02706330,-0.06974096,0.13311958,0.02562664,0.98455520,0.11078588
1755649444096,4.56513267,-1.47161983,-11.68297880,0.29541970,0.02818805,-0.21725625,0.13207605,0.02902397,0.98487936,0.10828743
1755649444105,-5.19457907,0.22696413,15.58650993,0.22413531,-0.00017264,-0.01182985,0.13189786,0.03004378,0.98487858,0.10823361
1755649444127,2.32548003,-0.47895902,-7.08149305,-0.01582409,-0.00323922,0.02050108,0.13202087,0.02986576,0.98484214,0.10846425
1755649444138,-1.89796610,-0.73822824,5.90929531,-0.18005856,-0.03349459,0.25268042,0.13246153,0.02888444,0.98465959,0.10984135
1755649444150,1.65532414,0.22221219,-2.83383972,-0.12438519,-0.03382363,0.30713231,0.13258772,0.02815057,0.98446003,0.11165343
1755649444161,-1.19323824,-1.46046120,1.85777491,-0.05330802,-0.03000777,0.32870495,0.13234709,0.02786537,0.98429949,0.11341201
1755649444171,-0.57676813,-1.16517752,2.26203334,0.03256516,-0.03267126,0.32196692,0.13212708,0.02803634,0.98412797,0.11510233
1755649444184,0.22711034,-0.17516178,-2.76089449,0.07135134,-0.02275279,0.21513634,0.13191601,0.02847515,0.98398804,0.11642542
1755649444194,-1.94219223,-1.46874600,6.02324217,-0.00138627,-0.03306775,0.27816824,0.13191536,0.02846780,0.98381278,0.11789971
1755649444206,1.36485061,1.36259519,-3.86697614,-0.09627840,-0.03564582,0.31106142,0.13195218,0.02789495,0.98360068,0.11975053
1755649444217,1.22042836,-0.58295998,5.35409833,-0.17261436,-0.05443096,0.36432880,0.13251953,0.02698872,0.98331492,0.12166325
1755649444228,-1.28288861,1.71088213,-0.93405282,-0.16294545,-0.02772304,0.28977409,0.13235587,0.02608438,0.98316106,0.12327150
1755649444239,-0.35144096,1.48929801,0.63006998,-0.05021495,-0.03232614,0.27313101,0.13232139,0.02579815,0.98297680,0.12482835
1755649444250,-0.21897908,-1.61889175,2.47827463,0.09104207,-0.00846883,0.06349017,0.13223968,0.02629433,0.98293064,0.12517437
1755649444263,1.07606660,0.98269751,-2.73580989,0.13764636,-0.01055482,0.07437295,0.13211527,0.02715462,0.98286468,0.12563920
1755649444273,-0.97095174,-1.81856137,6.75668680,0.12994644,0.00581589,-0.03862902,0.13194212,0.02782384,0.98289463,0.12544026
1755649444283,0.53207427,-0.51194653,2.17814023,0.08976999,0.01746048,-0.07792139,0.13155048,0.02829065,0.98298542,0.12503507
1755649444295,-0.03066643,1.42380847,-2.15809921,0.02680154,0.01617812,-0.00590059,0.13084642,0.02844610,0.98307926,0.12500085
1755649444308,0.48091571,0.37463655,-1.51558197,0.01994419,0.01631281,-0.02752122,0.13020072,0.02857374,0.98318366,0.12482471
1755649444318,-1.39386871,-1.13713734,9.26540640,0.05714327,0.02527954,-0.11485965,0.12972222,0.02886517,0.98331258,0.12423893
1755649444329,0.69546486,1.00412408,-3.23888524,0.09391904,0.01905802,-0.07237737,0.12917665,0.02939581,0.98342026,0.12382999
1755649444339,-2.14195035,-1.41533902,9.06733416,0.07105017,0.01309604,-0.07132346,0.12894755,0.02973685,0.98348312,0.12348764
1755649444351,1.36130110,0.14158806,-6.59391067,-0.02458233,0.00835249,-0.04602598,0.12886197,0.02958690,0.98353407,0.12320688
1755649444361,-1.75527746,-1.94480638,7.50144573,-0.05856082,0.02578328,-0.17127516,0.12875448,0.02927653,0.98367072,0.12229912
1755649444372,-0.47931162,0.80341005,0.56867154,-0.04546918,0.02500056,-0.19210188,0.12875976,0.02903100,0.98380573,0.12126177
1755649444384,0.88569533,-0.36455818,-2.04313665,0.00620381,0.01716197,-0.22113180,0.12919915,0.02906760,0.98390698,0.11995710
1755649444395,-0.06014372,-2.01878151,6.08740376,0.06581378,0.01275456,-0.20536602,0.12961838,0.02942299,0.98397586,0.11884812
1755649444405,-2.55400201,0.18902743,0.10688174,0.08767929,0.03632001,-0.19196583,0.12897792,0.02988769,0.98416835,0.11783070
1755649444418,2.61940804,0.15819208,-3.98298854,-0.00772699,-0.00281500,-0.00950235,0.12917106,0.02984094,0.98415132,0.11777321
1755649444428,-0.66919997,-2.25248952,5.49912464,-0.04449782,0.01147727,-0.04670873,0.12898372,0.02960066,0.98421330,0.11752098
1755649444439,-1.05064429,-0.39245857,2.40074264,-0.13097428,0.01372710,-0.04238818,0.12878665,0.02889339,0.98428743,0.11729209
1755649444451,0.67144660,1.27277248,-0.74279035,-0.15960944,0.00879866,0.01606871,0.12852050,0.02798362,0.98433758,0.11738368
1755649444461,-0.34081928,1.38073228,4.14959309,-0.03375960,-0.01078386,0.12863160,0.12836968,0.02780132,0.98427935,0.11807829
1755649444472,-1.21416869,-2.12172912,0.82273215,0.20514263,0.00260704,-0.12180164,0.12862011,0.02890909,0.98429342,0.11742056
1755649444484,1.24737425,-0.11377500,-1.65069718,0.26490676,-0.01488131,-0.10827753,0.12949490,0.03044555,0.98420711,0.11679255
1755649444495,0.00356985,-0.44405426,4.01401231,0.08167544,-0.00182910,-0.10220587,0.12997416,0.03089885,0.98419696,0.11622531
1755649444506,-0.23489397,2.11555257,0.79379026,0.01196902,-0.00994692,-0.00234379,0.13039106,0.03096587,0.98414126,0.11621218
1755649444517,0.80960461,0.01479957,2.31228066,0.02951597,0.01753004,-0.25725464,0.13087278,0.03112674,0.98423680,0.11481015
1755649444529,1.50664259,0.46008285,-4.71417450,0.20432343,0.01108382,-0.25591218,0.13141220,0.03235268,0.98430330,0.11327467
1755649444539,-1.76957734,0.76172949,12.88065311,0.25873579,0.01215442,-0.24303275,0.13167868,0.03367223,0.98436529,0.11203521
1755649444550,0.75273523,-2.29869716,-3.45994349,0.20386278,0.01171804,-0.20255192,0.13185131,0.03481386,0.98443091,0.11090092
1755649444587,1.75881284,1.85324076,-13.19865649,0.03495087,0.00306055,-0.02809000,0.13169223,0.03546045,0.98448753,0.11038125
1755649444607,-7.85437117,-5.74446848,57.42165801,0.32972185,-0.02653365,-0.07798010,0.13331288,0.03860930,0.98423413,0.10963654
1755649444628,3.03776132,2.85210084,-22.35946859,0.09820656,-0.03060771,0.01984589,0.13526883,0.03967975,0.98390051,0.10985286
1755649444640,-4.92772696,4.45183874,72.42160334,-0.03707346,-0.08887272,0.34651561,0.13734297,0.03947214,0.98340282,0.11179335
1755649444651,4.10162064,4.07881275,-45.68422327,0.09790013,-0.07218378,0.32527743,0.13857775,0.04002038,0.98299859,0.11361490
1755649444664,0.65331934,2.27243764,-15.86466395,0.10992343,-0.06558286,0.38138322,0.13933046,0.04072938,0.98257558,0.11607482
1755649444685,2.76870987,-1.23644573,-20.34840767,0.12839489,-0.01680463,0.03643533,0.13985630,0.04208395,0.98239829,0.11645922
1755649444695,-6.23835778,3.28707315,46.31286962,0.38741605,-0.00351625,-0.17908243,0.14013357,0.04407914,0.98238018,0.11553694
1755649444706,1.31566152,1.20314439,-6.62861046,0.31986946,-0.03023331,-0.01296349,0.14080370,0.04587041,0.98221088,0.11546435
1755649444718,0.39336168,2.49154015,-5.00530930,0.19867400,-0.04626287,0.24737523,0.14110834,0.04701279,0.98194487,0.11688675
1755649444729,0.40764114,-0.41973526,-0.57664748,0.11829913,-0.01449994,0.06563593,0.14114583,0.04766935,0.98186439,0.11725103
1755649444740,-0.01848263,2.86008095,-2.29722162,0.07219502,-0.04524148,0.26954225,0.14151791,0.04808447,0.98160425,0.11880090
1755649444742,-436.19262103,475.01480252,3610.66716251,0.43515734,-0.21097690,0.34185897,0.14233759,0.04843259,0.98143547,0.11907439
1755649444763,35.08326413,-39.35044250,-293.47685511,0.04863911,-0.01649959,0.08391323,0.14261331,0.04893601,0.98126470,0.11994289
1755649444764,-760.83080891,752.82337819,5800.80792723,0.96271523,-0.39332509,0.82475582,0.14370007,0.04956177,0.98100904,0.12047898
1755649444775,84.14965763,-86.29929597,-658.52487679,0.16268818,-0.03221375,0.06820928,0.14427141,0.05044029,0.98083509,0.12084731
1755649444784,-0.35212405,-1.42338312,4.50875048,0.12335261,-0.03823370,-0.04074699,0.14548189,0.05103855,0.98064965,0.12064969
1755649444796,1.85215286,-2.62793677,-19.87022004,-0.01100377,-0.01938509,-0.02252918,0.14634487,0.05097638,0.98054013,0.12052240
1755649444807,1.22037511,0.19742512,-1.27594243,-0.11986746,-0.01063301,-0.03497990,0.14715622,0.05028714,0.98047899,0.12032126
1755649444819,-3.53358102,3.35596752,13.24294739,-0.33037261,0.00194458,-0.13397541,0.14836199,0.04835446,0.98049036,0.11953751
1755649444829,-2.24939823,2.30984067,11.52200978,-0.34160286,0.00565998,-0.25851951,0.14979214,0.04659521,0.98051951,0.11820613
1755649444840,-1.89160208,-1.51601526,-2.89125634,-0.26383097,0.04441914,-0.53499183,0.15087611,0.04521009,0.98075271,0.11539743
1755649444851,1.49664661,-1.42725382,-10.88055605,-0.05982471,0.01336319,-0.36893818,0.15209242,0.04486311,0.98083022,0.11325758
1755649444863,-0.34557562,-0.69741048,-5.35009675,0.02554940,-0.00229533,-0.26914556,0.15327409,0.04501002,0.98081702,0.11171000
1755649444874,-0.52851523,0.11993980,1.15282364,0.08462174,-0.02278067,-0.26284741,0.15500643,0.04548390,0.98068945,0.11023805
1755649444884,-3.78858559,-0.49754511,6.69544567,0.09739119,-0.05840463,-0.22016505,0.15756699,0.04599033,0.98038574,0.10909319
1755649444896,2.08087221,-2.41581905,-8.84381576,-0.03917401,-0.03577144,-0.19551517,0.15970880,0.04576117,0.98017648,0.10794943
1755649444907,-1.39502845,-0.54290800,2.86468071,-0.08513427,-0.03309705,-0.17924740,0.16162851,0.04528867,0.97999279,0.10695461
1755649444918,-1.67217855,2.27491727,0.59520326,-0.08998594,-0.06922369,0.09469314,0.16371549,0.04479375,0.97961206,0.10747542
1755649444929,-1.52412258,2.08010891,-0.46019213,-0.08854836,-0.09141317,0.34597429,0.16560152,0.04430231,0.97910472,0.10939558
1755649444940,0.07988114,-1.14238907,0.48999092,-0.05696407,-0.06973050,0.23454597,0.16708824,0.04398900,0.97872120,0.11068558
1755649444952,-1.04135930,-0.76146481,-3.20816718,0.03952859,-0.06635536,0.18840303,0.16852280,0.04421432,0.97834298,0.11175948
1755649444964,2.75081166,-1.51664667,-5.89837860,-0.01513044,-0.06027281,0.07326701,0.17041912,0.04411975,0.97796627,0.11221740
1755649444976,-0.55074408,-0.26841935,4.99489758,-0.05265268,-0.06937536,0.07859696,0.17249311,0.04381436,0.97756389,0.11267326
1755649444986,-4.83332009,1.48033274,12.62327720,-0.12307116,-0.05536011,0.06932649,0.17398358,0.04319901,0.97728709,0.11301989
1755649444997,1.34794688,-0.91740976,-8.12348967,-0.07108594,-0.02674122,-0.00043537,0.17492213,0.04280093,0.97713734,0.11301745
1755649445008,-1.39829069,-0.98005052,2.59323958,-0.06340415,-0.01865967,-0.08122417,0.17585734,0.04245538,0.97703565,0.11257478
1755649445018,-0.84477423,0.04357293,2.00349180,-0.10594755,-0.02744687,-0.06928698,0.17701990,0.04189915,0.97689155,0.11221102
1755649445029,-0.93283507,0.13385759,-2.09738346,-0.14534688,-0.01947017,-0.02666429,0.17785754,0.04112881,0.97678836,0.11206970
1755649445040,1.44866525,-0.87814697,-3.95055007,-0.04831469,-0.02604601,-0.04893171,0.17888115,0.04086067,0.97664380,0.11179813
1755649445052,2.36607141,-1.23287901,-5.03603681,-0.04257813,-0.03486002,-0.02521027,0.18020310,0.04059881,0.97642941,0.11164309
1755649445062,-6.82628125,-3.00766830,16.34240378,0.00925798,-0.02802365,-0.12615241,0.18134924,0.04064556,0.97628790,0.11100602
1755649445074,3.08804917,-1.51074442,-9.09791626,-0.08365321,-0.01399412,-0.08064896,0.18217098,0.04016456,0.97620743,0.11054229
1755649445094,6.30733669,0.10931954,-16.61862226,-0.04339624,-0.01097205,0.04302422,0.18258991,0.03973276,0.97609826,0.11097038
1755649445114,-4.48461455,-0.61885716,11.37862407,-0.03596670,-0.02081964,0.05226313,0.18344723,0.03937849,0.97589318,0.11148517
1755649445142,2.16701289,-0.54728555,-5.33634740,0.01594334,-0.00768297,0.01050607,0.18388294,0.03960250,0.97578524,0.11163278
1755649445153,-77.85436622,-14.12038853,178.98612316,0.04771982,0.00153179,0.24066490,0.18297927,0.03986257,0.97579359,0.11294440
1755649445163,54.53027399,6.92626232,-132.66674655,-0.06046618,0.00490517,0.06930879,0.18268843,0.03954815,0.97581909,0.11330481
1755649445175,9.14389046,0.58184700,-17.18559933,-0.03147774,0.00899486,0.00859957,0.18240638,0.03935770,0.97587351,0.11335684
1755649445187,1.77611766,-0.89379870,-5.55040865,0.02809124,0.03558369,-0.08087929,0.18156317,0.03951923,0.97607812,0.11289178
1755649445197,-0.46558941,0.01765368,-1.76113170,0.06261721,0.03505871,-0.05932551,0.18070135,0.03984484,0.97626042,0.11258329
1755649445207,-1.22118983,-0.43810736,2.61211183,0.02502014,0.02240656,-0.02030802,0.18010788,0.03997494,0.97637694,0.11247769
1755649445219,2.24920981,0.05171984,-5.53369358,0.00010076,0.02452927,-0.04724122,0.17952713,0.03997551,0.97651430,0.11221314
1755649445230,-3.07362304,-1.52565275,4.62696548,-0.00864278,0.02490216,-0.07476135,0.17902676,0.03992581,0.97665749,0.11178326
1755649445241,-6.86313149,-3.60950280,14.57393647,-0.08654868,0.03952447,-0.19009085,0.17859151,0.03944547,0.97687685,0.11072825
1755649445252,-2.76234702,-1.84520163,2.35464091,-0.11276947,0.04346731,-0.22526828,0.17819052,0.03883651,0.97711157,0.10951181
1755649445275,12.06802243,4.92396178,-24.85950297,-0.08043158,0.01519931,-0.06378158,0.17788700,0.03793166,0.97728257,0.10879426
1755649445276,-2800.47207870,-986.46659747,5708.00982835,-1.08458759,0.34464738,-0.61133628,0.17685036,0.03706399,0.97755828,0.10830519
1755649445287,401.19383546,141.85614174,-819.44224409,0.03952966,0.03292907,-0.08942179,0.17611604,0.03727745,0.97773610,0.10782232
1755649445299,4.35557260,2.45010802,-9.92656074,0.00296468,0.03507877,-0.04894322,0.17515369,0.03729464,0.97793956,0.10753845
1755649445309,-8.48061257,-1.22054509,16.02097232,-0.05222271,0.03480269,-0.02586300,0.17423904,0.03701003,0.97812923,0.10739749
1755649445320,-10.19250437,-2.88162635,18.28969526,-0.13290547,0.05703212,-0.18496550,0.17324385,0.03627240,0.97844576,0.10637093
1755649445332,-0.73532229,1.51660224,2.49235556,-0.14604405,0.05792612,-0.20138068,0.17227558,0.03546186,0.97876725,0.10525327
1755649445342,-0.60981466,0.81737523,2.23753547,-0.20480797,0.06657434,-0.24896641,0.17132654,0.03441734,0.97910678,0.10398354
1755649445353,1.89556072,5.75795205,-5.11157132,-0.25727169,0.03636199,0.06235200,0.17024018,0.03298948,0.97930859,0.10432960
1755649445364,-3.85519829,5.05080474,5.13764947,-0.14500740,0.01174116,0.40812538,0.16865310,0.03220644,0.97937199,0.10653347
1755649445375,-0.00204338,5.58298664,-2.45088753,0.01221079,-0.01026061,0.67008417,0.16658704,0.03227360,0.97931556,0.11021894
1755649445387,3.76690272,0.59097186,-6.98774215,0.10463069,0.00344554,0.34009768,0.16499953,0.03289092,0.97933589,0.11222551
1755649445399,2.73614401,0.87289079,-3.42391945,0.15688333,-0.01529867,0.27952120,0.16418259,0.03385575,0.97924180,0.11394457
1755649445409,-6.79647533,6.37607214,14.93092696,-0.01382433,-0.02790465,0.42994142,0.16347418,0.03378179,0.97909251,0.11624475
1755649445420,-1.29206415,9.16987911,3.17212901,-0.26684155,-0.03148997,0.68555973,0.16216968,0.03240756,0.97893034,0.11977539
1755649445471,8.88995346,-3.76936754,-17.03772416,-0.05286590,0.00585028,-0.00394859,0.16160623,0.03105948,0.97907952,0.11967470
1755649445480,-251.10848670,124.66849821,569.67944426,0.58084084,0.40661698,-2.87490025,0.15892287,0.03376039,0.98097029,0.10630641
1755649445510,72.65250625,-35.33379574,-161.42752089,-0.00624707,0.04407550,-0.20693591,0.15692810,0.03366824,0.98162040,0.10325411
1755649445531,-1.19490915,2.29311369,7.34766602,-0.05385994,0.05659483,0.02703177,0.15292988,0.03307848,0.98224011,0.10355010
1755649445569,5.44001145,-3.70515565,-14.54602943,-0.00284397,0.02972593,-0.04014536,0.14983711,0.03302515,0.98279748,0.10279738
1755649445587,-20.59925029,10.98003967,65.75059792,0.14941608,0.13587546,-0.34936987,0.14364374,0.03434001,0.98399318,0.09972292
1755649445597,-6.25230564,0.05396485,29.36932664,0.38742481,0.10918338,-0.27664276,0.14003956,0.03645148,0.98458823,0.09821522
1755649445620,12.76058210,-7.68704233,-42.43727332,0.20647015,0.03718162,-0.03578513,0.13679166,0.03872265,0.98499723,0.09782158
1755649445631,-4.29455643,-2.57310311,20.26239377,0.23501429,0.03144097,0.02326914,0.13500878,0.04006223,0.98517644,0.09795422
1755649445654,8.04176548,-2.22462550,-27.79623808,0.10373901,0.00728968,0.11184952,0.13310162,0.04124486,0.98525954,0.09922930
1755649445664,-19.27522380,-1.58613292,77.16178653,0.25192351,0.02292129,0.24972651,0.13072342,0.04260524,0.98538332,0.10057783
1755649445676,8.56808566,-2.79118692,-33.64202752,0.19413498,0.02790524,0.10520009,0.12864406,0.04373123,0.98554517,0.10118799
1755649445687,-1.10945393,-1.72350734,3.46723357,0.13357694,0.01895403,0.17786536,0.12690841,0.04442583,0.98564373,0.10211289
1755649445698,2.53762780,-0.61285366,-8.76783498,0.13845358,0.01913939,0.13134843,0.12511946,0.04523578,0.98575569,0.10288128
1755649445709,-2.06841554,-1.14880488,8.84081247,0.14329831,0.02965195,0.15124650,0.12292335,0.04599526,0.98591285,0.10368288
1755649445720,0.99034843,0.01009973,-2.73405536,0.19280770,0.01859231,0.17740346,0.12083852,0.04706534,0.98601604,0.10466747
1755649445731,0.75895708,-1.00390467,-1.48010435,0.17091958,0.01674798,0.09843196,0.11916272,0.04804813,0.98611234,0.10523345
1755649445742,-1.01509550,-0.96596709,7.24779256,0.12425783,0.01253243,0.10245557,0.11783293,0.04871912,0.98618001,0.10578671
1755649445753,1.35464857,-1.26902223,-2.09921615,0.11270761,0.02750097,-0.04241827,0.11649870,0.04934465,0.98633264,0.10555129
1755649445765,0.71840520,0.48536254,-0.38714283,0.06638933,0.02279330,-0.04720036,0.11548573,0.04971975,0.98646143,0.10528461
1755649445789,4.75270054,2.06076670,-21.40694715,0.03535011,0.01286296,-0.03916195,0.11441069,0.05014218,0.98661514,0.10481663
1755649445798,-33.80560640,-21.90381289,156.81659951,0.22493554,0.04472661,-0.15507282,0.11271323,0.05124437,0.98683430,0.10405677
1755649445809,21.79546681,10.81659694,-99.74429577,0.02789712,0.01946895,-0.05737655,0.11200753,0.05139501,0.98693943,0.10374694
1755649445820,1.60077667,-0.51516640,-3.69107844,0.08355471,0.01561748,-0.05999043,0.11132981,0.05186292,0.98702689,0.10341099
1755649445831,1.00336432,-0.21262737,3.80837408,-0.00175188,0.01256823,0.01254466,0.11067372,0.05185355,0.98709413,0.10347810
1755649445833,-608.84995671,-538.81167036,3350.89513935,0.10778218,0.11437003,0.14651739,0.10970330,0.05193977,0.98718562,0.10359532
1755649445843,92.30179221,80.65386113,-505.26660019,-0.02699740,0.02243156,0.00758874,0.10865809,0.05179669,0.98730451,0.10363554
1755649445854,-1.71120334,-2.92019151,6.77306362,-0.01006245,0.03078126,-0.02002429,0.10725475,0.05174185,0.98747227,0.10352641
1755649445876,4.56174012,4.64150515,-24.62466066,-0.00577830,0.01223220,0.00598034,0.10599875,0.05167944,0.98760438,0.10359099
1755649445877,-1036.56202604,-1146.50896771,6151.04757266,-0.83170737,0.10674514,1.39270717,0.10441889,0.05101408,0.98768977,0.10470516
1755649445887,159.72971920,175.36595468,-932.01041246,-0.07381671,0.01470620,0.03477891,0.10372619,0.05064499,0.98776330,0.10487905
1755649445899,0.40888530,0.56400597,-2.15075720,-0.02478274,0.01063703,0.02675992,0.10306120,0.05050373,0.98782394,0.10503158
1755649445909,-1.08815757,-2.29977604,2.79630739,0.02778996,0.03614140,-0.13544128,0.10189757,0.05064824,0.98801187,0.10432729
1755649445921,0.64695348,1.86923515,1.59698750,0.03167835,0.00826089,0.06765256,0.10086762,0.05084464,0.98806309,0.10474674
1755649445933,-3.77525403,-1.06759519,13.36610988,0.04961284,0.02029323,-0.04140516,0.09982187,0.05112992,0.98817977,0.10450866
1755649445943,-1.11662823,-0.59361043,20.29170161,0.09993055,-0.00786251,-0.04907200,0.10020968,0.05162957,0.98814046,0.10426330
1755649445954,2.02561146,4.46834276,-16.19912276,0.09712728,-0.00896520,-0.10633464,0.10105938,0.05218805,0.98808891,0.10365187
1755649445966,0.53225630,0.78961689,-4.70001702,0.23373889,-0.01188801,-0.20551045,0.10220324,0.05350868,0.98802174,0.10249074
1755649445988,3.86616204,3.21490433,-25.23400762,0.09882566,-0.00769061,-0.10858595,0.10361426,0.05458588,0.98793792,0.10130715
1755649446000,-11.72707934,-5.77202018,86.05593060,0.00624034,-0.03101072,0.00825315,0.10537610,0.05462488,0.98774410,0.10135873
1755649446010,5.25985492,21.84846169,-19.63744039,-0.32493978,-0.13274099,1.29632906,0.10597713,0.05304892,0.98710031,0.10764593
1755649446021,2.73184795,0.09688189,-41.67632238,-0.20677126,-0.03746343,0.50194511,0.10562584,0.05193236,0.98689800,0.11035643
1755649446023,-326.03078419,90.59574869,2224.32834134,0.19560080,0.09937637,-0.86388731,0.10549991,0.05212796,0.98699738,0.10949255
1755649446033,59.64441939,-16.00834259,-419.04340345,0.37343608,-0.01405421,0.03395999,0.10500737,0.05412584,0.98692219,0.10967423
1755649446044,-1.34777967,6.20615379,12.78344367,0.32974840,-0.05211651,0.32429536,0.10487988,0.05585702,0.98664858,0.11137678
1755649446054,0.89417803,2.97326821,-4.95772467,0.24399250,-0.04323178,0.27837127,0.10476511,0.05711358,0.98642593,0.11281039
1755649446066,-0.61376067,-2.41599342,-1.91464650,0.23836692,0.00105133,-0.14500648,0.10484948,0.05854378,0.98643224,0.11194036
1755649446111,2.69683791,-2.55235183,-16.47896237,0.07295404,0.00536476,-0.11431169,0.10549682,0.06018525,0.98655295,0.10936834
1755649446121,-106.43285459,73.26522394,502.98372908,-0.49042438,0.01988204,-1.38163359,0.11236427,0.05783121,0.98664838,0.10273650
1755649446143,36.17224870,-25.44582994,-182.89754421,-0.26247316,-0.04122919,0.19435305,0.11584280,0.05487839,0.98618456,0.10492297
1755649446165,-0.90566614,-0.92233167,0.05882997,-0.10794346,-0.05035644,0.12063447,0.11985298,0.05368561,0.98562812,0.10625598
1755649446177,-3.42528175,-0.08992577,10.69091264,-0.11076487,-0.03093463,-0.02718979,0.12180370,0.05302102,0.98544251,0.10609285
1755649446188,1.18452989,3.56416766,0.46767978,-0.13395195,-0.05546539,0.20269341,0.12356818,0.05229768,0.98514300,0.10718739
1755649446200,2.80675572,-4.29670492,-17.49462885,0.00061801,-0.02267128,-0.04874283,0.12484212,0.05230124,0.98501264,0.10690712
1755649446210,1.45714462,-2.76245151,-5.69571491,0.12527348,-0.02150556,-0.23420904,0.12653822,0.05297771,0.98489651,0.10564239
1755649446221,0.39291265,-0.15288856,-2.45479185,0.07837889,-0.03734363,-0.06125355,0.12822503,0.05340880,0.98469112,0.10530549
1755649446232,-1.67694123,0.19425880,5.58030210,0.01305634,-0.04847814,0.01864234,0.13005719,0.05347734,0.98443661,0.10540337
1755649446244,1.48041854,-2.08752259,-4.63260545,-0.02170422,-0.04778345,0.03028515,0.13211677,0.05334712,0.98414990,0.10558508
1755649446256,-4.65247366,-0.13907750,10.38610935,-0.03274344,-0.05233555,0.03505939,0.13434758,0.05315066,0.98383589,0.10579543
1755649446266,-5.97294906,-1.60349505,20.29602136,-0.14782424,-0.06427543,-0.01091235,0.13703397,0.05240414,0.98351130,0.10574033
1755649446278,6.36315979,-2.05698888,-21.29353818,-0.11550278,-0.04908677,0.08575066,0.13891749,0.05174000,0.98322905,0.10623339
1755649446289,0.11177279,0.00180279,-0.93564645,-0.08199132,-0.05996351,0.18335693,0.14071039,0.05126855,0.98288426,0.10728770
1755649446300,-1.54774070,-1.74284131,5.82285514,-0.03089430,-0.06472169,0.15307782,0.14256698,0.05110172,0.98253476,0.10811432
1755649446312,2.23126178,-1.42888567,-9.33154290,-0.05251614,-0.04035824,0.04071438,0.14419334,0.05077875,0.98228656,0.10836471
1755649446323,-3.83170691,-2.52021823,12.80677025,-0.03481038,-0.02811322,-0.07180531,0.14556500,0.05059251,0.98213616,0.10798055
1755649446333,-0.32441944,-0.01208084,2.04399202,-0.13482306,-0.02559429,0.00374674,0.14669684,0.04988469,0.98200179,0.10800022
1755649446367,6.83312007,0.24257680,-21.51693042,-0.02765484,-0.00515729,-0.00025068,0.14743530,0.04942009,0.98191514,0.10799601
1755649446378,-76.01976609,-11.34705652,217.60015057,0.28446052,-0.11079057,0.15484809,0.15043391,0.05105574,0.98127810,0.10888639
1755649446390,51.60632631,4.45469084,-150.57200343,0.09192603,-0.04830623,0.10107980,0.15162812,0.05157972,0.98100275,0.10946254
1755649446400,-0.85027213,-1.27155899,3.97388899,0.04996190,-0.03245094,0.07469437,0.15232785,0.05183203,0.98083887,0.10983975
1755649446411,4.62841455,0.75632203,-17.68997185,0.06344704,-0.00810707,0.00092472,0.15249205,0.05218098,0.98079429,0.10984483
1755649446422,2.58654219,0.23084796,-7.51115358,0.01570017,0.00097699,-0.07819274,0.15273025,0.05226498,0.98079951,0.10942650
1755649446433,0.13874984,-1.49691456,-0.27424256,0.05320001,0.00062326,-0.12829647,0.15314225,0.05258152,0.98080322,0.10866314
1755649446456,6.87050883,2.20848727,-19.57068387,0.01583357,0.00119516,-0.04627362,0.15336711,0.05276281,0.98081691,0.10813331
1755649446467,-48.82580773,-16.92449475,124.36337452,-0.13150632,-0.00742609,-0.07468114,0.15411207,0.05208556,0.98077866,0.10774870
1755649446477,27.71829101,7.83499262,-73.85912606,-0.00666421,0.01719996,-0.26980769,0.15453640,0.05205024,0.98086982,0.10631872
1755649446488,1.27633550,1.88413560,-6.59407754,0.09043759,0.01928626,-0.22658823,0.15454716,0.05255217,0.98097686,0.10506115
1755649446501,3.07819449,1.75955519,-9.04125913,0.18160358,0.00304453,-0.22881606,0.15500823,0.05370535,0.98099619,0.10360817
1755649446524,4.81563212,1.84874004,-11.45749383,0.08785180,-0.01389644,-0.06630823,0.15613961,0.05468929,0.98084055,0.10286552
1755649446534,-63.54250567,-17.98852181,139.26286274,-0.02057781,-0.07451678,-0.15629736,0.15917230,0.05458023,0.98044561,0.10203714
1755649446545,27.35619907,7.47205054,-60.89477443,-0.10458021,-0.02626963,-0.17232010,0.16085424,0.05400503,0.98030113,0.10108938
1755649446556,3.09551382,2.06165548,-9.46723762,-0.08531320,0.01124126,-0.22854918,0.16141329,0.05354008,0.98036240,0.09984379
1755649446567,1.28788419,0.58641707,-2.46371782,0.00279372,0.04520385,-0.41687148,0.16130341,0.05355502,0.98060424,0.09761353
1755649446577,0.41774836,4.41644568,-3.16607443,0.04537808,0.06074025,-0.52190598,0.16092352,0.05379099,0.98092009,0.09489961
1755649446588,4.80785539,2.65721902,-9.74071761,0.08506024,0.03530082,-0.53614513,0.16129438,0.05425882,0.98111424,0.09195082
1755649446601,2.85786767,3.91054968,-5.22021644,0.01557340,0.00526341,-0.23932350,0.16191577,0.05435771,0.98114766,0.09043111
1755649446612,-9.25664276,6.85731492,17.83593012,-0.08692497,-0.02417472,0.27117477,0.16204023,0.05388397,0.98101591,0.09190901
1755649446623,-0.11903756,3.94742821,-1.60958300,-0.02599295,-0.02336884,0.32336244,0.16184715,0.05374101,0.98088738,0.09368751
1755649446633,3.36645391,1.79464697,-3.79969613,0.09234246,-0.03135594,0.17168132,0.16216435,0.05423504,0.98071963,0.09460600
1755649446677,9.15913467,-2.03945948,-19.07473372,0.03422928,-0.01018655,0.06718466,0.16239315,0.05497611,0.98049909,0.09606055
1755649446687,-186.89390274,67.52377147,435.40941522,0.03817850,0.15385397,-1.97722839,0.16321606,0.05516318,0.98125297,0.08637213
1755649446725,44.82039503,-14.83681581,-103.22573742,-0.06193862,0.01224862,-0.22649554,0.16444142,0.05397086,0.98148876,0.08201209
1755649446734,-74.16133757,47.00014484,203.74514278,0.15604136,-0.11192242,-0.20543177,0.16757173,0.05465744,0.98099630,0.08110819
1755649446756,24.42034067,-15.29372097,-63.97563826,0.19694432,-0.05412441,0.15129923,0.16953638,0.05685337,0.98039281,0.08279518
1755649446766,-10.16992614,3.34336776,40.94218792,0.08602273,-0.01528372,-0.04055967,0.16994378,0.05729639,0.98031410,0.08258630
1755649446789,9.05970557,-3.31432270,-25.15756446,-0.01885960,0.03214967,-0.04561258,0.16818363,0.05708611,0.98067257,0.08207772
1755649446800,-3.88535407,2.07073381,13.76922108,0.07318447,0.05584306,-0.20268672,0.16673884,0.05750326,0.98099088,0.08092240
1755649446811,1.31010748,-1.28324558,-0.93872318,0.12274646,0.06811666,-0.31992170,0.16515178,0.05817223,0.98136211,0.07917883
1755649446823,1.83338918,-1.75400317,-5.79168658,0.19440344,0.05311383,-0.28671855,0.16363916,0.05934837,0.98168345,0.07744418
1755649446835,0.14410464,-0.26234923,2.39514484,0.23005766,0.03707465,-0.18920498,0.16237039,0.06068270,0.98189848,0.07634679
1755649446847,1.00957056,-2.36097652,-3.45386624,0.21918712,0.01560071,-0.15304779,0.16171932,0.06203070,0.98199443,0.07540555
1755649446857,-5.56380894,-2.35564430,21.30556928,0.17135888,0.01911648,-0.17905738,0.16121717,0.06289606,0.98209097,0.07450131
1755649446867,1.20723563,-2.99636124,-2.34731855,0.06802798,0.02202729,-0.11492641,0.16066048,0.06324641,0.98220441,0.07390944
1755649446873,-35.25946303,2.06941094,156.06700326,-0.03060703,0.02770120,-0.03637548,0.16026633,0.06316071,0.98228197,0.07380759
1755649446891,18.12726461,-2.79278565,-72.59094841,-0.04668345,0.01605998,0.00922674,0.15948836,0.06273122,0.98242972,0.07389247
1755649446924,1.75772825,-0.35357408,-7.56108427,0.01683714,0.00990248,0.03624158,0.15810931,0.06300482,0.98259064,0.07448140
1755649446936,-38.63317152,-7.84580432,175.01922658,0.27886443,0.12081435,0.15538273,0.15208869,0.06476167,0.98335177,0.07546031
1755649446958,19.98739096,2.41487992,-88.74693033,-0.02767424,0.03105315,0.08814498,0.14951479,0.06445864,0.98369180,0.07642550
1755649446972,-13.23918264,-6.41913588,63.08231554,0.06454464,0.05362702,0.18132991,0.14620577,0.06490400,0.98406183,0.07767667
1755649446991,8.32169290,2.61239797,-38.88433131,0.10292214,0.01380009,0.08168776,0.14451682,0.06585088,0.98418879,0.07842820
1755649447001,-20.09457579,-11.94609212,107.14494670,0.24284834,-0.00548155,0.37519303,0.14302189,0.06713797,0.98415973,0.08041672
1755649447012,12.97805774,5.17613029,-63.89499594,0.04039786,-0.01216498,0.26635253,0.14256782,0.06735006,0.98409587,0.08181508
1755649447022,2.45008428,0.27411167,-8.16003374,-0.00693683,-0.00300846,0.14394792,0.14226099,0.06731399,0.98408022,0.08256360
1755649447034,4.16622339,2.28047354,-18.47880930,-0.00378227,-0.00199441,0.08442502,0.14206791,0.06729224,0.98406876,0.08304905
1755649447045,0.30382472,-0.39596338,-2.31791865,0.04795239,0.00611234,0.05523916,0.14149666,0.06757277,0.98410451,0.08337220
1755649447056,-3.32838020,-3.47028871,11.29205870,0.02358984,0.01864577,0.01715469,0.14068608,0.06769897,0.98420427,0.08346398
1755649447067,-0.12229944,-0.59845920,5.51337042,0.00229446,0.01485814,0.07267038,0.13988315,0.06771136,0.98428450,0.08385640
1755649447078,-0.19027702,-2.93324374,6.88263573,-0.01327647,0.03205863,-0.10841143,0.13901569,0.06763701,0.98446403,0.08324929
1755649447089,5.33191265,1.79380586,-10.54582700,-0.03708928,0.05219472,-0.21260387,0.13773706,0.06742746,0.98475893,0.08204808
1755649447101,0.94049642,0.78946914,-1.72726138,-0.11977487,0.04478773,-0.12634940,0.13665765,0.06673875,0.98501646,0.08132157
1755649447111,-0.38993352,-0.92228489,10.80761631,-0.15658377,0.03962579,-0.11715489,0.13592670,0.06592452,0.98522251,0.08071236
1755649447123,1.56138147,2.02393592,-7.64761870,-0.07964188,0.02365568,-0.07939221,0.13543580,0.06547056,0.98535735,0.08025983
1755649447134,0.29782428,1.59463904,-1.59925514,-0.01499068,0.01594306,-0.04688660,0.13496507,0.06538361,0.98544982,0.07998789
1755649447147,0.37331769,0.70574528,-5.36215097,0.07436319,0.00466605,-0.11956429,0.13496699,0.06584466,0.98547875,0.07924659
1755649447157,-3.38308133,-4.24182683,18.51977483,0.07485849,0.00702598,-0.21767402,0.13517136,0.06623767,0.98551564,0.07810380
1755649447167,-3.35672026,-0.30147756,6.70956744,0.07354723,-0.00143921,-0.11063682,0.13536338,0.06660909,0.98550837,0.07754508
1755649447179,2.55689321,4.07352303,-18.07023666,-0.01817225,-0.00355861,-0.01503354,0.13562816,0.06649823,0.98548666,0.07745338
1755649447190,1.19008453,-0.34032845,9.44748025,-0.02650728,-0.02949750,-0.06387883,0.13705776,0.06635377,0.98532590,0.07710524
1755649447200,0.91954328,1.26747829,8.96791215,-0.11521375,-0.04097411,0.03102918,0.13874362,0.06576618,0.98511693,0.07726349
1755649447236,2.42194336,3.26443520,-23.55417163,-0.03529127,-0.02476894,0.19968352,0.14013026,0.06514152,0.98467852,0.08079789
1755649447245,-39.61538910,6.42410469,371.61060649,0.39066345,-0.16504477,1.14029104,0.14151388,0.06697764,0.98390281,0.08615725
1755649447256,22.82874109,5.37197205,-239.51945798,0.27243552,-0.09494095,0.57265000,0.14246223,0.06846242,0.98338538,0.08927820
1755649447267,0.00822507,0.32749338,-14.92790623,0.01126104,-0.02001412,0.24245356,0.14235030,0.06852435,0.98327531,0.09061169
1755649447280,3.18894374,-4.83581773,-20.12773725,0.12190980,-0.00222092,-0.27218833,0.14316035,0.06929848,0.98326120,0.08888330
1755649447290,-2.99472648,2.95308120,31.64071559,0.18588038,-0.01913306,-0.32160438,0.14432543,0.07020929,0.98316745,0.08730743
1755649447301,0.68315090,0.05023168,-17.74183081,0.04058828,-0.01524128,-0.14720936,0.14528920,0.07043659,0.98308210,0.08648306
1755649447312,-2.36825512,1.06120781,13.10163536,0.00065430,-0.03095759,-0.11524835,0.14676628,0.07044009,0.98291648,0.08586648
1755649447323,0.54024513,-1.75924099,-11.71089158,-0.08615924,-0.04044296,-0.00039172,0.14856632,0.06994036,0.98268191,0.08586421
1755649447334,-1.76138716,0.98516590,-0.67613619,-0.17097944,-0.06912304,0.28500698,0.15061035,0.06899143,0.98229828,0.08744600
1755649447346,0.24464020,0.35612651,-3.35009311,-0.19976919,-0.07778349,0.42937279,0.15256512,0.06785274,0.98185491,0.08989343
1755649447357,-3.13255446,2.02549721,0.13555596,-0.29555388,-0.07438530,0.55697397,0.15408191,0.06621242,0.98144207,0.09298463
1755649447368,-0.66962138,1.46921980,1.57789999,-0.23680076,-0.06712626,0.43165244,0.15550370,0.06493370,0.98107959,0.09531555
1755649447379,1.43528948,-0.55033460,-7.02274415,-0.11714276,-0.05473851,0.27320518,0.15681491,0.06424841,0.98075937,0.09691380
1755649447390,-0.03445815,2.39057906,6.19040058,-0.07829743,-0.05243661,0.20639847,0.15804909,0.06382952,0.98047883,0.09801804
1755649447402,1.61310456,1.68142525,-7.49110667,-0.13588078,-0.03823542,0.26001911,0.15881580,0.06302103,0.98025133,0.09956515
1755649447412,-3.45410341,2.16180190,10.97220451,0.00943319,-0.03205165,0.05610447,0.15962385,0.06306914,0.98008787,0.09985128
1755649447425,3.39313155,-4.31321221,-16.82447988,0.04975098,-0.01254347,-0.16885216,0.16068369,0.06339501,0.98000571,0.09874530
1755649447436,-3.73407427,2.83071015,15.17753270,0.06384732,-0.01862459,-0.21036320,0.16179685,0.06372382,0.97990979,0.09766193
1755649447446,-0.85037289,-1.27673106,-1.60722297,-0.06400925,-0.00450086,-0.29539080,0.16298486,0.06339097,0.97988639,0.09612590
1755649447457,1.46058281,-1.12997792,-4.27063303,-0.12437689,-0.03179576,-0.17115451,0.16487616,0.06269446,0.97970833,0.09516743
1755649447468,0.03856295,-0.60989335,-0.13535044,-0.18881139,-0.03448744,-0.15788167,0.16689956,0.06164656,0.97951693,0.09429119
1755649447480,0.74953435,-2.23915327,-4.21232376,-0.11496270,-0.04582787,-0.12269570,0.16910915,0.06097403,0.97924883,0.09357342
1755649447491,-3.04439308,-0.69139894,2.75264577,-0.08655851,-0.05963913,-0.05927830,0.17136472,0.06049363,0.97891784,0.09324443
1755649447501,-2.09793336,-1.35903012,5.65592876,-0.12169736,-0.05277368,-0.02009693,0.17316625,0.05987297,0.97864869,0.09314193
1755649447512,2.27227110,-2.70884026,-6.67959488,-0.10006498,-0.04424640,-0.01370437,0.17477841,0.05931761,0.97840312,0.09306587
1755649447524,3.51551841,-1.13455794,-5.11435889,-0.11620108,-0.04002670,0.06292337,0.17616244,0.05861459,0.97816096,0.09344656
1755649447536,-1.17839693,-1.47597225,3.32481598,-0.10764471,-0.03185848,0.08279217,0.17712854,0.05799564,0.97797777,0.09392261
1755649447546,-1.83871191,-1.10084367,6.52105254,-0.10521511,-0.01980912,0.00540180,0.17786614,0.05744326,0.97787378,0.09395097
1755649447557,1.07075089,-1.78650145,-4.78888320,-0.01214820,-0.00457531,-0.02997832,0.17811514,0.05737583,0.97784838,0.09378459
1755649447618,2.66208971,0.15745607,-9.84539979,0.01079696,-0.00024020,0.00686326,0.17793999,0.05770244,0.97784112,0.09399221
1755649447636,-34.68324094,-7.57421851,129.75241862,0.50787945,-0.03123229,0.30311588,0.17650136,0.06219718,0.97756471,0.09667478
1755649447679,10.83104109,1.47074964,-42.04171004,0.03905160,0.00688853,0.06942060,0.17454395,0.06303874,0.97771316,0.09817080
1755649447715,-1.65370148,-0.78105399,2.05709956,0.07238121,-0.02222203,0.13434932,0.17493236,0.06434522,0.97731205,0.10059580
1755649447737,-7.43084563,-4.43557806,14.10672213,-0.35756199,-0.03423616,0.39841645,0.17587212,0.06035840,0.97693032,0.10503814
1755649447760,4.45058961,3.81624010,-12.09279364,-0.30783010,0.01594860,0.02519162,0.17586051,0.05691071,0.97710894,0.10532029
1755649447780,0.38831046,2.20943154,-1.96447199,-0.13745678,0.01116346,0.02707824,0.17550647,0.05549490,0.97722393,0.10559920
1755649447803,0.92164859,-0.11668670,-3.25518570,-0.03161678,0.02183708,-0.02777690,0.17441109,0.05513131,0.97747505,0.10527976
1755649447813,-14.61954941,-2.39218373,31.78328664,-0.04814114,0.06186234,-0.27509634,0.17359294,0.05489542,0.97777818,0.10393179
1755649447825,7.97688556,2.34239665,-20.21198911,0.05121651,0.04807928,-0.17371448,0.17248776,0.05520271,0.97806665,0.10288950
1755649447836,2.70449884,0.08615522,-4.57959602,-0.03606423,0.06597667,-0.35910665,0.17162728,0.05499715,0.97844272,0.10084260
1755649447847,0.94634671,2.68332664,-0.79533188,-0.09238230,0.04149906,-0.22192415,0.17122387,0.05451676,0.97865852,0.09968859
1755649447858,2.15612293,1.57990062,-4.99126886,-0.08028405,0.03464062,-0.10944958,0.17059026,0.05405111,0.97885943,0.09905378
1755649447869,-2.62335405,-0.22739888,3.79980710,0.00683445,0.03242379,-0.10669805,0.16991237,0.05408768,0.97903290,0.09848295
1755649447892,5.51700275,1.40970703,-12.03370595,0.04981836,-0.00421917,0.14053902,0.16907325,0.05465312,0.97898501,0.10007807
1755649447893,-2377.72900044,167.01414021,4943.24641663,1.30725827,0.18108380,2.36042774,0.16689584,0.05563356,0.97912083,0.10184839
1755649447904,330.86544192,-24.66153199,-687.63686118,0.07465888,0.03460528,-0.01419185,0.16575129,0.05602179,0.97930077,0.10177459
1755649447914,3.41891416,4.47908375,-6.62074549,-0.06515278,0.01467909,0.21959790,0.16471619,0.05568625,0.97937637,0.10290552
1755649447925,-0.35052440,0.69819011,1.39657615,-0.10562834,0.01494701,0.14517593,0.16389091,0.05508417,0.97946157,0.10373302
1755649447937,-2.69312461,-0.13117058,5.44862404,-0.04000780,0.01121708,-0.02267258,0.16366687,0.05485612,0.97952551,0.10360379
1755649447959,5.35523147,-0.84809148,-11.54233532,-0.00565403,0.00086731,-0.03505907,0.16387415,0.05479393,0.97953505,0.10321814
1755649447960,-2180.14042787,314.66977765,4243.90850645,-0.93297436,-0.28181593,-1.70869145,0.16615615,0.05409420,0.97932368,0.10193662
1755649447970,318.88643901,-47.66722520,-624.05586243,-0.20176188,-0.03406607,-0.06077945,0.16766467,0.05308539,0.97915335,0.10163272
1755649447981,3.35417203,-0.13867338,-3.30312012,-0.23666104,-0.04881267,0.00812295,0.16949632,0.05185475,0.97889953,0.10167496
1755649447991,-2.64297223,0.50093031,6.89950215,-0.27396586,-0.05444339,-0.00228658,0.17155559,0.05043013,0.97861642,0.10166307
1755649448003,-0.69510585,-0.17973938,2.30393514,-0.31974576,-0.05494215,-0.02674263,0.17398288,0.04857560,0.97829776,0.10150796
1755649448014,-3.01793775,-0.93419123,6.49223691,-0.22206329,-0.06698804,-0.06444835,0.17664808,0.04732095,0.97791928,0.10114383
1755649448027,2.58471734,-0.31824703,-5.09254658,-0.10357647,-0.05842763,-0.01027753,0.17886438,0.04667359,0.97755410,0.10107960
1755649448049,5.70134433,-0.18347311,-12.43248743,-0.00544063,-0.04475333,0.10870021,0.18088786,0.04661347,0.97705958,0.10228073
1755649448060,-23.68187820,5.64438999,51.73356334,-0.22709903,-0.19906522,0.75474262,0.18481580,0.04531901,0.97592491,0.10658277
1755649448071,14.57110010,-4.16169605,-32.51833362,-0.08370467,-0.11065809,0.35983862,0.18693752,0.04486700,0.97532735,0.10852589
1755649448083,4.54567305,0.25944290,-7.51877077,-0.08181274,-0.09529236,0.24322653,0.18913374,0.04438431,0.97476513,0.10996093
1755649448092,-10.61181374,1.47358354,20.11468684,0.00200219,-0.12858824,0.26673767,0.19149757,0.04439372,0.97416076,0.11121460
1755649448104,6.75779263,-0.57791815,-17.13813148,-0.00262893,-0.08458382,0.21232018,0.19328394,0.04437834,0.97366595,0.11245667
1755649448114,-3.73367082,0.55706566,8.08583993,-0.01610669,-0.11411360,0.19907791,0.19562605,0.04429620,0.97308397,0.11347197
1755649448115,-1277.24199327,243.91916329,2465.67520960,-0.00908015,-0.82318395,0.93839832,0.19791999,0.04429029,0.97254890,0.11408193
1755649448125,163.39312645,-28.93553288,-316.11492114,-0.06006326,-0.15824056,0.20061829,0.20129737,0.04398697,0.97174978,0.11509505
1755649448137,3.59525269,-1.83544358,-9.11987448,-0.07440605,-0.12703884,0.05200256,0.20468573,0.04356286,0.97102566,0.11539146
1755649448148,0.52880140,-0.52479682,-2.40458377,-0.08188397,-0.12189484,-0.00304925,0.20803208,0.04310022,0.97033696,0.11537424
1755649448160,-5.08024945,1.49560222,6.14618845,-0.12481985,-0.16530522,-0.02455574,0.21271730,0.04237002,0.96936992,0.11523058
1755649448170,-4.19872791,0.44245476,4.27685859,-0.11562772,-0.21375051,-0.05839409,0.21799726,0.04176876,0.96825842,0.11492694
1755649448181,0.27553922,-0.93352689,-2.12495849,-0.10395526,-0.23916473,-0.08296530,0.22377101,0.04122819,0.96701476,0.11449552
1755649448213,6.71089236,-1.35843624,-10.49136393,-0.05336445,-0.07671485,0.00432244,0.22926031,0.04035301,0.96575664,0.11456640
1755649448243,-4.82058137,0.63631593,6.46480700,-0.22431460,-0.24872582,0.10474040,0.24423431,0.03698829,0.96202575,0.11613751
1755649448274,-0.53259102,-0.32758871,-0.37524573,-0.24777748,-0.32449898,0.04119018,0.26330408,0.03318491,0.95704469,0.11676978
1755649448294,-9.32919258,0.13923449,10.60317115,-0.27852403,-0.70406940,0.02166454,0.28824446,0.03035789,0.94989839,0.11698967
1755649448304,-26.06080913,-2.71056542,28.68042786,-0.53405976,-1.24074777,0.26929470,0.30693446,0.02779440,0.94394280,0.11828229
1755649448325,17.80078101,-0.57380457,-21.93909818,-0.27120169,-0.60984276,0.13590677,0.32619692,0.02486542,0.93735650,0.11975008
1755649448349,1.77982783,-0.06012283,-2.41532866,-0.21729961,-0.61691751,0.18834448,0.34604776,0.02226869,0.92998433,0.12200080
1755649448361,-8.43850112,-2.30960313,8.10897232,-0.28989741,-0.90843687,0.28169466,0.35920722,0.02061628,0.92480624,0.12360646
1755649448372,3.01784059,-1.21676764,-2.78852140,-0.34983847,-0.86223326,0.17567978,0.37138350,0.01862220,0.91989151,0.12460783
1755649448392,8.17963314,1.63804959,-8.54882998,-0.27470253,-0.45309209,0.09164335,0.38234558,0.01584770,0.91531528,0.12553343
1755649448404,-9.34711013,-1.72993776,8.05421620,-0.42109273,-0.73543836,0.09289574,0.39248853,0.01336326,0.91097620,0.12608152
1755649448415,-1.77735782,2.23097347,2.13336985,-0.45717881,-0.86579552,0.21355501,0.40287879,0.01089449,0.90630090,0.12723471
1755649448426,0.37948651,-0.53325648,-0.30090163,-0.27177237,-0.86757187,0.14865841,0.41332289,0.00938615,0.90148588,0.12805977
1755649448437,1.66901197,-0.26856509,-1.61484730,-0.20370880,-0.89077645,0.13017343,0.42392924,0.00823520,0.89645299,0.12879525
1755649448448,-0.26945298,-1.74817689,-0.26229383,-0.25824854,-0.94766464,0.09877040,0.43406757,0.00689231,0.89152513,0.12930885
1755649448460,1.21200151,-0.27228626,-2.04940771,-0.38786462,-0.98897773,0.15571868,0.44561476,0.00460391,0.88569016,0.13022759
1755649448461,-921.70992389,-215.63206373,809.19134388,-3.38005302,-6.99189337,0.85802295,0.45704749,0.00173086,0.87974706,0.13095691
1755649448472,144.70549377,31.59443722,-128.34601400,-0.56782692,-1.11994120,0.10746920,0.46813763,-0.00127862,0.87381137,0.13152650
1755649448483,3.67909419,0.72601667,-3.39263249,-0.51952227,-1.01871234,0.03274469,0.47847482,-0.00416197,0.86815751,0.13170823
1755649448493,0.65688546,0.02698829,-0.00805159,-0.49394674,-1.11938321,0.05378713,0.48858805,-0.00668110,0.86244866,0.13198255
1755649448504,1.98417624,0.64583121,-2.96003216,-0.47897685,-1.07671903,0.07015490,0.49857008,-0.00926757,0.85663438,0.13236138
1755649448515,-5.24385438,0.09721429,3.72467569,-0.61614622,-1.49162200,0.20748346,0.51167722,-0.01256396,0.84865420,0.13347142
1755649448526,1.62826984,-0.30001199,-2.98013288,-0.60784080,-1.47569879,0.14059554,0.52530783,-0.01608943,0.84009515,0.13428687
1755649448538,0.37052741,-0.52713598,-1.23106749,-0.72567934,-1.54659852,0.02247686,0.53933124,-0.02033466,0.83104754,0.13441836
1755649448549,-0.51807416,-0.55477698,-0.49090637,-0.91360677,-1.70001994,-0.03216072,0.55280926,-0.02517677,0.82203744,0.13424791
1755649448559,1.68692391,0.92462527,1.26890629,-0.85204461,-1.70343271,-0.10173564,0.56591192,-0.02969261,0.81300925,0.13370871
1755649448570,-0.09055023,1.27049147,-1.51191990,-0.75461642,-1.61805281,-0.21188392,0.57875279,-0.03391846,0.80394815,0.13252216
1755649448582,0.98014599,5.53301032,-0.29558798,-0.78438157,-1.64027710,0.19432746,0.59131763,-0.03850709,0.79435253,0.13365898
1755649448593,-2.11712093,3.48697949,-2.25280869,-0.75116620,-1.89765282,0.31137286,0.60372565,-0.04241316,0.78448473,0.13527812
1755649448615,6.44797465,-1.57535948,-3.77521458,-0.17596448,-0.86449982,-0.03739996,0.61616377,-0.04440156,0.77471589,0.13485550
1755649448617,-891.25842686,104.48688371,340.89194203,-1.02877136,-16.52026845,-1.27387689,0.63458560,-0.04532745,0.75984764,0.13370901
1755649448627,156.50351844,-18.12279225,-59.09072029,-0.34243887,-1.41959396,-0.06043538,0.64292909,-0.04703965,0.75274967,0.13340683
1755649448637,1.29746729,-0.42528519,-1.56088205,-0.40885683,-1.27522343,-0.05113261,0.65065429,-0.04920659,0.74599099,0.13313583
1755649448650,-0.18283993,-0.18420411,-0.51612552,-0.41374817,-1.34108670,-0.12417308,0.66047186,-0.05189595,0.73727393,0.13232870
1755649448660,-7.00889010,1.69032179,-1.84838459,-0.66006800,-2.28693104,-0.18473433,0.67183278,-0.05489926,0.72686839,0.13148816
1755649448672,6.79170244,-1.12332211,-3.22386385,-0.32742307,-1.61591629,-0.20566359,0.68233430,-0.05688017,0.71709210,0.13024390
1755649448683,1.02744096,0.27270790,-1.78133633,-0.31465572,-1.82136108,-0.15869751,0.69310117,-0.05867371,0.70671034,0.12933932
1755649448722,1.90678763,-0.30571228,0.51793897,-0.11088852,-0.54845443,-0.03917094,0.70379669,-0.06083603,0.69601548,0.12857549
1755649448732,-17.60323047,0.59687230,-25.50510451,-1.73787117,-7.30151924,-0.12863097,0.73618084,-0.06917781,0.66096818,0.12795806
1755649448750,10.01474620,-0.80496092,7.15090469,-0.66549297,-2.25351808,0.00315833,0.75405831,-0.07543345,0.63978511,0.12798775
1755649448762,2.22026368,-1.08883075,-4.56725311,-0.66069607,-2.64554418,-0.09868623,0.76599558,-0.07910031,0.62510234,0.12744004
1755649448772,1.48648879,0.44542094,-0.83592055,-0.66521450,-2.64525540,-0.18226520,0.77701703,-0.08262595,0.61108249,0.12647403
1755649448785,0.69325961,-0.49702232,4.59021182,-0.49025920,-1.99005311,-0.23584272,0.78647243,-0.08566555,0.59874416,0.12501181
1755649448795,0.83647919,0.13680500,0.20973476,-0.41420732,-1.99078346,-0.22789562,0.79456326,-0.08792298,0.58789439,0.12376978
1755649448805,0.74482072,0.63575107,-0.81996260,-0.29107233,-2.02211347,-0.25770887,0.80168946,-0.08932013,0.57818825,0.12253278
1755649448815,1.28474755,2.33390907,-2.95598479,-0.27389733,-2.18050037,-0.08334211,0.80965343,-0.09074440,0.56684965,0.12209940
1755649448827,0.58041487,-0.86975146,0.74108485,-0.06309551,-1.75390525,-0.12456376,0.81680832,-0.09111351,0.55658930,0.12137070
1755649448839,2.16910714,-0.89372780,-2.78217798,0.10845967,-2.37017063,-0.20107731,0.82616803,-0.09048986,0.54296082,0.12021450
1755649448850,2.71499720,2.75916548,0.14422296,-0.22282159,-2.58654096,-0.10986039,0.83570381,-0.09177109,0.52808821,0.11958281
1755649448861,2.08084803,-1.61492220,-1.37287669,-0.29699182,-2.66052933,-0.22746220,0.84468947,-0.09338969,0.51358832,0.11834314
1755649448873,-1.56986722,-0.75541270,1.86552455,-0.20406973,-2.28484754,-0.12766490,0.85291166,-0.09462432,0.49976500,0.11757077
1755649448885,0.45481766,0.94864612,-1.66789724,-0.13061876,-2.34119869,-0.17104755,0.86064257,-0.09536884,0.48642016,0.11659579
1755649448894,3.30384732,0.63951627,-4.16972290,-0.07048052,-2.77840332,-0.23530689,0.86838911,-0.09571772,0.47266707,0.11543103
1755649448918,-4.10945261,-0.58729732,5.75468961,-0.01879684,-1.17502258,-0.15871629,0.87588748,-0.09593576,0.45903680,0.11358992
1755649448928,22.57323982,4.08007482,-23.31991903,-0.37629071,-4.33347117,-0.54947955,0.88791112,-0.09796773,0.43563606,0.11062273
1755649448939,-14.13708329,-1.77972865,17.11921295,-0.13052154,-2.07028763,-0.26847903,0.89351030,-0.09868560,0.42424948,0.10914609
1755649448951,-1.12302341,1.43620391,-0.94145830,-0.11758615,-2.08246024,-0.17292905,0.89919188,-0.09936760,0.41217121,0.10814310
1755649448987,-2.68796166,-1.00963088,2.96433915,0.00953433,-0.75050010,-0.09162828,0.90540802,-0.09919789,0.39881231,0.10651212
1755649448996,82.84815862,11.72926435,-83.14605690,-0.06801145,-9.72906192,-0.86276803,0.92405199,-0.09950734,0.35454508,0.10258653
1755649449017,-28.02981793,-4.43326865,28.63639785,-0.06825511,-2.67426859,-0.20997964,0.93440974,-0.10021720,0.32673268,0.10040274
1755649449027,9.48298930,0.14786088,-6.21954237,-0.19831645,-3.47239332,-0.26888676,0.94068135,-0.10126827,0.30832900,0.09897764
1755649449040,-6.04202803,-0.73680219,5.64617889,-0.17260677,-2.61965823,-0.18665220,0.94605792,-0.10238159,0.29143220,0.09777373
1755649449060,-5.26950866,-0.37263245,5.00916449,-0.11443355,-1.45409106,-0.06743136,0.95031880,-0.10351448,0.27703670,0.09710616
1755649449071,7.73073301,0.41147247,-6.77618462,-0.11762547,-2.35363809,-0.08823602,0.95413781,-0.10419083,0.26350328,0.09659880
1755649449083,0.30158310,0.44676298,0.33175319,-0.17221434,-2.31989063,-0.09439029,0.95754867,-0.10514662,0.25062789,0.09607494
1755649449094,-1.43097773,-1.40102508,2.54355257,-0.09934533,-2.00718470,-0.03390611,0.96055050,-0.10573772,0.23868514,0.09587320
1755649449105,4.79522981,1.21183583,-3.80418077,-0.13099025,-2.46621329,0.01792110,0.96364653,-0.10643852,0.22549090,0.09596907
1755649449107,629.37101471,36.24519455,-469.12197755,-0.48482488,-13.53251804,0.07008826,0.96665274,-0.10692334,0.21195838,0.09603916
1755649449118,-118.05819690,-5.42283235,88.33567067,-0.17426888,-2.59523819,-0.02917924,0.96942806,-0.10782954,0.19846314,0.09588743
1755649449128,-1.92714496,-0.56240358,1.13450955,-0.13594405,-2.42632809,-0.06575422,0.97185792,-0.10852965,0.18596755,0.09554880
1755649449139,-1.99893311,-0.69524236,3.30034402,-0.08075551,-1.92355535,-0.03058731,0.97385767,-0.10898996,0.17500329,0.09537445
1755649449152,-2.01092861,-0.85734386,1.01803162,-0.02514363,-1.98603019,-0.14082939,0.97609189,-0.10914836,0.16249130,0.09448722
1755649449161,17.47052925,1.63307056,-9.90682502,-0.09342024,-2.87292564,-0.22466559,0.97829627,-0.10958744,0.14898855,0.09343129
1755649449173,-6.03166077,-1.14013600,3.88082238,0.01447116,-2.35593639,-0.17325349,0.98035013,-0.10950495,0.13555971,0.09244375
1755649449183,1.82210311,-0.62261174,-0.32121626,0.11077101,-2.44722379,-0.14426454,0.98224290,-0.10890125,0.12222234,0.09165751
1755649449194,-1.80201766,0.33569318,2.42361651,0.08137733,-2.24548558,-0.16312199,0.98379228,-0.10846588,0.11020899,0.09078481
1755649449206,-2.69257596,-0.12246074,2.47194946,-0.04735826,-2.08535742,-0.07931077,0.98506305,-0.10873582,0.09832245,0.09033273
1755649449217,-0.51746230,0.77754555,0.29461893,-0.19636398,-1.95205131,-0.06941561,0.98604587,-0.10988455,0.08690295,0.08992665
1755649449230,0.02379492,-1.07754183,0.66428641,-0.16527371,-1.74515151,-0.06868292,0.98685154,-0.11089272,0.07625753,0.08950769
1755649449251,-5.83658844,-0.13818972,3.08171057,-0.10108747,-1.00412870,-0.02212895,0.98751952,-0.11196931,0.06556356,0.08927201
1755649449253,934.57681069,-23.63037918,-432.53826783,-1.19863823,-13.53765173,-0.96429794,0.98840385,-0.11340767,0.04931838,0.08811486
1755649449282,-79.19224826,2.05823855,36.96796955,-0.05883123,-0.51575937,-0.03213697,0.98869454,-0.11426955,0.04176250,0.08764405
1755649449312,5.04134524,-0.17030919,-2.39227092,-0.04561241,-1.36398737,-0.15531813,0.98945034,-0.11492865,0.02205288,0.08539970
1755649449329,17.33329511,1.02812765,-7.25363356,-0.16645851,-2.85768777,-0.28777409,0.98973483,-0.11641013,-0.00338054,0.08283851
1755649449340,5.73763378,3.58165228,-2.64583399,0.07485595,-3.07730754,-0.02806003,0.98959092,-0.11599468,-0.02045959,0.08268278
1755649449352,-18.59463810,-0.90424896,8.38708300,0.15515261,-1.93204734,-0.06247316,0.98943490,-0.11511031,-0.03147226,0.08232668
1755649449372,-6.46093894,-0.43716887,2.94851160,0.09216028,-1.21725609,-0.06694425,0.98912752,-0.11417027,-0.04388828,0.08164385
1755649449385,0.13568796,0.58283542,0.59301644,0.09255840,-1.16591807,-0.00159570,0.98884225,-0.11358716,-0.05123356,0.08163380
1755649449396,0.71591463,-0.50304090,-0.12840003,0.17072605,-1.13287211,0.00172659,0.98860174,-0.11263109,-0.05757764,0.08164347
1755649449407,0.72657998,-0.36323816,-0.35743298,0.12032414,-1.16715991,0.04263064,0.98825947,-0.11196329,-0.06405538,0.08188007
1755649449418,-2.15335597,1.38656245,0.90051646,0.02758276,-1.09469011,-0.09675591,0.98789527,-0.11180469,-0.07034985,0.08132372
1755649449429,2.76888005,-2.00776321,-0.99678869,0.09306946,-1.22839726,-0.11373873,0.98753417,-0.11133469,-0.07655326,0.08074934
1755649449439,-0.93584937,-1.23365305,2.00157687,0.00645815,-1.09895112,-0.01204148,0.98707445,-0.11130046,-0.08237770,0.08068552
1755649449450,-2.67277241,1.50216232,0.39241529,-0.06839224,-1.06126864,-0.11069955,0.98657234,-0.11168004,-0.08826774,0.08007114
1755649449462,-0.73605077,-0.95985851,-1.11458107,-0.00697568,-1.04790969,-0.08110141,0.98605735,-0.11171945,-0.09418843,0.07961291
1755649449472,0.75111591,-0.66029940,0.36883149,0.02462105,-0.93802612,-0.10337976,0.98562453,-0.11158773,-0.09920687,0.07905983
1755649449485,-3.32953256,-0.85236546,1.35928384,-0.05005567,-0.75217176,-0.07845167,0.98515164,-0.11189557,-0.10383272,0.07857736
1755649449495,1.03277183,-0.09263473,-0.70041099,-0.00449958,-0.77630872,-0.18074831,0.98477899,-0.11191964,-0.10798597,0.07761035
1755649449506,0.72313418,2.10763265,0.09178322,-0.09172906,-0.64553000,-0.13467025,0.98440937,-0.11239205,-0.11131045,0.07691680
1755649449517,-2.82824023,-0.85684015,0.76207131,-0.02504600,-0.58163676,-0.06315304,0.98403731,-0.11253606,-0.11465487,0.07655367
1755649449530,-1.86921451,0.44826072,0.17629295,-0.10438712,-0.49599325,-0.06111933,0.98362264,-0.11319370,-0.11777962,0.07616862
1755649449540,2.35734860,-1.32400876,-2.15950511,-0.07863848,-0.54507148,-0.08775494,0.98326026,-0.11361048,-0.12066850,0.07570352
1755649449552,-0.97916179,0.32408017,-0.63991221,-0.12532456,-0.45838684,-0.09779122,0.98290249,-0.11431230,-0.12323547,0.07515589
1755649449563,-0.46022576,-0.08123809,-0.31967276,-0.07901434,-0.36885872,-0.15262593,0.98264802,-0.11476663,-0.12535641,0.07427829
1755649449573,0.43711425,-0.43250235,-1.20730142,-0.04596877,-0.31268227,-0.18407219,0.98248478,-0.11500337,-0.12696672,0.07333032
1755649449585,-2.56920900,1.47743191,1.64166582,-0.11261383,-0.27358050,-0.18404059,0.98227728,-0.11566780,-0.12858084,0.07224448
1755649449595,1.53747656,0.49307185,-2.03003318,-0.06737353,-0.26354726,-0.23315139,0.98214922,-0.11600466,-0.12989858,0.07107872
1755649449608,-3.00095417,-0.76377182,1.86427496,0.02286806,-0.11780362,-0.15178428,0.98213631,-0.11585831,-0.13065252,0.07010730
1755649449643,-2.42066901,-0.22222338,1.68196087,0.00874550,-0.01805030,-0.04194827,0.98216457,-0.11570439,-0.13097021,0.06936901
1755649449652,55.85982238,7.87210756,-48.74006879,0.22249275,-0.05621501,-0.43083835,0.98238564,-0.11469204,-0.13122599,0.06740870
1755649449663,-35.08492970,-4.51277379,30.17808271,-0.04012889,-0.06819305,-0.24870946,0.98240215,-0.11490673,-0.13159082,0.06607810
1755649449674,-2.16493030,-1.07640678,0.08955679,0.02218239,-0.05883503,-0.28969508,0.98247615,-0.11478917,-0.13190265,0.06454272
1755649449685,-1.18249463,0.74266266,2.53579809,0.00529191,0.01942566,-0.16122008,0.98255788,-0.11475768,-0.13178706,0.06358346
1755649449696,-0.10741192,0.66625399,-0.42247287,0.03802593,0.02256077,-0.12781164,0.98264181,-0.11455424,-0.13166636,0.06289966
1755649449731,-2.66315780,-0.68979298,2.48434563,0.02871081,0.00595650,-0.01689286,0.98273257,-0.11405467,-0.13156272,0.06260573
1755649449740,46.41690978,13.57747577,-48.70478531,0.44708070,-0.18439128,-0.20363007,0.98292022,-0.11193104,-0.13243858,0.06163849
1755649449774,-12.67105300,-3.71287452,13.05603667,0.07686715,-0.03983084,-0.04529275,0.98302437,-0.11062814,-0.13311371,0.06087077
1755649449786,34.40466525,4.65969701,-35.59131293,0.73613150,-0.21104256,-0.18088820,0.98338722,-0.10643219,-0.13431665,0.05983971
1755649449834,-7.57551412,-1.25528158,8.07394474,0.09268821,-0.08452620,-0.00070944,0.98334714,-0.10419841,-0.13635374,0.05982261
1755649449853,16.64746519,-1.03665046,-18.16572447,-0.06357302,-0.37621056,-0.31341125,0.98296376,-0.10479281,-0.13987130,0.05689222
1755649449875,-9.38265920,-0.53524189,9.53236620,-0.07787159,-0.05164755,-0.13099892,0.98287215,-0.10566108,-0.14044717,0.05543158
1755649449897,0.65295546,-1.12127488,0.17663679,-0.07957555,-0.02616041,-0.01942312,0.98274795,-0.10654039,-0.14073625,0.05521695
1755649449907,9.08965978,-1.02596585,-8.61670636,-0.36887842,0.09811308,-0.15894611,0.98266073,-0.10838478,-0.14024568,0.05442222
1755649449929,-8.75390542,1.92512526,7.21505395,-0.19976845,0.02377968,-0.07293625,0.98249804,-0.11057225,-0.13998529,0.05362357
1755649449942,4.61765986,-1.72516035,-6.14329644,-0.24898800,0.05694079,-0.03152172,0.98237653,-0.11221557,-0.13960948,0.05341553
1755649449952,11.01600383,-2.87015734,-15.13438619,-0.45232984,0.06617160,-0.08336459,0.98218704,-0.11445460,-0.13928194,0.05300287
1755649449963,-5.02502064,-0.51632239,5.30719272,-0.32807190,0.12169034,-0.16861417,0.98212195,-0.11619338,-0.13863698,0.05210922
1755649449976,-5.51572999,2.58400262,6.10101565,-0.28333538,0.11922740,-0.16884824,0.98206818,-0.11806340,-0.13785008,0.05099482
1755649449986,4.56258546,-0.98666614,-4.73362252,-0.32040366,0.14098730,-0.12343454,0.98200353,-0.11969746,-0.13713104,0.05036530
1755649449997,-0.99958927,-0.05363041,-0.43678202,-0.16109956,0.04490060,0.02506968,0.98192546,-0.12055128,-0.13689307,0.05049817
1755649450007,0.21641589,-0.44882122,-1.95272089,-0.05168263,0.05431842,0.06703372,0.98191366,-0.12082262,-0.13660790,0.05085010
1755649450019,-2.79651791,1.20571074,2.21017438,-0.06248098,0.07290905,0.01116061,0.98192439,-0.12118501,-0.13618502,0.05091483
1755649450041,-3.38682884,0.28843017,5.96636236,0.01022634,0.08674139,0.00447197,0.98206952,-0.12107098,-0.13521786,0.05096469
1755649450042,1006.21478618,-429.43308231,-2039.87372474,-1.36502503,2.65297493,-0.56811637,0.98223673,-0.12209475,-0.13322813,0.05053861
1755649450053,-137.18574485,57.88140072,276.98738882,-0.22850962,0.24529379,-0.03216049,0.98226967,-0.12330585,-0.13192807,0.05036816
1755649450063,-0.95049111,0.61092499,-0.78633472,-0.17983863,0.18293869,-0.17596568,0.98232194,-0.12417807,-0.13104082,0.04951472
1755649450074,-0.37374561,1.13651781,0.29748036,-0.26115984,0.16572756,-0.18287141,0.98231055,-0.12562751,-0.13012103,0.04849979
1755649450085,0.95427742,-0.04823363,-2.76822709,-0.26640151,0.14804492,-0.19543466,0.98228235,-0.12707940,-0.12931418,0.04743467
1755649450096,0.69911217,-0.02539093,-2.56958836,-0.27107099,0.18465019,-0.14649928,0.98225877,-0.12865161,-0.12824321,0.04658497
1755649450107,-0.01783262,1.59304134,-0.93039747,-0.26847194,0.20710415,-0.05526402,0.98222730,-0.13010136,-0.12712485,0.04628655
1755649450120,-2.55457574,0.48112457,3.23268907,-0.06983349,0.13906459,-0.02412291,0.98229053,-0.13055178,-0.12622788,0.04613095
1755649450130,3.41376954,0.14034403,-10.19618874,-0.13710334,0.26116015,0.05734887,0.98235078,-0.13121673,-0.12496126,0.04640910
1755649450140,-1.61143917,0.37795172,1.37282552,-0.08065421,0.16885087,0.01131872,0.98240368,-0.13164017,-0.12407479,0.04646852
1755649450151,-0.82090679,0.61582083,1.12369182,-0.08076012,0.18783475,0.00333696,0.98247312,-0.13208435,-0.12304170,0.04648687
1755649450164,-1.34134001,0.16587563,2.25858449,-0.03719876,0.13223694,-0.00888029,0.98254821,-0.13231870,-0.12220860,0.04643093
1755649450175,0.70574354,-0.06451347,-3.56060011,-0.07833293,0.20726987,0.02157928,0.98262630,-0.13275345,-0.12105826,0.04655069
1755649450186,-0.11165608,-0.72784589,-1.68964590,-0.02741272,0.16710975,-0.02141636,0.98272429,-0.13290422,-0.12013915,0.04643290
1755649450197,0.69112635,-0.01652766,1.20206620,-0.04627935,0.16377730,-0.05581745,0.98281724,-0.13316801,-0.11920562,0.04611474
1755649450208,1.77574592,0.96027554,-3.17517054,-0.08775411,0.19778250,-0.09261690,0.98290522,-0.13364188,-0.11813760,0.04561461
1755649450219,-0.89733896,-0.57948728,0.01995573,-0.07493032,0.15327080,0.00518763,0.98294834,-0.13405025,-0.11730227,0.04564288
1755649450231,-2.72855879,-0.17802437,1.71146205,-0.05920444,0.10561500,0.06640676,0.98295660,-0.13440252,-0.11667386,0.04603800
1755649450242,0.48872427,-0.42545680,-3.14347842,-0.16916764,0.07776177,0.06415075,0.98286216,-0.13534140,-0.11624228,0.04639404
1755649450265,-2.04454356,0.24549211,9.35362337,-0.12520896,0.01046581,-0.00441140,0.98268023,-0.13677504,-0.11612245,0.04634353
1755649450276,9.48368732,-5.94022661,-55.96097005,-0.34671202,0.06010075,-0.16982602,0.98250066,-0.13862995,-0.11580091,0.04543496
1755649450286,-5.44245342,4.77573832,33.99382984,-0.24278323,0.07099584,-0.03271157,0.98237177,-0.13990456,-0.11542818,0.04526323
1755649450298,-0.56925145,-1.35183270,4.79798880,-0.02112892,0.02388820,0.02750702,0.98236329,-0.14002606,-0.11529083,0.04542139
1755649450310,0.80513135,-0.67146516,-4.96699666,-0.06568153,0.06085715,0.14009816,0.98231148,-0.14041358,-0.11493177,0.04624797
1755649450321,0.64287704,-0.20503024,-4.21691540,-0.08123094,0.01639719,0.13550133,0.98221782,-0.14088472,-0.11483667,0.04703388
1755649450330,0.23630988,-2.35551017,-11.68772156,0.02614440,0.07408680,0.12596222,0.98224662,-0.14076576,-0.11449957,0.04760701
1755649450342,-2.96901345,2.11075163,16.60575373,-0.02549200,0.04142294,0.12782871,0.98221641,-0.14091744,-0.11425310,0.04836759
1755649450345,119.82912783,-120.73201507,-914.70590206,-0.17845167,-0.03491662,0.06554261,0.98217691,-0.14113158,-0.11429500,0.04844624
1755649450388,-7.77039546,7.49459101,57.43347549,-0.02971540,0.00758332,-0.00475437,0.98210890,-0.14177046,-0.11413196,0.04834402
1755649450408,6.79355668,-8.13121759,-51.67633812,0.08063043,-0.00143500,0.17020536,0.98213912,-0.14093190,-0.11414689,0.05011415
1755649450435,-2.88226146,3.24509969,23.87401804,-0.06847843,0.00803517,0.06900762,0.98197315,-0.14184267,-0.11404002,0.05103196
1755649450452,0.97731470,-4.47765331,-20.85737741,-0.06255060,-0.10086885,0.13756426,0.98172913,-0.14238686,-0.11491758,0.05222876
1755649450464,2.87329290,-11.76002840,-52.93853358,-0.23528076,-0.21500199,-0.17365929,0.98144669,-0.14370443,-0.11612159,0.05125627
1755649450486,-2.97279205,7.02869162,32.81227408,-0.10504240,-0.01604104,-0.06597032,0.98128865,-0.14489666,-0.11630366,0.05050751
1755649450498,3.10062312,-0.69677334,-8.75636870,0.03301271,0.05803641,0.07540609,0.98133569,-0.14469858,-0.11595544,0.05095995
1755649450510,-1.96538329,3.17377932,6.95809833,-0.01648145,0.06041904,0.11817027,0.98132688,-0.14479665,-0.11559594,0.05166306
1755649450530,-2.45099949,3.37757354,19.27440372,0.02431445,0.00641231,0.09119050,0.98132179,-0.14455107,-0.11553118,0.05258408
1755649450532,103.51338348,-214.48551693,-1598.20727197,0.88315442,-0.58545045,0.85962983,0.98133725,-0.14357960,-0.11617517,0.05352968
1755649450544,-18.81184880,37.68502577,285.23908280,0.22582664,-0.13877125,0.15608018,0.98138071,-0.14232626,-0.11694535,0.05439592
1755649450554,0.39362693,0.48713104,-14.59886362,0.07252260,-0.12653334,0.05274126,0.98134299,-0.14196365,-0.11757802,0.05465963
1755649450564,0.15738758,2.03777068,6.49080032,0.04690758,-0.04058092,0.01569982,0.98134823,-0.14172677,-0.11778296,0.05473891
1755649450575,-0.99837928,2.41309768,11.29760582,0.06559463,-0.00883969,0.02629142,0.98138877,-0.14134304,-0.11783467,0.05489272
1755649450586,3.28039386,-0.71883912,-25.42804462,0.30220788,0.01973132,0.12195997,0.98159816,-0.13971112,-0.11772812,0.05555130
1755649450598,0.47749352,0.62739183,2.19861051,0.51668861,-0.14478703,0.21648448,0.98184295,-0.13676599,-0.11855340,0.05678526
1755649450610,-1.23270796,0.77252980,3.86306680,0.37215438,-0.22755208,0.18982430,0.98191971,-0.13451446,-0.11993009,0.05793370
1755649450620,0.83971438,6.77351827,-16.55160422,-0.33935409,-0.14298038,0.01903515,0.98158926,-0.13622820,-0.12065215,0.05802983
1755649450630,-0.21913044,4.04992353,4.80717920,-0.43531292,-0.03385631,-0.05002958,0.98125673,-0.13855712,-0.12083328,0.05776217
1755649450642,0.41950186,-3.95887433,7.54520518,0.31939190,-0.08042055,0.02754031,0.98144464,-0.13675256,-0.12128765,0.05791777
1755649450654,-0.56206324,0.09568542,4.96353582,0.20215008,-0.18509471,0.26033078,0.98138050,-0.13551944,-0.12241673,0.05950579
1755649450664,1.76615740,11.50805222,-26.43611578,-0.47530440,-0.15011464,0.18488657,0.98091348,-0.13782467,-0.12314479,0.06040249
1755649450675,-1.04495059,1.15685430,14.58451544,-0.44779032,-0.09286063,0.07089549,0.98046789,-0.14033229,-0.12366481,0.06079950
1755649450687,1.43873038,-2.72502015,9.42210737,-0.08076868,-0.07255250,0.18634125,0.98026854,-0.14082902,-0.12411100,0.06194550
1755649450697,4.75032292,1.99027756,-18.59605703,0.30685028,-0.15519418,0.27683916,0.98030045,-0.13931011,-0.12487922,0.06331586
1755649450708,-1.49109525,-0.34985552,14.50240691,0.27971842,-0.32746930,0.29600109,0.98017801,-0.13774369,-0.12671304,0.06497346
1755649450720,-1.79878609,-2.16992389,5.45050929,0.44896695,-0.29422470,0.13170733,0.98026891,-0.13509478,-0.12844897,0.06575053
1755649450731,2.06620888,0.38598666,-2.63682517,0.36695667,-0.22607763,-0.00866109,0.98038649,-0.13303983,-0.12971500,0.06570203
1755649450742,-0.82298505,-0.18626452,0.67283305,0.21699997,-0.24085153,-0.19004659,0.98044200,-0.13182463,-0.13106377,0.06463777
