UnixTime(ms),Ax,Ay,Az,Gx,Gy,Gz,QuatW,QuatX,QuatY,QuatZ
1761617806316,0.00000000,0.00000000,0.00000000,0.00000000,0.00000000,0.00000000,0.95376273,0.06207783,0.28999407,0.04885115
1761617806324,0.74268126,-0.56819590,-1.51668040,-0.03987562,-0.01010718,0.00804480,0.95378190,0.06193229,0.28995718,0.04888051
1761617806335,-0.14689216,0.01037112,0.37823770,-0.03886027,-0.00373626,0.02708575,0.95379447,0.06171661,0.28993644,0.04903084
1761617806346,-0.00425523,0.07484408,0.04692931,-0.02608999,-0.01194683,0.01409520,0.95382088,0.06156660,0.28986775,0.04911189
1761617806357,0.06826550,0.15950352,0.00169107,0.00182046,-0.00329411,-0.00218025,0.95382640,0.06157670,0.28984947,0.04909979
1761617806369,0.13765732,0.16603910,0.11631947,0.01798226,-0.01317635,-0.00300332,0.95384333,0.06167830,0.28977502,0.04908282
1761617806380,0.07001877,0.13957075,0.00746867,0.03179828,-0.00236539,-0.00446187,0.95383706,0.06185796,0.28976165,0.04905761
1761617806391,-0.18111522,-0.01260338,-0.01213659,0.03173067,-0.00481923,-0.01417982,0.95383780,0.06203724,0.28973443,0.04897749
1761617806402,-0.13967316,-0.05929886,0.02163050,0.01083102,-0.00277397,-0.00524192,0.95384008,0.06209789,0.28971889,0.04894814
1761617806414,0.05131777,-0.12591861,0.08933094,-0.00563764,0.00261405,-0.00415185,0.95383888,0.06206632,0.28973353,0.04892489
1761617806425,0.02394748,-0.13091669,0.07190795,-0.01705314,-0.00103452,0.00049031,0.95384685,0.06196912,0.28972763,0.04892768
1761617806436,0.00365370,-0.00016550,0.07979571,-0.01412121,-0.00170764,-0.01201625,0.95385823,0.06189074,0.28971816,0.04886099
1761617806447,0.03710136,0.16668003,0.03208859,-0.00370724,-0.00093913,-0.01546408,0.95386561,0.06186998,0.28971290,0.04877439
1761617806458,-0.02043208,0.04704129,-0.00380132,0.01985959,-0.00300761,-0.01680387,0.95386831,0.06198120,0.28969605,0.04868029
1761617806470,-0.11841004,-0.03423499,0.00048376,0.05068897,-0.00945801,-0.02692177,0.95387354,0.06226252,0.28964356,0.04853087
1761617806481,0.06159129,-0.00335585,0.08681486,0.01323708,-0.00833372,-0.00973645,0.95388575,0.06233731,0.28959648,0.04847586
1761617806492,0.14311705,-0.01495297,0.06303289,0.00342509,-0.00360108,-0.00576721,0.95389226,0.06235649,0.28957631,0.04844357
1761617806503,0.02848596,-0.04486917,0.03668837,0.00309354,-0.00984332,0.00109132,0.95390742,0.06237366,0.28952168,0.04844962
1761617806514,0.01976000,-0.05389051,0.03016225,-0.00177746,-0.00383160,-0.00016096,0.95391462,0.06236371,0.28950022,0.04844872
1761617806526,0.01235428,0.05416876,0.06747337,-0.01681591,-0.00352919,0.00847888,0.95392436,0.06226954,0.28948046,0.04849620
1761617806537,-0.01425494,0.05274327,0.02470856,-0.00336648,0.00041356,-0.00729454,0.95392696,0.06225069,0.28948278,0.04845535
1761617806548,-0.06509755,0.16393178,0.03136086,0.01149424,-0.00268358,-0.01116715,0.95393050,0.06231505,0.28946775,0.04839282
1761617806559,0.08743028,0.14112388,0.10548654,0.02216421,0.00443368,-0.01483752,0.95391906,0.06243917,0.28949258,0.04830973
1761617806570,0.11618559,0.00926064,0.09355663,0.05585705,0.01298070,-0.01725948,0.95388169,0.06274918,0.28956462,0.04821394
1761617806581,-0.03821741,0.07836988,0.01741553,0.04807732,0.01644327,-0.01500502,0.95384060,0.06301601,0.28965588,0.04813066
1761617806593,-0.20414098,0.02148943,0.00310783,0.04900300,0.02517035,-0.02175872,0.95378576,0.06329043,0.28979683,0.04800881
1761617806604,-0.15829471,0.04894662,0.03556534,0.03954765,0.01488691,-0.01542102,0.95375036,0.06350992,0.28987946,0.04792322
1761617806615,-0.05306287,-0.08410663,0.01383554,0.04191772,0.02262082,-0.02314871,0.95370227,0.06374675,0.29000726,0.04779243
1761617806626,-0.01661068,-0.04644569,0.05751234,0.04012228,0.02895061,-0.01205815,0.95364184,0.06396943,0.29016794,0.04772551
1761617806637,-0.12916517,0.01015906,0.00483765,0.04662099,0.02641624,-0.00682356,0.95358172,0.06422818,0.29031455,0.04768764
1761617806648,-0.08891143,0.00341177,0.07051271,0.05288417,0.03110985,-0.02920161,0.95351683,0.06452433,0.29048876,0.04752411
1761617806660,-0.16535727,0.01758109,-0.08267864,0.04539464,0.04201347,-0.00413420,0.95342904,0.06477854,0.29072404,0.04750096
1761617806671,-0.33750360,0.07024954,-0.12511364,0.04795559,0.04396498,0.01189186,0.95333319,0.06504469,0.29096805,0.04756696
1761617806682,-0.06084675,0.00260270,0.00330475,0.04856489,0.05020242,-0.00654626,0.95323057,0.06531665,0.29124918,0.04753030
1761617806693,0.08848574,-0.13904779,0.02278877,0.05589470,0.05871052,0.00322339,0.95310875,0.06562687,0.29157502,0.04754819
1761617806704,0.09571784,-0.06889030,0.10000716,0.04051438,0.04399808,0.01746975,0.95301280,0.06585375,0.29182141,0.04764602
1761617806715,-0.04086415,-0.07792699,-0.02565889,0.04050727,0.05635265,-0.01394499,0.95290431,0.06608059,0.29213699,0.04756793
1761617806727,-0.01330461,-0.08315380,0.00285099,0.01924299,0.05253439,-0.00186449,0.95280711,0.06618835,0.29243118,0.04755749
1761617806738,-0.09867841,-0.06929832,0.02559763,-0.00500283,0.05978309,-0.02875389,0.95271593,0.06616084,0.29275999,0.04739934
1761617806749,0.01654565,0.00413323,0.01570118,-0.00217148,0.05165700,-0.01306925,0.95263071,0.06614857,0.29305185,0.04732550
1761617806760,0.14738554,0.06381841,-0.00023974,0.01082119,0.05771350,-0.00920466,0.95253048,0.06620862,0.29337216,0.04727442
1761617806771,0.05805176,-0.02031812,0.00580518,0.02095558,0.04853209,-0.00850710,0.95244173,0.06632493,0.29364151,0.04722720
1761617806782,0.12465579,-0.03814159,0.02572738,-0.00655765,0.05473051,0.00685865,0.95234784,0.06628821,0.29394800,0.04726561
1761617806793,-0.19495716,-0.09890396,0.01661213,0.00579992,0.03239252,0.00691530,0.95228818,0.06632039,0.29412778,0.04730399
1761617806805,-0.05729344,-0.10522581,-0.03608174,-0.00378246,0.03423146,-0.00155833,0.95223035,0.06629902,0.29432119,0.04729518
1761617806816,0.03655634,-0.00414411,0.08414080,-0.01650878,0.03280686,-0.01420623,0.95218434,0.06620740,0.29450327,0.04721634
1761617806827,-0.01627356,-0.00411832,0.05691088,-0.01746369,0.03046507,-0.01138148,0.95214228,0.06611135,0.29467082,0.04715374
1761617806838,0.01552492,-0.08511494,0.03460926,-0.01775293,0.03270537,0.00227822,0.95209184,0.06601193,0.29485397,0.04716650
1761617806849,0.06747337,0.03041053,0.09408259,-0.01879362,0.02704786,0.00703892,0.95205026,0.06590669,0.29500544,0.04720592
1761617806860,-0.02456401,0.07959657,-0.03337976,-0.01150655,0.02944098,0.00839001,0.95200172,0.06584283,0.29516884,0.04725248
1761617806871,-0.08465882,0.10352564,0.02902588,-0.01565499,0.02754391,0.00742212,0.95195827,0.06575594,0.29532171,0.04729368
1761617806883,0.00262413,-0.00601783,0.04395412,-0.01753536,0.02159677,0.00432235,0.95192603,0.06565687,0.29544373,0.04731810
1761617806894,0.11367787,-0.16638750,0.08066024,-0.01719277,0.02058290,0.01479370,0.95189277,0.06556059,0.29555899,0.04740094
1761617806905,0.10874153,-0.04166871,0.18942244,-0.03800630,0.01205562,0.01660653,0.95188200,0.06535155,0.29562530,0.04749228
1761617806916,-0.00633029,0.10080583,0.08667212,-0.02584740,0.01673838,0.01021411,0.95186054,0.06521069,0.29571652,0.04754794
1761617806927,-0.03554144,0.05448263,-0.02995716,0.00522018,0.01601626,0.00491257,0.95182930,0.06523992,0.29580622,0.04757545
1761617806938,-0.00774791,0.08458101,0.06638446,-0.00069122,0.01138256,-0.00999732,0.95181240,0.06523601,0.29587053,0.04751897
1761617806949,0.09477078,0.10004938,0.10550351,-0.01252676,0.01917361,0.01318144,0.95178042,0.06516649,0.29597694,0.04759213
1761617806960,-0.07643482,0.00532141,-0.04257129,0.00726220,0.00804724,0.00495557,0.95176239,0.06520679,0.29602160,0.04761963
1761617806972,0.05094107,0.06207105,0.04931438,0.01488947,0.01734540,0.00520674,0.95172500,0.06529018,0.29611874,0.04764879
1761617806983,-0.01366635,0.03025257,0.09053310,0.01476614,0.01539186,0.01125544,0.95168966,0.06537213,0.29620416,0.04771126
1761617806994,0.03540190,-0.02855696,0.01861275,0.02562634,0.02109216,0.01080734,0.95163999,0.06551564,0.29632228,0.04777178
1761617807005,-0.04491237,0.06896670,0.08668026,0.02026077,0.01211628,0.01166086,0.95160805,0.06562808,0.29638952,0.04783649
1761617807016,0.02360412,-0.02130963,-0.01273099,0.02227900,0.01646204,0.00727724,0.95156867,0.06575284,0.29648171,0.04787725
1761617807027,-0.05226810,0.00617714,0.04561580,0.00831580,0.01378562,-0.00106563,0.95154169,0.06579941,0.29655891,0.04787128
1761617807039,0.08939280,-0.03068882,-0.00222013,0.00862060,0.02115965,0.01949819,0.95149632,0.06584726,0.29667635,0.04797949
1761617807050,-0.05565639,-0.07795613,-0.06884534,0.01653735,0.01824098,0.00786538,0.95145511,0.06594152,0.29678032,0.04802433
1761617807061,-0.20810205,0.14433191,-0.10728318,0.00628867,0.02392451,0.01535522,0.95140739,0.06597611,0.29691190,0.04810878
1761617807072,-0.14876971,0.09060093,-0.14927079,-0.00786442,0.02058465,0.01607458,0.95136990,0.06593207,0.29702718,0.04819880
1761617807083,-0.07807716,-0.08338141,-0.04505534,0.00609036,0.02372752,0.00942285,0.95132420,0.06596556,0.29715768,0.04825062
1761617807094,0.29573379,-0.11720150,0.16209160,-0.01841892,0.02551817,0.01316623,0.95128296,0.06586242,0.29730058,0.04832435
1761617807105,0.05274327,-0.17010892,0.03706284,-0.02068174,0.01253924,0.01164304,0.95126571,0.06574660,0.29737080,0.04838956
1761617807117,0.06082107,-0.00475165,-0.05797008,-0.01982537,0.02042460,0.01658807,0.95123288,0.06563558,0.29748518,0.04848245
1761617807128,-0.10295348,-0.01493635,-0.03932007,-0.00723719,0.01555988,0.01040600,0.95120594,0.06559577,0.29757076,0.04853968
1761617807139,-0.05141281,-0.02049255,-0.09062684,0.00053144,0.01910221,0.01103057,0.95116911,0.06559875,0.29767773,0.04860145
1761617807150,-0.05559426,-0.07602633,-0.04466547,-0.00933737,0.01104744,0.01088770,0.95115023,0.06554646,0.29773960,0.04866242
1761617807161,0.22807900,0.32311191,-0.05416876,-0.00406719,0.02453911,-0.00343523,0.95110976,0.06552368,0.29787702,0.04864319
1761617807172,-0.01046776,0.15942659,-0.00807513,-0.01151435,0.01890077,0.00341655,0.95108059,0.06546036,0.29798097,0.04866198
1761617807183,-0.05281831,-0.08793083,-0.08642676,0.01301784,0.03365829,-0.00557174,0.95101865,0.06553260,0.29816777,0.04863105
1761617807195,-0.20393978,-0.30226460,-0.02900644,0.00252009,0.03174551,0.00053697,0.95096177,0.06554672,0.29834555,0.04863406
1761617807206,-0.13494674,-0.11974147,-0.03896350,0.00423370,0.03056981,0.00570159,0.95090478,0.06557043,0.29851674,0.04866599
1761617807217,-0.00975736,-0.00716144,-0.06203418,-0.00050238,0.03879509,0.01202968,0.95083393,0.06556764,0.29873205,0.04873276
1761617807228,0.02392518,0.00994849,-0.01359570,-0.00579718,0.04111526,-0.00501874,0.95076524,0.06553517,0.29896230,0.04870465
1761617807239,-0.00047516,-0.06224656,-0.07412567,-0.01376493,0.03119671,-0.00931521,0.95071827,0.06545809,0.29913700,0.04865249
1761617807251,0.06842370,-0.09550808,-0.06272172,-0.01445390,0.03116555,-0.01369295,0.95067283,0.06537715,0.29931153,0.04857581
1761617807262,-0.00707506,-0.06758884,-0.10266177,-0.03629566,0.02152239,-0.01196854,0.95065244,0.06517571,0.29943098,0.04850938
1761617807273,-0.02515576,-0.10400940,-0.13932422,-0.01915481,0.02260888,-0.00024328,0.95062026,0.06506940,0.29955645,0.04850803
1761617807284,0.01064282,-0.02757459,-0.06869458,-0.02657166,0.01933439,-0.00509432,0.95059796,0.06492193,0.29966376,0.04847976
1761617807295,0.09932224,0.12279366,-0.03326152,-0.02821164,0.02299369,-0.01299697,0.95057185,0.06476394,0.29979253,0.04840697
1761617807306,0.11989589,0.05751184,-0.07093199,-0.00407610,0.01317007,-0.00517050,0.95055179,0.06474132,0.29986562,0.04837828
1761617807317,0.03845408,0.10645827,-0.06274741,-0.02618044,0.00453068,-0.01391460,0.95055773,0.06459471,0.29989099,0.04830035
1761617807328,0.04005312,-0.02662865,0.00913106,-0.01512211,-0.00372459,-0.03326547,0.95057931,0.06451078,0.29987032,0.04811573
1761617807340,0.07671982,0.05395044,0.01280804,-0.03138155,-0.01700318,-0.03440570,0.95063099,0.06433504,0.29977510,0.04792306
1761617807351,0.07545865,-0.04040731,-0.02453378,-0.03120346,-0.02909747,-0.01917660,0.95069896,0.06416186,0.29961361,0.04781663
1761617807362,0.22640186,-0.07159717,-0.02902588,-0.03116045,-0.03456336,-0.02888269,0.95077909,0.06398892,0.29942178,0.04765633
1761617807373,0.21686340,-0.00113440,-0.01344159,-0.05071206,-0.03905248,-0.02156425,0.95087305,0.06370494,0.29920309,0.04753557
1761617807384,-0.01330461,-0.01995691,-0.01045362,-0.05482198,-0.05227807,-0.02078712,0.95099145,0.06339793,0.29891033,0.04741916
1761617807395,-0.12702278,0.11126155,0.06474672,-0.03877823,-0.06092676,-0.01211176,0.95111534,0.06318271,0.29857219,0.04735194
1761617807406,-0.11610352,-0.00290259,0.02031812,-0.02088773,-0.06165816,-0.01355240,0.95123413,0.06306679,0.29822999,0.04727673
1761617807418,-0.00550898,-0.01634612,-0.03493789,-0.01397627,-0.06394918,-0.00598519,0.95135424,0.06298782,0.29786867,0.04724291
1761617807429,0.02679223,0.07886401,0.04250313,-0.02476457,-0.07495087,0.01451766,0.95148825,0.06285162,0.29745644,0.04732276
1761617807440,0.01492881,0.07682979,0.00423328,-0.00900620,-0.06951006,0.00507108,0.95161177,0.06280118,0.29706719,0.04735116
1761617807451,-0.11340826,0.01770492,0.02207176,-0.00628611,-0.07863273,-0.01379081,0.95175400,0.06276629,0.29663078,0.04727462
1761617807462,-0.16447999,0.09143152,-0.16351246,-0.02603938,-0.05916945,-0.02362769,0.95187231,0.06262177,0.29630239,0.04714348
1761617807473,-0.18615321,-0.00245591,-0.07281111,-0.00758075,-0.06361729,-0.01283650,0.95199053,0.06257894,0.29594295,0.04707096
1761617807485,-0.06423422,0.02598576,0.11370786,-0.02081333,-0.05294696,-0.00760262,0.95209059,0.06246447,0.29565174,0.04702914
1761617807496,0.15615636,-0.06088154,0.26446797,-0.01217037,-0.03947483,-0.00553758,0.95216521,0.06239632,0.29543068,0.04699813
1761617807507,0.00561944,-0.03535369,0.20931461,-0.00970230,-0.02625993,-0.01570022,0.95221824,0.06234247,0.29528494,0.04691100
1761617807518,0.03246936,0.05670469,0.03307073,-0.00684700,-0.02631188,0.00857582,0.95226447,0.06230378,0.29513628,0.04695945
1761617807529,-0.05812248,0.00246736,0.03429022,0.01211127,-0.02301817,-0.00571391,0.95230089,0.06237039,0.29500968,0.04692802
1761617807540,-0.07645625,0.01346907,0.06371284,0.00276835,-0.02674384,-0.01123800,0.95234979,0.06238604,0.29485857,0.04686453
1761617807551,-0.02436804,-0.04727622,0.07163998,-0.00462556,-0.01438911,-0.00419078,0.95237734,0.06236036,0.29477871,0.04684127
1761617807563,0.28348610,0.15190211,0.55923196,-0.00981875,-0.00789141,0.00222549,0.95239385,0.06230587,0.29473492,0.04685362
1761617807574,-0.01693469,-0.01310769,0.10510983,0.00217113,-0.01347309,0.00673179,0.95241455,0.06231803,0.29465947,0.04689132
1761617807585,-0.04918850,0.04708931,0.05261805,0.00327536,0.00191650,0.01226824,0.95240671,0.06233621,0.29467010,0.04695941
1761617807596,-0.32025221,-0.15819105,-0.46925173,0.02987402,0.00898572,0.01190385,0.95237715,0.06250201,0.29471997,0.04702547
1761617807607,-0.10141981,0.04358672,0.00617286,0.02289340,0.01532217,0.00999519,0.95233941,0.06263021,0.29480578,0.04708145
1761617807618,0.02185757,0.04086415,0.04466547,0.00664086,0.01991634,0.01429683,0.95229847,0.06266740,0.29491731,0.04716151
1761617807629,0.00190914,-0.07505263,0.01643072,-0.00509428,0.02405274,0.01597845,0.95225458,0.06263913,0.29505080,0.04725019
1761617807641,-0.04275625,-0.13183891,0.01602717,0.00842253,0.01332890,0.00639976,0.95222657,0.06268629,0.29512544,0.04728603
1761617807652,0.04120638,0.02563089,0.05542561,-0.01347508,0.01828563,0.01197288,0.95219672,0.06261150,0.29522693,0.04735248
1761617807663,-0.18721693,-0.00967529,-0.16641505,-0.00088985,0.01963269,0.01033026,0.95216041,0.06260657,0.29533589,0.04740981
1761617807674,-0.07671982,0.13291338,-0.07531573,0.00526841,0.01337268,0.00502724,0.95213383,0.06263607,0.29541078,0.04743796
1761617807685,0.07402463,0.13341107,0.02568272,0.01688304,0.01733024,0.00048803,0.95209768,0.06272977,0.29550696,0.04744067
1761617807696,0.24284986,0.06530823,0.11223340,0.03893632,0.00276004,0.02194162,0.95207259,0.06294587,0.29552228,0.04756245
1761617807707,0.16587096,0.05726803,0.09234460,0.01368515,0.00419905,0.01097167,0.95205715,0.06302250,0.29554579,0.04762389
1761617807719,0.05749491,-0.05511909,0.00190066,0.01859191,-0.01620482,0.01889657,0.95207312,0.06312662,0.29545505,0.04772971
1761617807730,0.09390650,-0.02442148,0.02100921,0.01437576,-0.01313641,0.01667285,0.95208580,0.06320640,0.29538214,0.04782224
1761617807741,-0.00967529,-0.08417505,-0.04740894,0.02257033,-0.02510497,0.01627726,0.95211615,0.06333167,0.29524281,0.04791258
1761617807752,-0.01505544,0.03872805,0.01856138,0.01055514,-0.01438237,0.00544641,0.95213566,0.06339078,0.29516227,0.04794308
1761617807763,0.18015483,0.23908773,0.03255045,0.02101331,-0.00073035,0.00376757,0.95212809,0.06350740,0.29515821,0.04796399
1761617807774,-0.05832966,0.03721694,-0.05886904,0.04139754,-0.00170205,0.00022834,0.95211549,0.06373923,0.29514868,0.04796527
1761617807785,-0.01274202,0.12983034,0.01876316,0.03754455,0.00974739,-0.00389623,0.95208583,0.06394760,0.29520278,0.04794365
1761617807797,-0.27389599,-0.16620915,-0.04995649,0.04600399,0.00829956,-0.00925980,0.95205669,0.06420522,0.29524926,0.04789179
1761617807808,0.02770849,-0.07417581,-0.04344379,0.03395808,0.02007593,0.00189321,0.95200887,0.06439369,0.29536068,0.04790230
1761617807819,-0.03531482,-0.06288941,0.01257788,-0.00213283,0.01267386,0.00869457,0.95198542,0.06438185,0.29543102,0.04795055
1761617807830,0.02757459,-0.13884046,-0.09094776,0.00249027,0.01889102,-0.00567719,0.95195353,0.06439567,0.29553586,0.04791905
1761617807841,-0.03261941,-0.03731540,-0.01422069,0.01159777,0.00413028,-0.01544788,0.95194630,0.06446062,0.29555899,0.04783254
1761617807852,0.07258198,-0.04603971,-0.09788460,-0.00366324,0.00429692,-0.01318934,0.95194395,0.06444029,0.29558284,0.04775934
1761617807863,-0.00096753,0.07933741,-0.18866822,-0.01340854,0.00243228,-0.01162728,0.95194803,0.06436587,0.29559634,0.04769481
1761617807875,-0.05767043,-0.02587293,-0.16741204,-0.00733817,-0.00795950,-0.01701794,0.95196941,0.06432478,0.29555177,0.04759951
1761617807886,0.07318668,-0.07548457,-0.09618278,0.00100967,-0.01537274,-0.01094577,0.95199855,0.06433038,0.29546645,0.04753876
1761617807897,0.25865648,-0.05158318,0.06301282,-0.00424617,-0.01657512,-0.00463822,0.95203026,0.06430660,0.29537363,0.04751278
1761617807908,0.08172831,-0.04894195,-0.05226810,-0.00536646,-0.02765490,0.00656668,0.95207849,0.06427655,0.29521876,0.04754956
1761617807919,0.00195666,0.04918418,-0.06115304,-0.01576608,-0.03950157,0.00139119,0.95215196,0.06418905,0.29499953,0.04755728
1761617807930,0.06966211,-0.01064282,-0.05805176,-0.00492646,-0.03197633,-0.00285159,0.95220956,0.06416171,0.29482206,0.04754145
1761617807941,0.02485351,-0.02183408,-0.08436736,-0.02494674,-0.05012485,-0.00578254,0.95230831,0.06402076,0.29453885,0.04750878
1761617807953,0.11553876,-0.15274535,-0.09491930,-0.02694581,-0.04512780,0.00750650,0.95239293,0.06387256,0.29429065,0.04755007
1761617807964,0.29651998,-0.08044968,0.42858117,-0.05550981,-0.05499753,-0.00463997,0.95251014,0.06356170,0.29398266,0.04752408
1761617807975,0.19232237,-0.14868853,0.15483925,-0.05665388,-0.06673008,0.00981669,0.95264257,0.06324727,0.29361231,0.04757856
1761617807986,0.07833794,0.02904497,-0.04892055,-0.05893242,-0.07612234,0.01185797,0.95279239,0.06291725,0.29318603,0.04764497
1761617807997,-0.10710204,0.01423218,-0.53599398,-0.03735246,-0.08246429,0.00890809,0.95294429,0.06270995,0.29272835,0.04769441
1761617808008,-0.00836889,0.03483684,-0.26041587,-0.02908272,-0.09241981,0.01210574,0.95311043,0.06254708,0.29221080,0.04776220
1761617808019,0.07181746,0.10659236,-0.07103566,-0.03698861,-0.09453071,0.01466503,0.95328048,0.06234180,0.29168615,0.04784359
1761617808031,0.00439457,0.06598165,-0.09414055,-0.02977773,-0.09664317,0.00164982,0.95345791,0.06217355,0.29114012,0.04785291
1761617808042,0.01467123,0.00359948,-0.06839847,-0.00814301,-0.09352862,-0.00325779,0.95362157,0.06212795,0.29061636,0.04783467
1761617808053,-0.01331693,0.04561708,-0.09115353,-0.02318988,-0.10915865,-0.00787609,0.95381304,0.06200157,0.29002144,0.04779174
1761617808064,-0.07778293,-0.08771403,-0.15983122,-0.02630538,-0.09797398,-0.01149844,0.95399408,0.06185294,0.28946789,0.04772678
1761617808075,0.07433172,-0.10272385,-0.05223446,-0.04233193,-0.10644777,-0.00580786,0.95419172,0.06161588,0.28887178,0.04769425
1761617808086,0.06596649,-0.10201581,0.03374696,-0.06773917,-0.11766874,-0.03458191,0.95441879,0.06124670,0.28823049,0.04750578
1761617808097,0.24418228,0.02848372,0.16577577,-0.07839893,-0.11542618,0.00610801,0.95464012,0.06080767,0.28758410,0.04753999
1761617808108,0.07867223,0.10282591,0.03813102,-0.05138996,-0.09931841,0.00220017,0.95482351,0.06052246,0.28703289,0.04755220
1761617808120,-0.07036717,0.08103054,-0.02828728,-0.01399904,-0.09023434,-0.01634086,0.95498479,0.06044406,0.28652757,0.04746069
1761617808131,-0.05749491,0.20812209,-0.00760263,-0.01467982,-0.08539242,0.00406424,0.95513220,0.06036185,0.28604938,0.04748345
1761617808142,-0.04414931,0.09054171,-0.02575596,-0.00977678,-0.08107156,-0.01043052,0.95527187,0.06030808,0.28560348,0.04742608
1761617808153,-0.08477788,0.01973681,-0.01080411,-0.00093487,-0.08485184,-0.02700844,0.95542297,0.06030280,0.28512407,0.04727348
1761617808164,0.42895466,-0.00254147,0.62290843,-0.03253780,-0.08376246,-0.03599678,0.95558139,0.06012384,0.28466338,0.04707550
1761617808175,0.02501094,-0.10206535,-0.02059622,-0.03751318,-0.08172031,-0.02155710,0.95573672,0.05991377,0.28420574,0.04695478
1761617808187,-0.04660986,-0.02613193,0.01997257,-0.03192528,-0.08963203,-0.01757187,0.95590039,0.05973658,0.28370828,0.04685726
1761617808197,-0.24754537,-0.04766415,-0.56924903,-0.02044001,-0.06697094,-0.00789292,0.95601770,0.05962518,0.28334329,0.04681424
1761617808209,-0.13038124,0.02310087,0.04426669,-0.02093726,-0.07783423,-0.01536281,0.95615703,0.05950898,0.28291131,0.04672898
1761617808220,0.03524351,0.08407845,0.03132662,-0.01232137,-0.05893140,-0.00688796,0.95626079,0.05943998,0.28258130,0.04669041
1761617808231,-0.05926549,-0.00114462,-0.05869966,0.00825513,-0.05798652,-0.01162423,0.95635614,0.05948580,0.28225947,0.04662589
1761617808242,-0.04330650,0.00923070,-0.02386946,0.00305371,-0.05928703,-0.01470974,0.95645791,0.05950305,0.28192450,0.04654278
1761617808253,-0.04152665,-0.12395656,-0.03184901,-0.00134918,-0.05444036,-0.02154462,0.95655234,0.05949563,0.28162508,0.04642429
1761617808264,-0.41230651,0.09999788,0.02955602,-0.03396331,-0.04669034,-0.01485040,0.95664346,0.05930883,0.28136828,0.04634261
1761617808275,-0.13470338,-0.18346615,-0.02017389,-0.02649911,-0.04859136,-0.00101150,0.95673371,0.05915911,0.28109374,0.04633689
1761617808287,0.01851577,-0.04511855,0.05871961,-0.03543281,-0.04611126,-0.01004131,0.95682370,0.05896246,0.28083782,0.04628116
1761617808298,0.39487033,-0.08554247,0.02291064,-0.05033578,-0.04464685,0.01095498,0.95691141,0.05868058,0.28058780,0.04634251
1761617808309,0.10420377,-0.00318334,-0.02892222,-0.02446513,-0.03978887,0.00478909,0.95698316,0.05854480,0.28036697,0.04636909
1761617808320,-0.06288941,0.00096753,0.00580518,-0.02541500,-0.05535371,-0.00771374,0.95708381,0.05840375,0.28005976,0.04632628
1761617808331,-0.01196045,0.00742284,-0.02460582,-0.03396266,-0.05693563,0.00759646,0.95718657,0.05821356,0.27974092,0.04636882
1761617808342,0.07984640,-0.00537644,-0.00715192,-0.03759124,-0.04081115,0.01100534,0.95726381,0.05800116,0.27951034,0.04643100
1761617808354,-0.03231574,0.01127520,0.04165086,-0.04380338,-0.04312647,0.00796979,0.95734844,0.05775149,0.27926451,0.04647643
1761617808365,0.00564805,0.04026251,0.25851917,-0.04714306,-0.04849029,0.00489723,0.95743882,0.05749691,0.27900267,0.04650287
1761617808376,-0.01177352,0.03637649,0.04815001,-0.05140497,-0.04761967,-0.01328595,0.95753734,0.05720905,0.27873600,0.04642847
1761617808387,0.05095775,0.07738224,0.02125219,-0.04087365,-0.04899134,-0.00698864,0.95763101,0.05698424,0.27846654,0.04639003
1761617808398,-0.03816867,-0.11353842,-0.30026946,-0.01748854,-0.05578744,-0.00128794,0.95772797,0.05688630,0.27815414,0.04638282
1761617808409,0.06034590,0.04704129,0.00475165,-0.02492898,-0.04084037,0.00979542,0.95779998,0.05674670,0.27792543,0.04643768
1761617808420,-0.07479609,0.01401272,0.02306425,-0.02862206,-0.04996618,-0.00307834,0.95788982,0.05658928,0.27765061,0.04642075
1761617808432,-0.00891572,0.00305961,0.00069594,-0.03504232,-0.04686958,0.00771170,0.95797610,0.05639129,0.27738580,0.04646432
1761617808443,0.05566290,-0.01399065,0.00759468,-0.03127927,-0.05018973,0.00140787,0.95806653,0.05621769,0.27710725,0.04647213
1761617808454,0.01065910,0.00271828,0.07270446,-0.03351792,-0.04601383,-0.00269906,0.95815275,0.05602999,0.27684957,0.04645702
1761617808465,-0.26569911,0.05676028,-0.12367098,-0.01938250,-0.05540648,0.00016694,0.95824779,0.05592242,0.27654207,0.04645794
1761617808476,-0.15861935,0.20651252,-0.04088984,-0.02137955,-0.04067899,0.00484909,0.95831917,0.05580269,0.27631426,0.04648510
1761617808487,-0.02281795,0.02587911,0.03574871,-0.00779363,-0.04557719,0.00520432,0.95839251,0.05575983,0.27606359,0.04651372
1761617808498,0.19346974,-0.02019017,0.12549528,-0.00109154,-0.04315171,0.01109463,0.95845943,0.05575372,0.27582194,0.04657585
1761617808510,0.11947369,-0.02444405,0.10348607,0.00628756,-0.03799643,0.01112530,0.95851606,0.05578924,0.27560726,0.04663871
1761617808521,-0.03992243,0.04172717,-0.00256327,0.00345813,-0.04000402,0.00757889,0.95857616,0.05580826,0.27538724,0.04668039
1761617808532,-0.07332993,-0.05886097,-0.00881331,0.00812043,-0.03439089,0.00104626,0.95862806,0.05585333,0.27519637,0.04668620
1761617808543,-0.02820936,0.00739718,0.02142196,0.00545288,-0.02518127,0.00036765,0.95866700,0.05588414,0.27505409,0.04668828
1761617808554,-0.04113134,-0.07646273,-0.00296289,0.01509888,-0.02846245,0.00517123,0.95870707,0.05597020,0.27489186,0.04671775
1761617808565,0.14119123,0.26844110,0.33803625,0.00203150,-0.02550002,-0.00214579,0.95874574,0.05598097,0.27475671,0.04670638
1761617808576,0.04395329,0.00177469,0.03225267,0.01280940,-0.02075743,0.00372834,0.95877409,0.05605334,0.27463943,0.04672745
1761617808587,-0.00799282,0.04601758,0.03292168,0.00562863,-0.02269102,0.00026009,0.95880826,0.05608458,0.27451349,0.04672889
1761617808599,-0.17870469,-0.17624753,-0.23741106,-0.00344793,-0.01785494,0.01332587,0.95883437,0.05606527,0.27441351,0.04680351
1761617808610,-0.03255039,-0.09224139,-0.06216666,0.00687121,-0.00837026,0.00589863,0.95884400,0.05610409,0.27436621,0.04683684
1761617808621,-0.12619259,-0.02887992,0.01404705,-0.00118707,-0.01393505,0.00405373,0.95886503,0.05609762,0.27429027,0.04685893
1761617808632,0.02509969,0.01665462,0.01912562,-0.01318627,0.00093864,0.00162062,0.95886742,0.05602312,0.27429557,0.04686809
1761617808643,-0.08486859,-0.05984554,-0.02165382,-0.01109836,-0.00157205,-0.00202215,0.95887406,0.05596153,0.27428685,0.04685687
1761617808654,0.04221718,-0.08692843,0.03064773,-0.00668057,0.00491425,-0.00065235,0.95886865,0.05592478,0.27431387,0.04685328
1761617808666,-0.28775168,0.28017692,-0.18314364,-0.01270262,0.00075808,0.00301160,0.95887078,0.05585301,0.27431816,0.04687029
1761617808677,0.05608204,0.06521108,-0.03358951,-0.00792336,0.01529581,0.00533797,0.95884739,0.05580864,0.27440381,0.04690019
1761617808688,-0.03043830,0.05779260,0.06321768,-0.00184735,0.00603242,0.00750804,0.95883636,0.05579839,0.27443729,0.04694186
1761617808699,0.17802540,-0.05756800,0.22349928,0.00623294,0.00830418,0.00692849,0.95881927,0.05583298,0.27448338,0.04698031
1761617808710,-0.00086899,-0.09620584,-0.03897206,0.01924635,0.00996744,0.00267549,0.95879628,0.05594076,0.27453920,0.04699529
1761617808721,0.06763635,0.03321563,0.01997257,0.00819203,0.01596336,0.01648975,0.95876376,0.05598623,0.27462780,0.04708681
1761617808732,-0.03096094,-0.13738917,0.00580518,0.01986572,0.01682696,0.00177568,0.95873008,0.05609648,0.27472119,0.04709667
1761617808744,-0.00653088,0.00259469,0.06743670,-0.00916101,0.00905643,0.00021919,0.95871838,0.05604472,0.27477235,0.04709790
1761617808755,0.09856384,-0.06504708,-0.04930119,-0.00752886,0.01448071,0.00789632,0.95869563,0.05600294,0.27485272,0.04714173
1761617808766,0.24478492,0.08707764,0.24671998,-0.00668794,0.01855307,0.01741060,0.95866351,0.05596582,0.27495569,0.04723836
1761617808777,-0.04982776,-0.05031153,-0.09191529,0.03031894,0.02774749,-0.00120249,0.95860982,0.05613409,0.27510969,0.04723168
1761617808788,-0.00847591,0.05690417,-0.09741302,0.01775342,0.02852940,0.02142222,0.95855221,0.05623351,0.27526946,0.04735165
1761617808799,-0.23671642,0.12544623,-0.28678606,0.02189157,0.02560429,0.01215406,0.95850092,0.05635501,0.27541156,0.04741910
1761617808810,-0.07377893,0.06146318,-0.09020422,0.03261871,0.02364682,-0.02058489,0.95845780,0.05653767,0.27554398,0.04730383
1761617808822,0.03373669,-0.02946020,-0.05892041,0.02473073,0.02759427,-0.02335845,0.95841163,0.05667616,0.27569851,0.04717302
1761617808833,0.02218461,-0.13177060,0.00397599,-0.01633424,0.01990582,-0.03670874,0.95839535,0.05658632,0.27580799,0.04697112
1761617808844,0.06010656,-0.07936360,0.04978150,-0.04162929,0.01446843,-0.01636455,0.95839012,0.05634696,0.27589118,0.04687703
1761617808855,0.07016343,-0.09781330,0.01297895,-0.04758109,0.01504887,-0.00391197,0.95838269,0.05608526,0.27597395,0.04685551
1761617808866,-0.19309935,0.19162154,-0.46008875,-0.05078690,0.02053241,0.00852101,0.95836418,0.05580593,0.27608688,0.04690238
1761617808877,-0.06254894,-0.09505019,-0.02548610,-0.01460095,0.01500840,-0.00676657,0.95834657,0.05572417,0.27617093,0.04686448
1761617808888,0.11393143,0.05392215,-0.00557694,-0.02149689,0.01486616,-0.00005534,0.95832989,0.05560593,0.27625269,0.04686418
1761617808900,0.23421915,-0.16229502,0.29514821,-0.00774445,-0.00008357,-0.00081215,0.95833279,0.05556218,0.27625222,0.04685959
1761617808911,-0.04190772,-0.01436738,-0.07272738,-0.01290325,0.00178407,-0.01342658,0.95833772,0.05549057,0.27626212,0.04678507
1761617808922,0.06385694,0.10449317,0.05514917,-0.01690595,-0.00079395,-0.00855895,0.95834674,0.05539674,0.27625772,0.04673757
1761617808933,-0.00170802,0.02051341,0.02066752,-0.00296810,0.00137095,-0.00828650,0.95834775,0.05538012,0.27626539,0.04669117
1761617808944,0.00113781,0.08765683,0.04999674,0.00747013,0.00544257,-0.00370437,0.95833746,0.05542232,0.27629614,0.04667024
1761617808955,0.00332614,0.13183381,0.02242422,0.01822101,0.00787977,0.00078388,0.95831896,0.05552254,0.27633948,0.04667455
1761617808966,0.11869386,0.15610646,0.20305802,0.02780829,0.01240493,-0.00110940,0.95829045,0.05567687,0.27640833,0.04666839
1761617808978,-0.05552576,0.06309415,0.04464835,0.04939363,0.01432207,-0.02460636,0.95825790,0.05595348,0.27648853,0.04653060
1761617808989,-0.01425494,0.01663076,-0.00380132,0.02078094,0.01881732,0.00037805,0.95822058,0.05606985,0.27659391,0.04653271
1761617809000,-0.13373933,-0.07173539,-0.14764325,0.01666619,0.01451336,-0.00941547,0.95819445,0.05616235,0.27667446,0.04648046
1761617809011,-0.00810348,-0.04389493,-0.00097601,0.03598856,0.02339850,-0.01761694,0.95814955,0.05636388,0.27680549,0.04638180
1761617809022,-0.03950479,-0.01718823,-0.00587602,0.02896279,0.02127754,-0.02294668,0.95811245,0.05652318,0.27692252,0.04625559
1761617809033,0.00078618,-0.06532217,-0.05219899,0.02531623,0.02402368,-0.02597575,0.95807219,0.05666495,0.27705705,0.04611013
1761617809045,-0.01409128,0.07141498,0.02756572,0.01448215,0.01626340,-0.01306002,0.95804432,0.05674677,0.27714894,0.04603634
1761617809056,-0.00356590,0.02812181,-0.06383752,0.02196696,0.02054168,-0.00378088,0.95800547,0.05686759,0.27726192,0.04601555
1761617809067,-0.19391927,-0.04928682,-0.27975671,0.02417402,0.02376630,-0.01512341,0.95796334,0.05700176,0.27739382,0.04593161
1761617809078,-0.01776294,-0.02150642,-0.00699114,0.01698703,0.02059120,-0.01231214,0.95792694,0.05709859,0.27751119,0.04586143
1761617809089,-0.00275044,-0.08741120,0.03047048,0.01010050,0.01710697,0.00242080,0.95789601,0.05715363,0.27760442,0.04587463
1761617809100,0.18742409,-0.09591786,0.31241417,0.01415147,0.00963264,-0.02003171,0.95788101,0.05723288,0.27765837,0.04576245
1761617809111,0.13950564,0.04457978,0.13708681,-0.00160095,0.00544193,-0.01191110,0.95787594,0.05722400,0.27768857,0.04569634
1761617809122,0.04644141,0.10304187,0.01161035,0.00792250,-0.00307938,0.00074491,0.95787807,0.05726797,0.27767148,0.04570048
1761617809134,-0.05314138,0.13689449,-0.01432343,0.03866352,-0.01025921,0.00669015,0.95787997,0.05748448,0.27761403,0.04573794
1761617809145,-0.02850987,0.15347816,-0.03041053,0.07783110,-0.00257128,0.00323584,0.95785702,0.05792034,0.27759963,0.04575606
1761617809156,0.01320850,0.02049089,0.08577320,0.06659857,-0.00393149,0.00475851,0.95783966,0.05828996,0.27757781,0.04578247
1761617809167,0.26583104,-0.15145336,0.43577301,0.04516038,-0.00743517,0.00729779,0.95783434,0.05854286,0.27753617,0.04582334
1761617809178,0.07621453,-0.15775911,0.04116319,0.03461946,-0.00018347,0.01664081,0.95781845,0.05873499,0.27753515,0.04591570
1761617809189,-0.13065314,-0.11069194,-0.08261014,0.02647798,-0.01320681,0.01735791,0.95782611,0.05888327,0.27746119,0.04601290
1761617809200,-0.26243801,0.02219270,-0.35300135,0.02069641,-0.00427489,0.00845898,0.95782366,0.05899814,0.27743747,0.04605985
1761617809212,-0.00096753,-0.02225317,0.04547388,0.01963944,-0.01589933,0.00734231,0.95784053,0.05910713,0.27734923,0.04610060
1761617809223,-0.03592415,0.10317064,-0.02023088,0.00853100,-0.01036405,0.01386261,0.95785065,0.05915491,0.27729119,0.04617823
1761617809234,-0.03873573,-0.02573023,-0.02506074,0.02863054,-0.00771034,0.00629285,0.95785152,0.05931381,0.27724840,0.04621315
1761617809245,-0.01606437,0.03609857,-0.02308727,0.00781168,-0.00114275,0.01287898,0.95784715,0.05935794,0.27724194,0.04628592
1761617809256,-0.15538264,0.04113712,-0.11775603,0.00500046,-0.01075368,0.00573598,0.95786116,0.05938570,0.27718226,0.04631775
1761617809267,-0.27187574,0.01789929,-0.33960280,0.01810084,0.00428773,-0.00585022,0.95784961,0.05948616,0.27720605,0.04628528
1761617809279,-0.07790131,0.03178038,0.06805555,0.00314509,0.00406797,-0.00419389,0.95784306,0.05950377,0.27722883,0.04626180
1761617809290,0.11246665,-0.04609586,0.13451249,0.02220065,0.01380548,-0.00818159,0.95781541,0.05962698,0.27730545,0.04621639
1761617809301,0.17318775,0.03386353,0.29606398,0.04745921,0.01540470,-0.01595319,0.95777848,0.05989038,0.27739095,0.04612785
1761617809312,0.03773364,0.18044422,0.10642823,0.04131470,0.01169883,-0.01361916,0.95774895,0.06011968,0.27745588,0.04605226
1761617809323,0.00186296,-0.00265777,-0.03365947,0.04770958,0.00596907,-0.01412481,0.95772605,0.06038924,0.27748960,0.04597246
1761617809334,0.11565829,0.09365341,0.09618783,0.01849139,0.00819628,0.00426666,0.95770526,0.06049186,0.27753509,0.04599614
1761617809345,-0.12335999,-0.07982117,-0.00000000,0.03745365,-0.00758449,-0.02307777,0.95771045,0.06069973,0.27749300,0.04586806
1761617809357,0.13545411,-0.13932422,0.07062964,0.02542387,-0.00689250,0.00711674,0.95771068,0.06084083,0.27745475,0.04590756
1761617809368,0.41485720,-0.10190354,0.26679421,0.02366125,-0.00114011,-0.01264360,0.95770750,0.06097334,0.27744836,0.04583675
1761617809379,-0.04704129,0.02613405,0.02090724,0.03641040,-0.01091914,0.00324257,0.95771134,0.06117723,0.27738721,0.04585491
1761617809390,-0.10501137,0.17200958,-0.02565889,0.05509097,-0.00214217,0.02875341,0.95768733,0.06148574,0.27737522,0.04601593
1761617809401,-0.44692928,0.16676282,-0.12566587,0.07943439,0.00148063,0.00152288,0.95765642,0.06192263,0.27738336,0.04602430
1761617809412,-0.11059300,0.04530676,-0.02570110,0.07474251,0.00302231,-0.00143658,0.95762503,0.06233745,0.27740014,0.04601633
1761617809424,-0.03598923,-0.07252935,-0.03514816,0.06374271,0.01381178,0.02243528,0.95757281,0.06269760,0.27747817,0.04614309
1761617809435,-0.07801454,-0.06210168,-0.01840018,0.05639967,0.01493674,0.01009013,0.95752554,0.06301062,0.27756107,0.04619909
1761617809446,-0.09142851,-0.15046450,0.01537650,0.05112647,0.01726715,-0.01297874,0.95748212,0.06329693,0.27765777,0.04612641
1761617809457,-0.02094874,-0.12005570,-0.04067079,0.01882436,0.02314099,-0.01097905,0.95744089,0.06340140,0.27778620,0.04606548
1761617809468,-0.15335340,-0.00145129,-0.13061646,-0.00216678,0.01780595,-0.00600347,0.95741461,0.06338938,0.27788502,0.04603216
1761617809479,-0.01064282,0.06627576,-0.01354541,0.02632832,0.01732919,0.01059543,0.95737418,0.06353550,0.27798120,0.04609096
1761617809490,-0.02530358,0.13028927,0.06439122,0.05377984,0.03090910,-0.00170036,0.95730433,0.06383667,0.27815429,0.04608144
1761617809501,-0.00978328,0.07945835,0.23206018,0.05720580,0.04127793,-0.00295063,0.95721729,0.06415416,0.27838338,0.04606506
1761617809513,-0.06680557,-0.02220431,0.07316678,0.05023127,0.03298910,0.00173075,0.95714418,0.06443545,0.27856812,0.04607476
1761617809524,0.07079378,-0.11353352,0.09645922,0.02489398,0.02923721,0.01329267,0.95708408,0.06457361,0.27873039,0.04614853
1761617809535,0.00870776,-0.22349928,0.02515576,0.01675081,0.02046279,0.00186940,0.95704422,0.06466658,0.27884396,0.04615891
1761617809546,0.02479417,-0.04230677,0.06098374,-0.00821809,0.02652999,0.00242355,0.95700337,0.06462056,0.27899253,0.04617248
1761617809557,0.18735515,-0.05164620,0.04199250,-0.01334801,0.02902409,0.02767967,0.95695397,0.06454648,0.27915361,0.04632610
1761617809568,0.29185807,-0.05240081,-0.12049489,0.00619142,0.03349317,0.01026635,0.95689412,0.06458115,0.27934117,0.04638359
1761617809579,0.01560573,0.17768417,-0.00419839,0.01782728,0.02829729,0.03025244,0.95683342,0.06468009,0.27949822,0.04655149
1761617809591,-0.10486705,0.13813692,-0.00079332,0.03066935,0.02888355,0.02361076,0.95676692,0.06485491,0.27966286,0.04668607
1761617809602,-0.36779543,0.03345795,0.08654959,0.05868336,0.02826940,0.00078187,0.95670054,0.06517180,0.27981551,0.04669030
1761617809613,0.00830658,0.06727978,-0.02337106,0.03948147,0.01274064,0.01847082,0.95665953,0.06539289,0.27988686,0.04679373
1761617809624,0.08032221,0.01215027,0.02436101,0.02917498,0.02638567,0.02004649,0.95660015,0.06555482,0.28003330,0.04690499
1761617809635,-0.03628235,-0.01209412,-0.02805835,0.04130258,0.01771859,0.00660318,0.95655382,0.06578404,0.28013164,0.04694164
1761617809646,0.01644800,-0.01983435,-0.04160376,0.04469875,0.02251773,0.00875115,0.95649773,0.06603212,0.28025661,0.04699021
1761617809657,0.01741553,-0.02467200,0.01935059,0.02498783,0.02574648,-0.00440756,0.95644747,0.06617080,0.28039950,0.04696574
1761617809668,-0.25408585,0.21925656,-0.38343165,0.01940532,0.02311902,-0.01510911,0.95640798,0.06627462,0.28052319,0.04688491
1761617809679,0.06289936,0.06171366,-0.00710526,0.00683433,0.01107920,-0.00113904,0.95638744,0.06631290,0.28058523,0.04687853
1761617809690,0.00950329,-0.04894195,-0.10548654,0.04182089,0.01374810,-0.00698126,0.95635049,0.06654709,0.28066222,0.04683944
1761617809701,0.17526103,-0.14006715,0.30906515,0.03173967,0.01100875,0.00800245,0.95631811,0.06672325,0.28072332,0.04688385
1761617809713,-0.01644800,-0.00919153,-0.08707764,0.05149196,0.02518334,0.00455273,0.95625585,0.06700903,0.28086309,0.04690912
1761617809724,-0.05095819,0.00965312,-0.03184031,0.03172658,0.01554193,0.00595855,0.95621618,0.06718670,0.28095012,0.04694249
1761617809735,-0.08552962,-0.06177140,-0.05416876,0.02416578,0.00737290,0.00015673,0.95619448,0.06732203,0.28099141,0.04694336
1761617809746,0.01145486,-0.07270724,-0.03899489,0.02230475,0.01199148,0.00446815,0.95616498,0.06744582,0.28105797,0.04696816
1761617809757,0.07987902,-0.20923936,0.11942470,0.00526212,0.00533223,0.00024042,0.95615406,0.06747528,0.28108783,0.04696951
1761617809768,0.28174109,-0.22765015,0.27425137,0.01160118,0.01259209,0.01214612,0.95612565,0.06753967,0.28115771,0.04703692
1761617809779,-0.03821741,0.07449976,-0.02322070,0.03605698,0.00207801,0.02461273,0.95610137,0.06773979,0.28116925,0.04717352
1761617809791,-0.09749220,0.27207654,-0.10417447,0.05724771,0.01091643,0.01913272,0.95605492,0.06806324,0.28123092,0.04728162
1761617809802,-0.20184845,0.45820553,-0.11978472,0.06347920,0.01186842,0.02780216,0.95600322,0.06841237,0.28129620,0.04743453
1761617809813,-0.00223759,0.02215995,-0.04029396,0.08432151,0.02653238,0.01387328,0.95592172,0.06888457,0.28144478,0.04751222
1761617809824,-0.02946020,0.13257092,0.07032436,0.06992898,0.02449715,0.00670333,0.95585115,0.06927618,0.28158196,0.04754976
1761617809835,-0.03978532,-0.02027492,-0.00388739,0.07333012,0.02187214,0.01854408,0.95578068,0.06968316,0.28170335,0.04765268
1761617809846,-0.05708423,-0.03483106,0.05901929,0.06601867,0.02277264,0.00758269,0.95571453,0.07004956,0.28182974,0.04769476
1761617809858,-0.01349491,-0.01032829,-0.05133869,0.07198000,0.02742698,0.01431007,0.95563488,0.07045625,0.28198471,0.04777562
1761617809869,-0.18172158,0.16876576,-0.10144952,0.08172534,0.02933830,0.00649863,0.95555222,0.07090574,0.28214607,0.04781136
1761617809880,0.02005507,0.01076167,-0.04875004,0.08807190,0.02083871,0.00676452,0.95547848,0.07140334,0.28226380,0.04784958
1761617809891,0.08245833,-0.01239808,-0.01913653,0.08826924,0.02859629,0.00701939,0.95539289,0.07189324,0.28242251,0.04788854
1761617809902,0.17125269,-0.09626917,0.06095435,0.07044128,0.02115288,0.01504035,0.95532449,0.07228419,0.28253991,0.04797201
1761617809913,-0.03775204,-0.05567131,-0.09598324,0.07239161,0.02266009,0.00380639,0.95525512,0.07268958,0.28266681,0.04799333
1761617809925,0.02565889,-0.11071335,-0.08647995,0.06155275,0.02276784,0.01274135,0.95518750,0.07303428,0.28279431,0.04806468
1761617809936,0.00219031,-0.10833690,-0.06643068,0.04643648,0.02422242,0.00332252,0.95512756,0.07328968,0.28292753,0.04808295
1761617809947,0.04726592,-0.14543492,-0.09060957,0.03808602,0.01621331,0.00703803,0.95508229,0.07350296,0.28301833,0.04812236
1761617809958,0.05511909,-0.05939557,-0.00380132,0.04410754,0.01180840,-0.01781335,0.95504867,0.07374996,0.28308445,0.04802261
1761617809969,0.20810951,0.00589588,0.04139643,0.03696642,0.01076358,-0.01735334,0.95501993,0.07395512,0.28314419,0.04792630
1761617809980,0.05081264,0.00508555,-0.00396399,0.01646172,0.00958973,-0.00702222,0.95499884,0.07404731,0.28319789,0.04788697
1761617809991,-0.03772501,-0.09124147,-0.16144782,0.02955514,0.01423478,-0.00513496,0.95496411,0.07421134,0.28327690,0.04785848
1761617810002,-0.21866163,-0.03483106,-0.14996705,0.02253617,0.00100155,-0.01158379,0.95495595,0.07433642,0.28328246,0.04779419
1761617810014,0.00226024,-0.08222488,-0.06769597,0.00676844,0.00696218,-0.01575775,0.95494584,0.07437432,0.28332144,0.04770594
1761617810025,-0.00855296,-0.13494674,-0.02946020,-0.00185168,0.00494616,-0.00122195,0.95493877,0.07436395,0.28334914,0.04769910
1761617810036,0.03150517,-0.20948738,-0.08773418,-0.01802843,0.00726194,0.00126026,0.95493425,0.07426389,0.28338945,0.04770609
1761617810047,0.01676774,-0.06275169,0.03563306,-0.04298805,0.00269433,-0.01020835,0.95495132,0.07402316,0.28340453,0.04764893
1761617810058,-0.04739598,-0.07552344,-0.14818748,-0.04711293,-0.00631410,-0.01438015,0.95498593,0.07376168,0.28336949,0.04756912
1761617810069,-0.22591810,0.01983435,-0.18286304,-0.02364854,-0.01740884,-0.00262448,0.95502545,0.07363043,0.28327287,0.04755455
1761617810080,0.08128311,-0.01798348,-0.07864616,-0.00567100,-0.01988532,0.00067832,0.95506073,0.07359868,0.28316151,0.04755835
1761617810092,0.10596170,0.15110234,0.09978456,-0.03831705,-0.02098222,-0.01074213,0.95511506,0.07338410,0.28304401,0.04749819
1761617810103,0.22408919,-0.00507554,0.05606848,-0.03465636,-0.02401088,-0.01694281,0.95517344,0.07319349,0.28291195,0.04740501
1761617810114,0.00561558,0.08148641,0.01335644,-0.04599485,-0.02584125,-0.00854924,0.95523837,0.07293592,0.28276724,0.04735713
1761617810125,-0.03706284,-0.05179294,-0.02946020,-0.03234563,-0.03289154,-0.01331439,0.95531038,0.07275478,0.28258305,0.04728257
1761617810136,0.05708423,-0.11184034,0.06900557,-0.05660839,-0.02333306,-0.00502940,0.95537393,0.07244061,0.28245355,0.04725466
1761617810147,0.04130935,-0.12674052,0.01618984,-0.05466247,-0.02196480,0.00469957,0.95543215,0.07213450,0.28233055,0.04728098
1761617810159,0.13776977,-0.04645397,0.19135765,-0.05101055,-0.03090168,-0.00016244,0.95550354,0.07185394,0.28216059,0.04728008
1761617810170,0.28093458,0.10264419,0.27011810,-0.04418076,-0.03845080,0.00079952,0.95558545,0.07160653,0.28194527,0.04728456
1761617810181,-0.11191377,0.14001100,0.00427613,-0.03333691,-0.03550479,-0.00793583,0.95565959,0.07142151,0.28174821,0.04724052
1761617810192,-0.18368750,0.02374539,-0.16579391,-0.01532157,-0.02193125,-0.00799805,0.95570441,0.07133571,0.28162540,0.04719573
1761617810203,-0.22855416,0.06414722,-0.10738719,-0.02472516,-0.01539037,-0.00249654,0.95574082,0.07119724,0.28153921,0.04718175
1761617810214,-0.07208679,-0.05105451,0.05200452,-0.02214115,-0.00895935,-0.00054366,0.95576454,0.07107547,0.28148994,0.04717876
1761617810225,0.00712747,-0.11378896,0.09432449,-0.03021770,-0.00029361,0.01047122,0.95577470,0.07090625,0.28148829,0.04723739
1761617810237,-0.00237582,-0.08743028,0.11879114,-0.04472177,0.00795195,0.00637444,0.95577836,0.07065581,0.28153282,0.04727309
1761617810248,-0.00939022,0.00820240,0.10001835,-0.04053333,0.00908832,0.00674328,0.95577826,0.07043085,0.28158326,0.04731052
1761617810259,-0.03440876,0.09165539,0.01681483,-0.02059062,0.01139710,0.01273906,0.95576441,0.07031554,0.28164709,0.04738186
1761617810270,-0.02623559,0.20406662,-0.02180396,-0.01816234,0.02555359,0.00291020,0.95572921,0.07021474,0.28178891,0.04739801
1761617810281,-0.09336658,0.01596423,-0.02805835,0.02293765,0.02281917,-0.00038104,0.95568261,0.07034204,0.28191556,0.04739589
1761617810292,-0.00453333,0.03234544,0.10073489,0.01069217,0.02790876,-0.00619877,0.95563380,0.07040192,0.28207185,0.04736118
1761617810303,0.02850987,0.09788390,0.18911550,-0.02042739,0.02578694,-0.00714175,0.95560157,0.07028753,0.28221625,0.04732119
1761617810315,0.04740462,-0.05932164,0.02295291,0.00311057,0.02483029,-0.00848956,0.95556192,0.07030479,0.28235406,0.04727407
1761617810326,0.00291850,-0.06747034,0.02719167,0.00254486,0.02430973,0.00337388,0.95551932,0.07031917,0.28249141,0.04729313
1761617810337,-0.01519248,-0.01607153,0.07402671,-0.01505361,0.02765643,-0.00256234,0.95548147,0.07023713,0.28264214,0.04727917
1761617810348,0.06926933,-0.03397730,0.06489691,-0.01543189,0.01543098,0.01507105,0.95545787,0.07014994,0.28272932,0.04736432
1761617810359,0.20991962,-0.05751662,0.17703218,-0.01641459,0.01292346,0.01045736,0.95544045,0.07005883,0.28280105,0.04742236
1761617810370,0.20705128,-0.01596423,0.21866163,-0.00521030,0.01364377,0.00586231,0.95541853,0.07002992,0.28287677,0.04745489
1761617810381,0.01723435,0.17025875,0.04925445,0.00239845,0.00609138,0.00609344,0.95540575,0.07004335,0.28291088,0.04748902
1761617810393,-0.15768137,0.16103748,-0.12419794,0.02468324,0.00351165,0.01533844,0.95538569,0.07018034,0.28293037,0.04757414
1761617810404,-0.20124610,0.17705787,-0.10546070,0.05744329,0.00389840,0.01070399,0.95535285,0.07049915,0.28295201,0.04763355
1761617810415,0.02310755,0.06643743,0.03944294,0.04561488,0.00880681,0.02133544,0.95531340,0.07075459,0.28300133,0.04775303
1761617810426,0.05602168,0.17000873,0.16822052,0.03756798,0.01529721,0.01136223,0.95526962,0.07096310,0.28308623,0.04781609
1761617810437,-0.05514917,-0.02805835,0.02128565,0.08162579,-0.00068315,-0.01182785,0.95524027,0.07141612,0.28308243,0.04775044
1761617810448,0.13978400,0.22091728,0.15715533,0.06195880,0.00281280,-0.00248776,0.95521029,0.07176309,0.28309819,0.04773651
1761617810459,0.08647995,0.04276481,-0.02090724,0.09583437,-0.00289525,0.00565443,0.95517304,0.07229976,0.28308197,0.04776818
1761617810470,0.01067738,0.08467177,-0.00492403,0.10624138,-0.00929467,0.00854408,0.95514114,0.07288940,0.28303039,0.04781560
1761617810482,0.02805835,0.10255811,0.07836988,0.10971318,-0.00635668,0.00772465,0.95510279,0.07349831,0.28299511,0.04785847
1761617810493,-0.02888658,0.04252081,0.08116325,0.11272206,-0.00439555,0.00084889,0.95506106,0.07412955,0.28297049,0.04786322
1761617810504,-0.07317535,-0.06794853,0.00380132,0.11608507,-0.00051183,-0.00582892,0.95501286,0.07477963,0.28296763,0.04783058
1761617810515,-0.04248678,0.00988719,0.08451615,0.08424494,0.00119921,0.01088968,0.95497151,0.07524298,0.28297422,0.04789047
1761617810526,-0.04760285,-0.14275672,-0.02028521,0.07874449,0.01693891,0.00009769,0.95490852,0.07568395,0.28306908,0.04789102
1761617810537,-0.13019509,-0.14492520,-0.06747337,0.07365723,0.02127751,0.00203841,0.95483984,0.07609643,0.28318823,0.04790244
1761617810549,-0.06494541,-0.11038905,-0.02288380,0.06023560,0.02993658,0.00085984,0.95476360,0.07643073,0.28335438,0.04790721
1761617810560,0.07101784,-0.08874020,0.13671898,0.04879615,0.03661478,0.00831082,0.95467847,0.07670399,0.28355942,0.04795375
1761617810571,0.08556588,-0.10154739,0.05458766,0.06157398,0.04192719,0.01370301,0.95457798,0.07704573,0.28379212,0.04802980
1761617810582,-0.11473726,-0.04998646,-0.09116311,0.04680408,0.04970138,-0.00055034,0.95447416,0.07730783,0.28407045,0.04802672
1761617810593,-0.20157869,-0.06421544,-0.25245605,0.03415083,0.05216848,0.02046780,0.95436684,0.07749737,0.28435998,0.04814032
1761617810604,-0.12481128,-0.04402258,-0.22156422,0.00957504,0.06451884,0.01426801,0.95425176,0.07755051,0.28471806,0.04821950
1761617810615,-0.04762776,-0.16214670,-0.11751548,0.01644472,0.05672750,0.00940706,0.95414677,0.07764260,0.28503574,0.04827218
1761617810627,-0.06707915,-0.19244331,-0.12040557,0.01452124,0.05196878,0.01347346,0.95405021,0.07772319,0.28532416,0.04834696
1761617810638,0.14630788,-0.08344489,-0.04032478,-0.02061887,0.05019345,0.01985672,0.95396986,0.07760773,0.28560525,0.04845816
1761617810649,0.08264601,-0.12769228,-0.07831804,-0.02194771,0.03717360,0.02325997,0.95391140,0.07748592,0.28581156,0.04858725
1761617810660,0.02563953,0.13158399,-0.26994068,-0.02233106,0.01792729,0.03439706,0.95388190,0.07736198,0.28591106,0.04877815
1761617810671,0.05466541,0.15819105,-0.24381739,-0.02246382,0.01366412,0.02625856,0.95386181,0.07723731,0.28598689,0.04892389
1761617810682,0.07982117,0.00870776,-0.12094117,-0.02030485,0.00268257,0.01327134,0.95386268,0.07712461,0.28600178,0.04899755
1761617810693,0.18134164,0.01319759,0.14025489,-0.04068595,-0.00876646,0.03225011,0.95388650,0.07689677,0.28595269,0.04917815
1761617810705,0.14341344,-0.07630796,0.00865232,-0.01829002,-0.01915738,0.02026699,0.95392136,0.07679343,0.28584445,0.04929265
1761617810716,-0.00630178,-0.08511690,-0.14161890,0.01733223,-0.02248362,-0.00789231,0.95395325,0.07688963,0.28571967,0.04924885
1761617810727,0.07449976,0.08127246,-0.03192847,0.00328867,-0.02818290,0.00466560,0.95399728,0.07690788,0.28556325,0.04927475
1761617810738,0.13411199,0.14637209,0.01881823,-0.01529345,-0.03119477,0.01693079,0.95405155,0.07682224,0.28538856,0.04936956
1761617810749,0.01029296,-0.06835336,-0.07220188,0.02452911,-0.02981996,-0.02328669,0.95409675,0.07695837,0.28522306,0.04924032
1761617810760,0.18334681,0.10400940,0.13835670,-0.00373814,-0.03882591,-0.02284889,0.95416935,0.07693763,0.28500758,0.04911351
1761617810771,0.34008656,0.05708423,0.22833692,-0.01550358,-0.02564380,-0.02925787,0.95422713,0.07685158,0.28486525,0.04895113
1761617810782,-0.00919153,0.00725647,-0.05805176,0.00522007,-0.02576231,-0.02020078,0.95427321,0.07688055,0.28472227,0.04883901
1761617810794,-0.22049777,-0.05728944,-0.10128283,-0.00516168,-0.03641583,-0.02662888,0.95434398,0.07685165,0.28451834,0.04868989
1761617810805,-0.14112388,-0.09123160,-0.14635069,-0.02731266,-0.01242537,-0.01504996,0.95438132,0.07669870,0.28444876,0.04860561
1761617810816,-0.05212564,-0.19506514,0.01281976,-0.01290037,-0.02560557,-0.01966999,0.95443497,0.07662710,0.28430665,0.04849644
1761617810827,0.06385694,-0.05950305,0.05127905,-0.02660267,-0.03165844,-0.00184418,0.95449965,0.07647945,0.28413095,0.04848621
1761617810838,0.04160376,0.03483106,0.02999341,-0.03286367,-0.02480478,-0.02212922,0.95456145,0.07629706,0.28399328,0.04836339
1761617810849,-0.05570984,0.06192122,-0.00962315,-0.00965326,-0.03256670,-0.01421242,0.95462404,0.07624300,0.28381091,0.04828380
1761617810860,0.06056561,0.09087433,-0.04156921,-0.00455986,-0.02306315,-0.00879469,0.95466657,0.07621770,0.28368290,0.04823499
1761617810872,-0.03918494,0.01064282,-0.06772705,0.00768211,-0.02744180,-0.00936196,0.95471103,0.07626033,0.28353060,0.04818303
1761617810883,0.00209329,-0.00890398,0.05700263,-0.01759464,-0.01858578,0.00455048,0.95474851,0.07616180,0.28342652,0.04820851
1761617810894,-0.09257614,-0.16033343,0.00730830,-0.02397467,-0.02348716,-0.00338157,0.95479875,0.07602874,0.28329617,0.04818974
1761617810905,-0.04063623,-0.04886023,0.10642823,-0.02865653,-0.02432179,-0.01765356,0.95485638,0.07586970,0.28316118,0.04809177
1761617810916,0.09068366,-0.02075313,0.01747407,-0.02870497,-0.01376437,0.00125390,0.95489164,0.07570895,0.28308410,0.04809879
1761617810927,-0.00490676,0.10463139,0.07718638,-0.02725616,-0.02447690,0.00423717,0.95494270,0.07555768,0.28294826,0.04812231
1761617810938,-0.05643329,0.09492162,0.04514492,0.00444244,-0.01560475,-0.01137532,0.95496983,0.07558256,0.28286087,0.04805860
1761617810950,0.00712747,0.14207421,0.03136086,-0.00241606,-0.00875838,0.00209740,0.95498484,0.07556903,0.28281182,0.04807035
1761617810961,0.04152601,0.14836458,0.08341485,0.00836237,-0.00026229,-0.01410091,0.95498553,0.07561544,0.28281037,0.04799209
1761617810972,0.00351022,0.01926771,0.06082963,0.01254040,0.00075942,-0.01211814,0.95498211,0.07568566,0.28281462,0.04792423
1761617810983,0.01435744,-0.01460365,0.08084917,0.00022444,0.01179698,-0.01045540,0.95496553,0.07568691,0.28288009,0.04786620
1761617810994,-0.12335999,-0.16835010,-0.00483765,-0.00378585,0.01354876,-0.00403894,0.95494605,0.07566590,0.28295529,0.04784378
1761617811005,-0.14713407,-0.08619742,0.00639546,-0.00977404,0.01945930,-0.01614332,0.95492261,0.07561116,0.28306426,0.04775338
1761617811016,0.08702149,0.05794810,0.00515728,-0.00786946,0.02419737,-0.00428051,0.95488744,0.07556749,0.28319856,0.04772962
1761617811028,-0.03192847,0.02273694,0.01935059,0.00172864,0.01766941,-0.00462958,0.95485887,0.07557708,0.28329662,0.04770393
1761617811039,0.03472982,-0.00916511,-0.03569299,0.01003473,0.01925565,-0.00574670,0.95482403,0.07563328,0.28340445,0.04767175
1761617811050,-0.08267864,0.03136086,0.01425494,0.01243144,0.01511817,-0.00655740,0.95479521,0.07570289,0.28348911,0.04763503
1761617811061,-0.11513167,0.08887016,-0.11962809,0.00494863,0.02178636,0.00247568,0.95475644,0.07573036,0.28361003,0.04764877
1761617811072,-0.12916517,-0.02902588,-0.04837647,0.00029988,0.02035846,-0.00338670,0.95472368,0.07573202,0.28372302,0.04762997
1761617811083,0.03386353,-0.07740235,-0.04547388,0.00002720,0.01490225,-0.00584683,0.95470070,0.07573217,0.28380573,0.04759752
1761617811094,0.17576809,-0.04484526,0.10513551,-0.00365014,0.00363269,-0.01115298,0.95469938,0.07571173,0.28382607,0.04753506
1761617811106,0.18626451,-0.00570197,-0.01330461,0.00003266,0.00743809,0.00067620,0.95468680,0.07571192,0.28386772,0.04753885
1761617811117,-0.00779207,0.00843133,-0.07524268,0.01663481,-0.00056751,-0.00096155,0.95468067,0.07580424,0.28386457,0.04753351
1761617811128,-0.04644627,0.14749793,0.01470014,0.00913489,-0.00670570,-0.00340668,0.95468872,0.07585539,0.28382702,0.04751444
1761617811139,0.00184725,-0.09472001,-0.02232535,0.01565619,-0.00188835,-0.01290422,0.95468850,0.07594150,0.28381663,0.04744346
1761617811150,0.07516240,-0.03289003,0.04473459,-0.01513903,0.00259260,-0.00298872,0.95469175,0.07585672,0.28383115,0.04742673
1761617811161,0.10627849,-0.33561914,0.17002058,-0.00424956,-0.00215036,-0.00693004,0.95469921,0.07583271,0.28381900,0.04738757
1761617811172,0.15320307,-0.01877548,0.23594250,-0.03202064,-0.00131486,-0.00321018,0.95471621,0.07565660,0.28381177,0.04736992
1761617811184,-0.07618184,-0.04350780,-0.00412961,-0.02363411,-0.00935518,-0.00722429,0.95474427,0.07552425,0.28375938,0.04732946
1761617811195,-0.07269428,0.11390930,-0.24997675,-0.01187459,-0.00565640,-0.01039091,0.95476167,0.07545835,0.28372799,0.04727179
1761617811206,-0.02418823,0.21624281,-0.09094776,-0.01233945,-0.01166098,-0.00564289,0.95478786,0.07538986,0.28366327,0.04724047
1761617811217,-0.04748221,0.05530316,0.01761962,0.00221994,-0.01787911,-0.00656274,0.95481844,0.07540229,0.28356315,0.04720372
1761617811228,0.09386762,0.07723389,0.01898776,-0.00425177,-0.01101956,-0.00225679,0.95483908,0.07537870,0.28350199,0.04719120
1761617811239,-0.07691858,-0.05563294,0.02418823,0.00797929,-0.01341440,-0.00960130,0.95486032,0.07542298,0.28342754,0.04713791
1761617811250,0.05020050,0.07124900,0.10165954,-0.00920085,-0.01158255,-0.00339907,0.95488457,0.07537146,0.28336268,0.04711887
1761617811262,-0.11451466,0.03991382,-0.06747337,0.00228299,-0.00754132,-0.00643283,0.95489787,0.07538424,0.28332045,0.04708285
1761617811273,-0.03185936,0.09585451,0.00807714,0.01161998,-0.00618136,-0.00719431,0.95490492,0.07544873,0.28328614,0.04704292
1761617811286,-0.00088258,0.08243391,0.02669217,0.01427880,-0.00634280,-0.00949614,0.95491322,0.07554583,0.28324301,0.04697835
1761617811295,0.29482159,0.06442378,0.36399047,0.08872960,-0.00782550,-0.01559429,0.95489703,0.07590962,0.28321092,0.04691441
1761617811306,0.01580261,0.20466543,0.06798083,0.03111710,-0.00253823,-0.00075352,0.95488750,0.07608543,0.28319658,0.04691015
1761617811317,-0.08331883,-0.03766087,-0.01765527,0.05766717,-0.00922093,-0.02048190,0.95488270,0.07640548,0.28314541,0.04679648
1761617811328,0.02264951,-0.05648465,0.00787660,0.05278130,-0.00883780,-0.02165426,0.95487961,0.07670106,0.28309591,0.04667522
1761617811339,0.08647725,-0.03443800,0.09461055,0.03346047,-0.02750411,-0.00627192,0.95491162,0.07688676,0.28294327,0.04664041
1761617811350,0.03926315,0.05456259,0.09059805,0.03337618,-0.02543109,-0.02039989,0.95494431,0.07707367,0.28280085,0.04652617
1761617811362,0.45900898,0.03278636,0.32786356,0.05699543,-0.02418300,-0.00494675,0.95495994,0.07739285,0.28266543,0.04649847
1761617811373,0.12468170,0.07973046,0.15828607,0.05125521,-0.02882327,-0.02087876,0.95498982,0.07767731,0.28250546,0.04638259
1761617811384,-0.00002568,0.11199758,0.07025587,0.03488513,-0.02710812,0.00479456,0.95501750,0.07787267,0.28235365,0.04640944
1761617811395,-0.41173537,-0.06787236,-0.28916085,0.04078507,-0.02571091,0.01016477,0.95503883,0.07810310,0.28220839,0.04646687
1761617811410,-0.24611858,-0.21777016,-0.28057914,0.04977134,-0.02543681,-0.00581683,0.95506596,0.07846643,0.28202270,0.04642441
1761617811417,0.57495070,0.58794808,1.25088104,0.06376961,-0.04585591,0.01400444,0.95509259,0.07868963,0.28186220,0.04647342
1761617811428,-0.30195425,-0.32696660,-0.57402268,0.04614113,-0.03298237,0.00486384,0.95512358,0.07894110,0.28168245,0.04649993
1761617811444,-0.08355737,-0.10065575,-0.22207004,0.03961365,-0.01822287,-0.01141945,0.95514490,0.07925999,0.28153575,0.04640800
1761617811449,0.76257717,0.98966452,2.03932373,0.10323665,-0.05667507,-0.04873432,0.95517425,0.07954905,0.28137706,0.04627155
1761617811462,-0.36636964,-0.29514438,-0.70407751,0.01806225,-0.02422851,-0.02577338,0.95521654,0.07966013,0.28122806,0.04611304
1761617811486,-0.08107408,-0.12099539,-0.20322753,0.01174533,-0.00899693,-0.00231217,0.95523798,0.07980166,0.28111965,0.04608518
1761617811490,1.98018528,2.88136660,12.94165233,0.08448464,-0.07436349,-0.01375586,0.95526661,0.07995796,0.28098207,0.04605973
1761617811502,-0.46557327,-1.01420097,-3.41839223,-0.00037195,-0.01433425,0.00344482,0.95529171,0.07995567,0.28089392,0.04608092
1761617811512,0.19719423,-0.09643914,0.33784860,-0.00061898,-0.02127915,0.00111073,0.95532204,0.07995267,0.28079071,0.04608630
1761617811523,-0.03581217,-0.01080470,-0.21779978,-0.01484759,-0.02647034,0.01210819,0.95537139,0.07986581,0.28063586,0.04615714
1761617811535,0.03308962,0.08831730,-0.05973080,0.01784400,-0.02485718,0.00867517,0.95540236,0.07996842,0.28049293,0.04620702
1761617811546,-0.11898394,0.14377226,-0.00630975,0.03453914,-0.02691670,0.01397899,0.95542726,0.08016702,0.28033816,0.04628740
1761617811558,0.13791320,-0.01667578,0.13520902,0.03563146,-0.01872898,0.01311929,0.95543798,0.08037190,0.28023047,0.04636283
1761617811569,0.48143870,-0.02309942,0.55039797,0.01913417,-0.01670861,0.02286835,0.95545039,0.08048096,0.28013523,0.04649318
1761617811580,-0.01077306,-0.12501012,0.01895011,-0.00035269,-0.01184881,0.03921216,0.95545938,0.08047897,0.28006829,0.04671473
1761617811592,-0.12599568,-0.13246532,-0.13344348,-0.02126310,-0.00600284,0.02842909,0.95547167,0.08035777,0.28003407,0.04687678
1761617811603,-0.26452764,-0.10302586,-0.25001205,-0.03271391,-0.01454227,0.00978601,0.95550856,0.08017294,0.27995191,0.04693207
1761617811615,0.11314974,0.10533260,0.08454370,-0.03230786,-0.01038172,0.02727573,0.95553368,0.07998878,0.27989273,0.04708754
1761617811626,0.01888459,0.20601897,-0.00407010,-0.00940231,-0.01522314,0.00280349,0.95556254,0.07993566,0.27980672,0.04710338
1761617811637,0.05391141,0.04225029,0.00966020,0.02125901,-0.02594980,-0.00108003,0.95559482,0.08005258,0.27966400,0.04709744
1761617811649,-0.04805248,0.00688614,-0.10837208,0.00377586,-0.04327396,-0.01091404,0.95567210,0.08007524,0.27940435,0.04703196
1761617811663,-0.00020237,-0.04337459,-0.15805829,0.00347802,-0.03088443,0.00637475,0.95573146,0.08009976,0.27918662,0.04707690
1761617811674,0.22355074,-0.00364367,0.22051435,0.00281583,-0.04735946,0.01252273,0.95580347,0.08011539,0.27892377,0.04714640
1761617811681,0.71416793,-0.10376335,1.31565660,-0.00447329,-0.05321617,0.02635249,0.95585529,0.08009951,0.27873485,0.04723995
1761617811789,-0.12672712,0.00061661,-0.20284737,0.00073839,-0.00290430,0.00081997,0.95589529,0.08013919,0.27857875,0.04728402
1761617811806,5.40748474,-3.52609923,8.62547761,-0.38330933,-0.46730671,0.07178968,0.95730504,0.07682357,0.27453655,0.04790500
1761617811832,-2.66113249,1.40477161,-3.32333508,-0.21955999,-0.16770177,-0.05410704,0.95817701,0.07400222,0.27238158,0.04720973
1761617811858,0.01238627,-0.07618744,0.09494882,-0.18895092,-0.12131368,-0.07849293,0.95886269,0.07153641,0.27079843,0.04618540
1761617811890,-0.27196341,0.48961785,-0.75577208,-0.08276192,-0.07377087,-0.02646066,0.95932180,0.07018739,0.26959597,0.04575409
1761617811909,0.44740313,0.08305205,1.99551877,-0.01510780,-0.08562910,-0.05041012,0.95958186,0.07004462,0.26878677,0.04527771
1761617811930,-0.24818849,0.14761075,-0.85640817,0.02493430,-0.02744348,-0.04524314,0.95966648,0.07030893,0.26849587,0.04479813
1761617811983,-0.19396073,0.08503654,-0.63734527,-0.02066384,-0.01756150,-0.01237534,0.95984863,0.06977064,0.26803840,0.04447576
1761617811987,92.53996226,-6.08142739,261.40784341,-1.36507988,-1.15312033,-0.98257498,0.96084164,0.06683571,0.26555919,0.04236322
1761617812043,-6.96112041,0.48607921,-19.57539368,-0.00592062,-0.05091305,-0.02020966,0.96127003,0.06667023,0.26413617,0.04179836
1761617812047,39.94279621,3.35618700,133.66970998,-0.26821914,-0.54968223,-0.04335825,0.96164637,0.06608015,0.26292687,0.04170297
1761617812074,-6.23022028,-0.45914307,-20.34359523,-0.01896135,-0.08309736,-0.00174089,0.96197095,0.06582417,0.26180505,0.04167947
1761617812128,-0.31776880,-0.06808747,-1.16135031,0.01598990,-0.01902229,0.04140157,0.96203187,0.06625590,0.26129145,0.04279731
1761617812167,0.31370564,0.11026392,0.94781524,0.05998982,-0.03528110,0.08657734,0.96206028,0.06741070,0.26061229,0.04446393
1761617812205,0.34951176,-0.17231894,0.29815417,-0.14046524,-0.10255646,0.12710191,0.96265926,0.06472079,0.25864833,0.04689793
1761617812240,-0.16827312,0.10153631,-0.62546796,0.09425991,-0.13320882,-0.03265246,0.96319492,0.06636092,0.25633050,0.04632978
1761617812273,0.00048358,-0.19996841,-0.12407006,-0.00759966,-0.15261863,-0.05911950,0.96392092,0.06623476,0.25379703,0.04534839
1761617812308,-0.31235412,0.23024708,-0.54548311,-0.02480740,-0.16917943,-0.09321766,0.96479561,0.06580311,0.25085331,0.04372640
1761617812345,0.09148312,-0.36225208,-0.32165061,0.04095906,-0.12537656,0.06704447,0.96529073,0.06656700,0.24851503,0.04497678
1761617812380,-0.01377824,0.16605553,-0.26675800,0.01349771,-0.28551403,0.01438531,0.96653527,0.06680321,0.24351854,0.04522853
1761617812411,0.14107880,-0.08273057,-0.11232290,0.03461188,-0.23677515,0.00791386,0.96740959,0.06733969,0.23984852,0.04535119
1761617812433,1.27937737,0.17316498,0.33892386,-0.16864696,-0.44547488,-0.00920908,0.96870729,0.06553517,0.23508194,0.04525265
1761617812455,-0.51681181,-0.63474360,-0.35554105,0.00354346,-0.47710060,-0.12965955,0.97005836,0.06557503,0.22971456,0.04379398
1761617812478,0.10004922,-0.26667719,0.30454643,-0.18798221,-0.36269281,0.08704660,0.97115764,0.06336624,0.22545292,0.04481678
1761617812523,-0.58318550,0.39828741,-0.29808898,-0.07781519,-0.19012281,-0.00122681,0.97225461,0.06161540,0.22117516,0.04478918
1761617812558,0.82225302,-0.39093928,0.55311789,-0.07808552,-0.49280825,-0.02727236,0.97423818,0.06028014,0.21274814,0.04432282
1761617812559,720.47223333,-174.54156018,389.03386334,-3.82533486,-10.75656193,1.72423871,0.97619817,0.05721987,0.20414289,0.04570221
1761617812590,-37.44843518,9.47630537,-20.76621577,0.01152934,-0.51830870,-0.03603320,0.97784873,0.05739742,0.19616093,0.04514730
1761617812625,-0.43609892,-0.12337429,0.15028134,-0.01906564,-0.26733018,0.03316007,0.97875778,0.05706759,0.19153612,0.04572097
1761617812638,2.88914904,-1.63248244,1.92532247,-0.17258326,-0.55015020,0.03508812,0.97955601,0.05586813,0.18771258,0.04596483
1761617812652,0.00550336,0.31242337,0.71025589,-0.29584626,-0.59073580,0.01192073,0.98041971,0.05387117,0.18372511,0.04604530
1761617812662,1.09197878,-0.34345766,0.11375620,-0.26516265,-0.74819487,-0.02180352,0.98121324,0.05250558,0.17987191,0.04593301
1761617812687,-2.14760098,1.22255441,-1.36222478,-0.05040966,-0.26182510,-0.03169819,0.98185183,0.05188302,0.17663837,0.04554154
1761617812693,17.63400833,-7.51075961,9.65857301,0.08121089,-1.18314285,0.00577721,0.98241905,0.05210635,0.17338472,0.04555742
1761617812733,-2.73931538,1.00485546,-1.48439581,-0.00226281,-0.11645680,0.00176125,0.98283717,0.05206008,0.17100318,0.04559344
1761617812764,0.92826294,-0.53928478,0.63203641,-0.06216787,-0.30815458,0.06615986,0.98366133,0.05109337,0.16621138,0.04662223
1761617812795,0.04836994,0.15156068,0.11908703,-0.05745681,-0.28518573,0.05011686,0.98439255,0.05022003,0.16187656,0.04738400
1761617812826,-0.22825927,0.20739563,-0.10279386,-0.03431213,-0.21317584,0.03361065,0.98493543,0.04968476,0.15855101,0.04790833
1761617812856,-0.21695407,-0.15681260,-0.12321135,0.02452267,-0.20443964,-0.05868745,0.98544966,0.05005382,0.15547420,0.04702508
1761617812902,-0.26080862,0.08292387,-0.19956007,0.00691647,-0.07298631,0.02613866,0.98567657,0.05021325,0.15379186,0.04762758
1761617812923,2.95738149,-1.22942290,3.11484581,-0.19636071,0.05029706,0.09251498,0.98565077,0.04823982,0.15429735,0.04855736
1761617812968,-1.26023409,0.79090182,-1.32243974,0.03214068,0.04439817,-0.04308015,0.98550255,0.04897745,0.15531629,0.04756867
1761617812970,486.81974584,33.43461299,427.18791754,1.68927351,1.13556295,-1.73054795,0.98536597,0.05024441,0.15616796,0.04627076
1761617813001,-22.85668898,-1.52652116,-20.09235199,0.09377446,0.02020072,-0.08571072,0.98530175,0.05171667,0.15648511,0.04492510
1761617813024,-0.29582249,-0.05917969,-0.10308555,0.01919583,0.02882460,-0.04681900,0.98526218,0.05193550,0.15681371,0.04439136
1761617813045,-0.20408866,0.05669987,-0.10348442,0.01435486,0.04034358,-0.00736087,0.98518985,0.05208694,0.15723933,0.04431370
1761617813066,-0.39983208,0.21279850,-0.50921534,0.04893835,0.05352465,0.02519124,0.98505890,0.05260814,0.15780937,0.04458199
1761617813078,0.96908999,-0.51951133,0.56508125,0.12754659,0.14627143,0.02322607,0.98487986,0.05333515,0.15864312,0.04471438
1761617813089,0.12776092,0.01857310,-0.24746905,0.11705932,0.14703548,0.05406011,0.98469736,0.05399068,0.15946652,0.04501711
1761617813101,-0.56288632,-0.00475585,0.07705750,0.04826359,0.13651211,0.05539370,0.98452908,0.05428750,0.16030607,0.04535779
1761617813112,-0.28689591,0.08083376,-0.11864129,0.06874821,0.14353577,0.01895555,0.98437588,0.05466218,0.16108834,0.04546109
1761617813124,-0.19194033,0.12292626,-0.00040746,0.06317129,0.13463571,0.00557843,0.98422457,0.05503173,0.16187596,0.04549373
1761617813135,0.34937829,0.25268276,-0.08455241,0.10029459,0.16536954,0.01325022,0.98404522,0.05556831,0.16276068,0.04556462
1761617813146,-0.64645429,0.44446432,-0.34124662,0.13788254,0.15781857,0.01459468,0.98384919,0.05634735,0.16365236,0.04564708
1761617813157,-0.01088150,-0.76473283,-0.23132421,0.18719675,0.17009616,-0.01616821,0.98363000,0.05741437,0.16462191,0.04555492
1761617813169,-0.11592348,-0.08455845,0.01515525,0.16961593,0.16449323,-0.03978866,0.98342977,0.05836422,0.16554307,0.04533210
1761617813179,0.67627410,0.65822928,0.98263955,0.10437965,0.15798993,-0.05758156,0.98326493,0.05893309,0.16640411,0.04501828
1761617813190,-1.00722314,-0.47128072,-1.24637836,0.11948522,0.15478310,-0.03478996,0.98308961,0.05959026,0.16725542,0.04482694
1761617813202,-0.45914984,0.11077111,-0.33341061,0.06831409,0.16326387,-0.06262895,0.98292775,0.05996940,0.16816153,0.04447935
1761617813212,-0.18832013,-0.02038587,-0.23221084,0.11849517,0.19134936,-0.01765747,0.98271744,0.06060335,0.16918525,0.04438488
1761617813224,-0.16366095,-0.17643056,-0.15162383,0.08201513,0.20833139,0.05629785,0.98246220,0.06108314,0.17040399,0.04471422
1761617813235,-0.02210725,-0.24066628,-0.02267351,0.04848323,0.23513782,0.08066131,0.98218813,0.06136191,0.17175603,0.04517802
1761617813256,0.10799933,-0.05161355,0.02942596,0.00503117,0.14915964,0.07130699,0.98188692,0.06141273,0.17326255,0.04589822
1761617813257,-19.79821206,-23.41861331,-1.96730368,-0.03285404,1.71311390,0.68628231,0.98161992,0.06138645,0.17463304,0.04644725
1761617813269,2.96137074,2.55690901,0.47228288,-0.00280559,0.27710360,0.08412811,0.98131580,0.06137045,0.17621253,0.04692678
1761617813280,-0.02321264,-0.17001101,-0.04354992,-0.03366797,0.28028481,0.08255411,0.98101167,0.06117518,0.17783818,0.04740559
1761617813300,-0.08791685,0.26219107,-0.07332399,-0.01924853,0.16054972,0.03312420,0.98071518,0.06098269,0.17944368,0.04773684
1761617813302,-36.29364075,-51.22926089,-18.84996892,-0.26898683,2.27221603,0.31179111,0.98038203,0.06076751,0.18126145,0.04798627
1761617813313,4.32280151,6.78946481,2.32075022,-0.02828426,0.32430575,0.00975046,0.98004274,0.06060487,0.18312621,0.04804233
1761617813351,0.18879632,0.22433731,0.07751303,0.00158339,0.10799143,-0.00891594,0.97966556,0.06063480,0.18516725,0.04787382
1761617813380,-0.45018123,-0.18371344,-0.07515468,-0.00513987,0.39107984,-0.02705147,0.97861538,0.06056130,0.19075969,0.04748699
1761617813392,-1.99726982,-1.85706451,0.29810525,-0.06927089,1.02672587,-0.04827272,0.97745411,0.06015260,0.19681737,0.04720218
1761617813413,1.25493657,1.00637140,0.07432205,-0.01027142,0.30734549,-0.01113219,0.97678323,0.06004013,0.20018280,0.04708028
1761617813424,-1.65423894,-0.61924804,0.42316803,0.01633890,0.72332371,-0.02850530,0.97602936,0.06012264,0.20383559,0.04693633
1761617813434,0.48231370,0.58591366,0.06207145,0.03699894,0.63125225,-0.01827992,0.97535784,0.06030763,0.20699185,0.04684493
1761617813445,0.70714288,0.34247835,-0.11490451,0.02384697,0.40158923,0.00439223,0.97483324,0.06045071,0.20940139,0.04687128
1761617813468,0.41092071,0.10708787,-0.08750790,-0.00284298,0.18023186,-0.01288118,0.97440252,0.06041859,0.21143801,0.04672573
1761617813491,0.06623918,-0.02849062,0.12089780,0.02079210,0.21074138,-0.01413934,0.97385936,0.06066082,0.21389314,0.04656100
1761617813501,-1.56941091,-0.07395761,1.72701035,0.12437558,0.69287870,-0.06140308,0.97311556,0.06124538,0.21714967,0.04627241
1761617813512,0.69236928,0.37606807,-1.27096733,0.12666134,0.34742637,-0.00257522,0.97265236,0.06192935,0.21902577,0.04625850
1761617813523,0.46902264,-0.10324270,-0.08549443,0.06820140,0.23625842,0.01882487,0.97232407,0.06231128,0.22034882,0.04636392
1761617813534,0.19244165,-0.21738779,0.05036745,0.04356871,0.19745348,0.01006881,0.97205446,0.06255527,0.22145456,0.04642031
1761617813557,0.12967226,0.02484624,-0.15516660,-0.00017107,0.09377879,0.01339797,0.97180531,0.06255333,0.22251426,0.04657170
1761617813558,-15.61836537,-52.54374964,86.81803513,-0.30191452,1.54118127,0.39465120,0.97155796,0.06234199,0.22359309,0.04684796
1761617813570,2.12196636,5.88791402,-9.77320766,-0.02269790,0.09179333,0.01075502,0.97144071,0.06221034,0.22412549,0.04691034
1761617813580,0.21795618,0.16008828,-0.08317189,-0.00586272,0.08302085,0.02568296,0.97133249,0.06217869,0.22457380,0.04704903
1761617813591,-0.00664318,0.12698692,0.10424681,-0.00776559,0.04258006,0.02911352,0.97127436,0.06213675,0.22480373,0.04720624
1761617813601,0.27163009,0.07436866,-0.09450543,0.02827494,0.04838714,0.00793107,0.97120667,0.06227954,0.22504809,0.04724629
1761617813612,0.27409878,0.22339956,0.01581213,0.02173870,0.02411185,0.02846064,0.97116315,0.06239258,0.22517347,0.04739429
1761617813623,0.25600405,0.05385808,0.26908936,0.00309485,-0.02274440,0.05995688,0.97117511,0.06240991,0.22504610,0.04773004
1761617813635,0.10483090,0.00896434,-0.07722487,0.01344754,-0.00546105,0.03676490,0.97116637,0.06249329,0.22501224,0.04795799
1761617813646,0.33471079,0.12197775,0.41702198,0.01904127,-0.05198510,0.06035652,0.97120586,0.06258945,0.22474972,0.04826279
1761617813657,-0.13495467,0.04552706,-0.25743263,0.03381961,-0.04291910,0.03055743,0.97124164,0.06278391,0.22450293,0.04843849
1761617813669,-0.10795503,-0.12531905,0.13011457,0.02587130,-0.04499702,0.01466465,0.97128797,0.06293396,0.22424195,0.04852355
1761617813679,0.09295164,-0.13424684,0.26385931,0.03055341,-0.03982590,0.02268118,0.97132077,0.06309895,0.22402689,0.04864603
1761617813690,-0.06767330,0.00114894,0.04705955,0.00816804,-0.02974564,0.00984831,0.97135315,0.06314428,0.22386180,0.04870068
1761617813701,-0.08375101,0.60794754,0.73655037,-0.01001447,-0.03035530,-0.01168111,0.97139758,0.06309020,0.22369788,0.04863761
1761617813713,-0.25281098,-0.25458522,-0.61942407,0.03143400,-0.02884349,-0.01194696,0.97142692,0.06326781,0.22353492,0.04857011
1761617813724,0.24687997,0.13805452,0.07101292,0.02991209,-0.01917631,0.00718171,0.97143848,0.06343232,0.22342945,0.04860961
1761617813735,-0.23995505,0.09982933,-0.08149417,0.03063650,-0.02761860,-0.00293315,0.97146432,0.06360848,0.22327064,0.04859274
1761617813746,-0.04130930,-0.11082838,-0.02555960,0.04489013,-0.01501110,0.01759482,0.97146223,0.06385762,0.22318733,0.04869039
1761617813757,-0.13491493,-0.14100161,0.18031684,0.05895799,-0.02958311,0.01899506,0.97147240,0.06416421,0.22303350,0.04878917
1761617813769,-0.08463095,-0.12779019,-0.08252951,0.02130194,-0.01414030,0.01128664,0.97148002,0.06429202,0.22294866,0.04885688
1761617813780,-0.13594144,-0.12981285,0.28455628,0.00881684,-0.02508759,0.01749473,0.97150427,0.06434183,0.22280691,0.04895573
1761617813791,0.33919604,0.39114974,0.09109911,-0.02341328,-0.02332418,0.00865559,0.97154206,0.06420486,0.22267047,0.04900637
1761617813803,-0.29455578,0.10240992,-0.27104974,-0.00671764,-0.05006415,0.02728069,0.97160472,0.06416489,0.22237258,0.04916869
1761617813815,0.05814933,0.46350753,0.09799690,0.03639471,-0.05196458,0.02922883,0.97164910,0.06436688,0.22208418,0.04933091
1761617813832,-0.17105468,-0.32830585,-0.55302126,0.05193924,-0.02659442,0.00191474,0.97167057,0.06480837,0.22185813,0.04934718
1761617813834,6.74551138,9.47299959,39.55233938,0.52715850,-0.26200441,0.13093915,0.97169367,0.06549367,0.22151752,0.04951740
1761617813849,-1.30118362,-1.85708839,-7.24761514,0.04402060,-0.02728299,0.00152235,0.97171662,0.06581282,0.22131972,0.04952844
1761617813852,2.40364853,-1.00535125,14.43430708,0.12777107,-0.13659258,0.06165367,0.97175036,0.06603642,0.22108068,0.04963633
1761617813915,-0.15063264,0.01073237,-0.93360872,0.00269782,-0.00774797,0.00468978,0.97179265,0.06612167,0.22083585,0.04978453
1761617813919,8.55856090,12.23046792,93.81535536,0.65285117,-1.26141046,0.20279294,0.97221784,0.06732945,0.21850224,0.05015970
1761617813953,-0.91112325,-1.30166328,-9.60812119,0.00346932,-0.07368047,0.01740245,0.97248217,0.06738912,0.21723493,0.05045902
1761617814008,-0.01914186,-0.00055819,-0.17167781,0.00600779,-0.04380571,0.00162446,0.97273210,0.06755133,0.21605218,0.05050288
1761617814017,-0.72748763,0.49397884,4.84870801,0.13266918,-0.21884345,0.02114960,0.97292081,0.06820804,0.21496890,0.05060757
1761617814043,0.17974068,-0.24177873,-1.69969373,-0.01134879,-0.05995078,0.02470800,0.97308181,0.06806448,0.21421053,0.05092013
1761617814057,-0.02606892,-0.18605717,0.26566786,0.00052050,-0.06178228,0.02361197,0.97316800,0.06806813,0.21377805,0.05108541
1761617814096,0.01410126,0.12311730,-0.28584433,0.01102932,-0.02213815,0.01314679,0.97323434,0.06828375,0.21334525,0.05134243
1761617814121,-0.12944659,0.12145751,0.24372024,0.05008545,-0.03801254,-0.00350615,0.97329731,0.06891733,0.21286439,0.05129808
1761617814135,-0.58855821,0.05059399,1.57013206,0.00170542,-0.08608970,0.03963814,0.97341093,0.06892901,0.21227468,0.05156960
1761617814152,0.33332357,-0.23458124,-0.97079348,-0.02935888,-0.02986263,0.00576348,0.97348211,0.06867653,0.21201786,0.05161916
1761617814176,0.14701646,0.10582141,-0.56244192,0.00818942,-0.02909522,0.00498426,0.97354743,0.06877398,0.21167163,0.05167848
1761617814197,-0.06167679,0.04136388,-0.03111046,0.01234520,-0.03395844,-0.01835876,0.97362519,0.06890237,0.21131846,0.05148755
1761617814198,-57.02022459,4.65840387,75.33325020,-0.12278145,-0.52102628,-0.00757332,0.97372283,0.06880414,0.21090164,0.05148149
1761617814219,4.45921259,-0.65330435,-5.82017528,-0.00931930,-0.02689052,0.02580424,0.97377496,0.06870909,0.21062735,0.05174469
1761617814248,0.07315295,-0.01389734,-0.10532553,-0.00200166,-0.01196503,0.01573463,0.97380293,0.06867946,0.21045027,0.05197756
1761617814259,-2.00088308,-0.72558284,2.66929677,-0.00045802,-0.06003815,0.13010170,0.97383387,0.06867710,0.21014107,0.05264759
1761617814281,0.86082790,0.40857916,-0.93284887,0.00490231,-0.01011100,0.02284230,0.97384077,0.06873373,0.21002429,0.05291141
1761617814292,-0.78802332,-0.08333818,2.14911435,-0.01871537,-0.01736104,0.03659957,0.97385720,0.06863360,0.20993141,0.05310722
1761617814304,0.16230951,-0.26053063,-1.39266501,-0.02069750,-0.00548244,0.01869399,0.97386659,0.06851355,0.20989961,0.05321565
1761617814316,0.12960965,0.06970181,-0.06754670,-0.06900605,-0.00621241,0.00129013,0.97390263,0.06810642,0.20986296,0.05322326
1761617814363,0.16686152,0.06013197,-0.26976628,-0.00936967,-0.00125098,-0.00104078,0.97392602,0.06788295,0.20983312,0.05319844
1761617814395,-0.21750879,0.02704322,0.68126520,-0.00662385,-0.03944727,-0.02599987,0.97408973,0.06777829,0.20920986,0.05278764
1761617814428,0.19727612,0.02365076,-0.16548351,-0.01330419,-0.04079305,-0.01375145,0.97426104,0.06755944,0.20853881,0.05256143
1761617814463,0.07468767,-0.01182841,-0.03994667,-0.00165016,-0.04408159,-0.00906494,0.97443839,0.06753023,0.20775857,0.05240098
1761617814497,0.13753537,0.09630283,0.03572197,0.02788476,-0.05856684,-0.01129875,0.97462860,0.06800706,0.20675707,0.05220777
1761617814530,0.06692985,0.07261952,0.01360893,0.02677827,-0.06095938,-0.00790437,0.97481235,0.06843685,0.20577868,0.05208090
1761617814562,0.01127009,0.02872274,-0.11508749,0.04250729,-0.06581211,-0.00730007,0.97499509,0.06912760,0.20470923,0.05196228
1761617814584,0.37907130,0.45534014,0.07766730,0.10505332,-0.11755504,0.01670383,0.97517490,0.07029369,0.20340437,0.05214769
1761617814605,-0.13748830,-0.33360113,-0.39573025,0.03452433,-0.08948302,0.00988570,0.97534099,0.07066137,0.20245137,0.05225297
1761617814628,0.08607775,-0.00362227,-0.19405777,0.08055565,-0.07531904,0.00660626,0.97544504,0.07155554,0.20161533,0.05232630
1761617814651,0.00858400,0.07749318,-0.21549180,0.10376655,-0.09990017,-0.01519847,0.97560494,0.07276442,0.20045150,0.05214924
1761617814660,2.03287432,0.50995085,-0.74983799,0.18579103,-0.21560067,0.01267811,0.97573802,0.07360048,0.19948129,0.05220629
1761617814693,-0.53831922,-0.49697074,0.01552327,0.04402173,-0.07606720,0.01235508,0.97593009,0.07433564,0.19821097,0.05241262
1761617814715,0.51755264,0.10701342,-0.00619744,0.01228285,-0.17075517,0.02776618,0.97627338,0.07446707,0.19638389,0.05270972
1761617814728,2.12204261,0.74661924,-0.92886982,0.00008635,-0.33535487,0.09224688,0.97667366,0.07446763,0.19422085,0.05330471
1761617814749,-1.37459716,-0.40448045,0.34811315,0.02196967,-0.15574475,0.07538711,0.97693508,0.07469721,0.19259332,0.05409251
1761617814759,4.52367113,-0.03921754,-1.79441689,0.04077615,-0.39215044,0.16628375,0.97727040,0.07490925,0.19055414,0.05495718
1761617814770,-1.28357447,-0.43049009,0.90350486,-0.00128090,-0.32492788,0.04723373,0.97760307,0.07490220,0.18876703,0.05521697
1761617814807,-1.10791134,0.07089122,0.38470535,-0.00821712,-0.10316696,0.00080785,0.97798350,0.07474895,0.18684297,0.05523203
1761617814817,14.47949052,0.36397813,-6.77956580,0.05792337,-1.10026914,-0.07933100,0.97903902,0.07504436,0.18123160,0.05482745
1761617814838,-4.56143965,-0.22035214,1.94013004,0.00169537,-0.51270662,-0.01275474,0.97999860,0.07506165,0.17600199,0.05469735
1761617814849,1.97688801,0.04620110,-0.74944231,-0.00830681,-0.61951465,-0.01908341,0.98059161,0.07501763,0.17271856,0.05459621
1761617814861,-1.59456806,-0.24153203,0.68813499,-0.03202180,-0.47902500,-0.02839679,0.98112200,0.07482389,0.16982046,0.05442441
1761617814882,-1.81078511,0.01479400,0.91605233,-0.02595773,-0.23852789,-0.01314068,0.98159143,0.07454485,0.16725629,0.05428314
1761617814893,3.60346636,-0.07629648,-1.05210560,-0.10153427,-0.39427290,-0.03105607,0.98199499,0.07400672,0.16516664,0.05411855
1761617814904,-0.90894501,-0.52912265,-0.18079564,-0.07225548,-0.37705166,-0.05209944,0.98239423,0.07360209,0.16305515,0.05382679
1761617814916,-0.44754956,0.54728602,0.21723571,-0.07727219,-0.32652417,-0.06811113,0.98276486,0.07315004,0.16114498,0.05342834
1761617814926,0.39863004,0.17299781,-0.06871170,-0.06084174,-0.30034835,-0.09763258,0.98308234,0.07282150,0.15952310,0.05290112
1761617814937,-0.05101496,-0.56371946,-0.02601122,-0.04436993,-0.26854808,-0.07052028,0.98335217,0.07258412,0.15808637,0.05252384
1761617814949,-0.30084674,0.11440762,0.40158747,-0.07982017,-0.24303597,-0.05800245,0.98363209,0.07211717,0.15666461,0.05218453
1761617814950,288.12036215,-55.59941642,-114.27653821,-0.46078917,-1.87847100,-0.55197560,0.98390259,0.07177158,0.15525576,0.05177054
1761617814961,-40.63527553,7.69355108,16.37136501,-0.06797426,-0.22727253,-0.08842133,0.98413814,0.07141811,0.15407394,0.05131075
1761617814971,-1.03666479,0.19064941,0.21371420,-0.01682746,-0.19847944,-0.12559212,0.98433549,0.07133229,0.15306169,0.05067023
1761617814983,-1.06096488,0.31436044,0.42860696,0.00636161,-0.11912016,-0.11774251,0.98447611,0.07136951,0.15236484,0.04998144
1761617814993,0.09812351,-0.09850559,-0.04349611,0.02762890,-0.13072357,-0.16239465,0.98460790,0.07150765,0.15171122,0.04916947
1761617815004,1.05478597,-0.28451168,-0.17002393,0.02969646,-0.09252107,-0.18906274,0.98472674,0.07167247,0.15119773,0.04812017
1761617815016,-0.44811560,-0.12384878,0.34321750,-0.01832048,-0.06702702,-0.13371190,0.98483617,0.07156163,0.15079222,0.04731121
1761617815027,0.43236967,-0.05051743,0.26443137,-0.08658334,-0.04658469,-0.09709574,0.98493626,0.07108109,0.15053367,0.04677233
1761617815037,-0.11655557,-0.23246326,0.10200412,-0.07702380,-0.03006131,-0.09920320,0.98501332,0.07068057,0.15037735,0.04625647
1761617815049,-0.77331900,0.45651744,-0.07153730,-0.05635490,0.00723189,-0.08327713,0.98505356,0.07034808,0.15042002,0.04576514
1761617815060,-0.27134688,-0.29919000,0.02111346,-0.01803027,0.00084602,-0.13683687,0.98509497,0.07024801,0.15042472,0.04500569
1761617815071,0.64647256,0.17950509,0.80617548,-0.02107723,0.01413543,-0.12105381,0.98512059,0.07013630,0.15049964,0.04436411
1761617815082,-0.25429374,0.25320893,0.04938125,-0.02709440,0.00110510,-0.04006473,0.98514052,0.06998457,0.15050582,0.04413975
1761617815094,0.01949213,0.33386418,0.34158732,-0.04279877,0.02080993,-0.01207028,0.98514277,0.06974062,0.15062444,0.04407095
1761617815105,-0.25627645,0.19068426,-0.26867852,-0.02415633,0.02876385,0.00717985,0.98512544,0.06960172,0.15078983,0.04411223
1761617815116,0.22127594,0.08054369,-0.17672236,-0.01616415,-0.00503045,-0.00952569,0.98513818,0.06951362,0.15076242,0.04406031
1761617815127,0.08509347,0.06175916,0.28709017,-0.02714434,-0.04501658,-0.00153363,0.98518561,0.06936840,0.15052158,0.04405211
1761617815138,-0.14378069,-0.41886997,-0.08068735,-0.02537519,-0.06989128,0.02135243,0.98525169,0.06922249,0.15011970,0.04417489
1761617815149,0.07827407,0.31406001,0.61697830,-0.06358580,-0.08785231,0.00760165,0.98534346,0.06888867,0.14965848,0.04421479
1761617815160,-0.52819769,0.46981983,-0.13647375,-0.05088351,-0.08435331,-0.01897404,0.98544317,0.06859354,0.14916923,0.04410475
1761617815171,0.69018576,0.01412336,-0.00292511,-0.02586051,-0.10027661,0.02642624,0.98552830,0.06845390,0.14862774,0.04424745
1761617815182,-0.30017896,0.00766976,-0.14079553,0.01290446,-0.10287806,-0.01083575,0.98561572,0.06852874,0.14803104,0.04418460
1761617815193,0.66178312,0.73670084,0.28001783,0.02840910,-0.12357793,0.02779722,0.98569982,0.06868499,0.14735136,0.04433748
1761617815205,-0.51256512,0.05618345,-0.14491949,0.04145944,-0.14177249,0.03709580,0.98579508,0.06892338,0.14653617,0.04455079
1761617815216,0.23862218,0.08679159,0.25661402,0.07155189,-0.15838838,0.03099877,0.98588972,0.06932050,0.14565712,0.04472283
1761617815227,0.28163584,0.22912700,-0.16463841,0.06695203,-0.16027641,0.07552789,0.98597006,0.06966865,0.14482368,0.04511557
1761617815238,-0.22470449,-0.18301282,0.17967469,0.04971573,-0.12758142,0.08797333,0.98603568,0.06996197,0.14407095,0.04563462
1761617815249,0.85231826,-0.06810364,-0.16290208,0.11560181,-0.16048045,0.08003241,0.98609620,0.07057466,0.14322040,0.04605879
1761617815261,-0.97803319,0.00006248,-0.12976818,0.08516501,-0.16182922,0.02698762,0.98619246,0.07108565,0.14224943,0.04622071
1761617815272,1.06625056,-0.44024125,-0.10147322,0.14318690,-0.20545203,0.02925507,0.98628929,0.07186602,0.14112971,0.04638015
1761617815282,0.48025403,0.03010348,0.62152697,0.14019601,-0.23667263,-0.01370275,0.98641696,0.07260906,0.13987535,0.04630753
1761617815293,-0.33246807,-0.11870275,-0.50494326,0.15110396,-0.26419075,-0.03921802,0.98657050,0.07344013,0.13842230,0.04609183
1761617815305,-0.41170339,-0.34884307,-0.53832687,0.15179319,-0.28242066,-0.04954408,0.98674941,0.07433571,0.13675602,0.04579952
1761617815316,-0.17131829,0.48020818,0.36670182,0.05766559,-0.33101651,-0.03961782,0.98698830,0.07465575,0.13491888,0.04557964
1761617815327,0.41910047,-0.35825476,-0.72861018,0.07502463,-0.32325603,-0.03119464,0.98720042,0.07505714,0.13318946,0.04541275
1761617815339,-0.49911341,-0.60646479,0.18184279,0.05814442,-0.29501651,-0.02912759,0.98741364,0.07539728,0.13146361,0.04524235
1761617815351,-0.32763887,0.00815298,0.06486102,-0.00899305,-0.28260596,-0.02013491,0.98765143,0.07534242,0.12973971,0.04511953
1761617815362,0.68239687,-0.54799772,-0.04472165,-0.06187960,-0.28995033,0.00485951,0.98788429,0.07500208,0.12814499,0.04514626
1761617815373,-0.02949019,-0.10800292,-0.00815938,-0.07773248,-0.32429142,0.01381927,0.98813589,0.07458622,0.12641003,0.04522019
1761617815383,-0.27454490,-0.21355710,-0.25089353,-0.03788586,-0.28969563,-0.01072671,0.98834683,0.07438732,0.12488913,0.04516388
1761617815395,-0.35075353,0.58392529,-0.19807937,-0.03552838,-0.22462255,0.02128148,0.98851744,0.07418480,0.12360878,0.04528518
1761617815405,0.21935938,-0.70678582,-0.28385470,-0.02766558,-0.23037549,0.05040289,0.98867090,0.07403541,0.12236475,0.04555736
1761617815417,-0.44396222,-0.12426603,0.11247089,-0.05343278,-0.20692190,0.01877028,0.98883256,0.07373351,0.12119564,0.04566341
1761617815427,0.06799720,0.08065309,-0.21321055,-0.09456700,-0.18158914,0.00978599,0.98898632,0.07322758,0.12022414,0.04571576
1761617815432,13.78945079,-5.67738888,-4.58843962,-0.23406865,-0.50736582,0.08194482,0.98914729,0.07272433,0.11913330,0.04589194
1761617815466,-2.59216963,0.81227135,0.80308673,-0.02932089,-0.04867031,0.01285224,0.98927626,0.07221268,0.11828401,0.04611622
1761617815487,1.97232305,-0.95687108,-0.43749736,-0.16385037,-0.15618116,0.06000513,0.98955455,0.07055779,0.11670658,0.04672227
1761617815497,3.13828592,-1.68454260,-0.24715974,-0.20792608,-0.22371853,0.03884833,0.98975216,0.06950777,0.11557680,0.04691845
1761617815506,-3.20625614,1.38321487,0.21459699,-0.13998866,-0.12539705,0.01943209,0.98986362,0.06884282,0.11498116,0.04701075
1761617815518,-1.34884310,1.02210848,0.27787839,-0.08297792,-0.08738800,0.01229802,0.98995461,0.06834910,0.11446120,0.04708393
1761617815529,0.26134794,0.08446210,0.17413983,-0.07784789,-0.06816673,0.02724413,0.99001784,0.06793651,0.11409992,0.04722832
1761617815539,-0.67167046,-0.20070500,-0.00618838,-0.03965578,-0.06014088,0.00798661,0.99006737,0.06772435,0.11377817,0.04727105
1761617815550,-0.08329761,0.42091323,0.47896125,-0.08349160,-0.04995458,0.03466642,0.99011962,0.06727767,0.11351091,0.04745651
1761617815562,0.04154785,-0.28018247,-0.02714260,-0.05912746,-0.05023554,0.02676769,0.99017004,0.06692586,0.11321201,0.04761578
1761617815573,0.38715077,0.11620608,0.50761847,-0.06767364,-0.04131847,-0.00218390,0.99022166,0.06655366,0.11298476,0.04760377
1761617815584,0.97913499,-0.15979179,-0.14181418,-0.07035814,-0.05448975,0.03404566,0.99027133,0.06617724,0.11269323,0.04778592
1761617815596,-0.12034007,0.54303301,-0.26426668,-0.04727135,-0.07066089,0.05327758,0.99032250,0.06589598,0.11227280,0.04810292
1761617815606,-0.10034973,-0.39444027,-0.10189659,0.00440883,-0.09338474,0.00594173,0.99037540,0.06591934,0.11177786,0.04813441
1761617815617,-0.26914066,0.15202796,0.11371892,-0.01395605,-0.07551210,-0.00843762,0.99042807,0.06584468,0.11137387,0.04808927
1761617815628,-0.09133824,0.18613849,-0.10582161,-0.03162962,-0.09143061,0.03886164,0.99048564,0.06567072,0.11087101,0.04830301
1761617815640,0.16578770,-0.06217945,0.36060134,-0.01174717,-0.07266059,0.02696814,0.99052959,0.06560258,0.11044957,0.04845942
1761617815652,0.03830738,-0.07448016,-0.37455580,-0.01535130,-0.10226913,0.06332882,0.99058664,0.06550817,0.10982062,0.04884889
1761617815673,-0.94960827,0.44485947,0.19012454,-0.03095564,-0.06592690,0.01532707,0.99067535,0.06518778,0.10913828,0.04900753
1761617815674,292.50872591,-73.47279038,25.48603467,-0.21537536,-1.46599548,-0.42921118,0.99084184,0.06500471,0.10789218,0.04864270
1761617815685,-44.73228559,10.94063555,-3.59906916,-0.04024695,-0.15450397,-0.09491962,0.99097040,0.06478939,0.10706558,0.04813488
1761617815696,-1.01106364,0.63504511,-0.42498952,-0.02439242,-0.13728963,-0.06630962,0.99107907,0.06465401,0.10630363,0.04776686
1761617815707,0.08173172,-0.29604173,-0.11146969,-0.00667154,-0.13277458,-0.04737816,0.99117204,0.06461732,0.10557337,0.04750628
1761617815718,-0.07855257,-0.41832820,-0.11901493,-0.01583992,-0.14585392,-0.05591252,0.99128039,0.06452782,0.10474929,0.04719037
1761617815728,0.94847206,0.07627468,0.67590812,-0.09560349,-0.15871950,-0.09927862,0.99141981,0.06404503,0.10394776,0.04668902
1761617815739,0.19460600,-0.87132701,-0.18998119,-0.07890040,-0.14369175,-0.00763752,0.99152717,0.06363080,0.10319338,0.04664892
1761617815751,-0.34144170,0.48469273,0.10606562,-0.08717551,-0.09823182,-0.03800043,0.99162896,0.06312518,0.10262363,0.04642852
1761617815761,-0.27429434,0.49522521,0.03060316,-0.06220733,-0.12700666,-0.00741026,0.99172116,0.06279548,0.10195050,0.04638924
1761617815773,0.38998101,-0.24838230,0.07818358,-0.02105810,-0.09337641,0.03110277,0.99177690,0.06267124,0.10139957,0.04657275
1761617815784,0.43913017,-0.27158417,0.08239757,-0.00543847,-0.09881655,0.05463172,0.99181888,0.06264214,0.10087091,0.04686503
1761617815795,-0.72372006,-0.20816649,-0.13480464,-0.01936087,-0.09527166,0.00803398,0.99187771,0.06253372,0.10033738,0.04691002
1761617815807,-0.69497310,1.20566245,0.09621227,-0.06456720,-0.08801151,0.02985186,0.99194513,0.06215600,0.09982252,0.04708465
1761617815817,1.01972795,-1.28291969,-0.22972034,-0.01588189,-0.09257609,0.06012001,0.99198521,0.06207024,0.09932261,0.04740930
1761617815828,-0.74838401,0.44347151,0.05200753,-0.05123479,-0.13840868,-0.01887874,0.99208279,0.06179101,0.09856828,0.04730641
1761617815840,-0.40409337,0.58010479,0.20525172,-0.04306098,-0.11994745,-0.03256489,0.99217939,0.06153265,0.09784859,0.04711102
1761617815853,0.04463966,-0.05308703,-0.28101585,-0.01974494,-0.11545754,-0.02219601,0.99226519,0.06140825,0.09712121,0.04697119
1761617815863,1.00946200,0.19771470,0.10166085,-0.02617844,-0.14648763,-0.00714498,0.99234962,0.06127213,0.09635948,0.04693403
1761617815875,-0.63768823,0.08964965,-0.09363225,-0.05093192,-0.15971673,0.00962958,0.99245379,0.06097927,0.09544111,0.04698940
1761617815885,0.72277053,-0.49866370,0.35813390,-0.04179208,-0.18410679,0.00782164,0.99255679,0.06076195,0.09448375,0.04703008
1761617815896,-0.28720719,0.20048884,-0.15675582,-0.04375588,-0.18860188,-0.01123995,0.99267157,0.06052348,0.09345587,0.04696882
1761617815907,-0.30023278,-0.02350661,0.17023768,-0.04382814,-0.19162934,-0.01417807,0.99279176,0.06027585,0.09237316,0.04688871
1761617815918,-0.43000961,-0.21049729,-0.30237816,-0.04146865,-0.18536346,-0.02706177,0.99290692,0.06004777,0.09135366,0.04673987
1761617815930,0.25836991,0.55801815,0.36646493,-0.05974342,-0.17269380,0.00238417,0.99301401,0.05971620,0.09039521,0.04675311
1761617815941,-0.42947746,-0.02618711,-0.03028195,-0.07036121,-0.17950212,-0.00764109,0.99313374,0.05931162,0.08936308,0.04670917
1761617815952,-0.50034546,-0.02314055,0.26502683,-0.08230055,-0.15637795,-0.03272472,0.99324511,0.05886308,0.08851082,0.04653082
1761617816011,-0.26301744,0.07218301,-0.13056147,-0.01260314,-0.02134591,0.00801376,0.99331144,0.05849381,0.08788538,0.04676562
1761617816030,3.68367600,-0.16239063,0.23307459,-0.00728529,-0.47132418,0.13431811,0.99364900,0.05842278,0.08328997,0.04807522
1761617816068,-1.58980918,0.15706118,-0.09264346,-0.00575148,-0.12293406,-0.01223695,0.99386185,0.05831235,0.08092964,0.04784028
1761617816096,0.56761543,0.09858397,0.04814878,0.03661578,-0.15552533,0.03389312,0.99398274,0.05882131,0.07876784,0.04831139
1761617816119,-0.78811312,-0.13031541,-0.23474071,0.00015339,-0.09847205,0.00976692,0.99406338,0.05882301,0.07767480,0.04841980
1761617816140,-0.39704802,-0.09637742,-0.09374236,0.00827610,-0.02659990,-0.01154996,0.99408667,0.05891281,0.07738619,0.04829449
1761617816162,-0.05399494,-0.05164829,-0.06220612,-0.00497926,-0.02360933,-0.01313902,0.99411738,0.05885754,0.07712412,0.04814864
1761617816173,0.54496090,-0.42196373,-0.22785316,-0.04585645,-0.03814941,0.03380902,0.99413971,0.05860303,0.07691239,0.04833628
1761617816185,-0.11656458,0.04588847,-0.00829147,-0.04685582,-0.04078520,0.01300348,0.99417083,0.05832658,0.07667176,0.04841300
1761617816196,-0.22880862,0.22954397,0.12363972,-0.04390823,-0.02562364,0.01168649,0.99419170,0.05809607,0.07653724,0.04847436
1761617816207,-0.24451540,-0.10724372,0.05633785,-0.02336364,-0.03649268,0.00918662,0.99421235,0.05796640,0.07633470,0.04852534
1761617816218,-0.01337060,-0.05400516,0.08643698,-0.08431422,-0.02699934,0.02457088,0.99424579,0.05747738,0.07617811,0.04866785
1761617816229,0.12924243,-0.02766523,0.03742735,-0.08172282,-0.02811577,0.02881063,0.99427520,0.05703607,0.07602628,0.04882343
1761617816240,-0.02835423,-0.01642074,-0.09598818,-0.04841747,-0.00819013,0.00689400,0.99429186,0.05677220,0.07598165,0.04886100
1761617816252,-0.02992242,0.02028442,-0.01585106,-0.04165060,0.00645798,0.03755030,0.99429204,0.05652021,0.07602072,0.04908818
1761617816263,0.07155551,-0.08294328,-0.13641646,-0.01973141,0.00721533,0.00334281,0.99429418,0.05641563,0.07605896,0.04910590
1761617816274,0.10602889,0.16092934,-0.18970877,-0.03286978,-0.02647570,0.02189870,0.99430974,0.05623321,0.07591202,0.04922744
1761617816285,0.15299309,0.03962884,0.08535632,-0.02213336,-0.01973303,0.02921428,0.99431719,0.05610705,0.07579954,0.04939396
1761617816296,-0.04765637,0.13138097,0.12312884,-0.03991619,0.00851286,0.00063994,0.99432557,0.05589350,0.07584508,0.04939738
1761617816308,-0.23023687,0.09737205,0.35066471,-0.02787470,0.01359951,0.02189273,0.99432220,0.05572625,0.07592668,0.04952874
1761617816319,0.12386974,-0.06295690,0.00531454,0.01061317,0.02877060,0.02196217,0.99430119,0.05578356,0.07608204,0.04964733
1761617816330,0.04879418,0.05290888,0.08740178,0.00046126,0.01488469,0.01915451,0.99428898,0.05578621,0.07616763,0.04975747
1761617816342,0.10158192,0.00592303,-0.00952808,-0.00515455,0.00576399,-0.01314932,0.99429181,0.05575735,0.07619991,0.04968384
1761617816352,0.05893625,-0.04162369,-0.00243111,-0.00146499,0.01399830,-0.02244318,0.99429246,0.05574995,0.07627060,0.04957050
1761617816364,-0.14391956,-0.08540300,0.00269663,-0.00507132,0.01761075,-0.02222318,0.99429270,0.05571952,0.07637626,0.04943716
1761617816375,0.15684461,-0.12600724,-0.17396500,-0.01923220,0.03925933,-0.03982727,0.99429288,0.05560797,0.07660397,0.04920616
1761617816386,0.17539846,-0.00025806,0.06761647,-0.03222914,0.03416200,-0.00002041,0.99428842,0.05543555,0.07678673,0.04920605
1761617816397,-0.05388314,-0.07262510,0.07913273,-0.00477702,0.04120383,-0.03535980,0.99428214,0.05540999,0.07700717,0.04901688
1761617816408,-0.03941494,0.29765723,0.36886100,-0.00766423,0.04420280,-0.02495097,0.99427239,0.05536784,0.07725029,0.04887965
1761617816419,0.08217755,0.07603497,-0.05879946,0.05321742,0.02240007,-0.01891888,0.99425119,0.05566585,0.07737573,0.04877370
1761617816430,-0.06747337,0.14943926,0.07507600,0.00585706,0.01055455,-0.05805550,0.99426065,0.05569865,0.07743483,0.04844859
1761617816441,0.10693855,-0.11140664,0.03538638,0.02010063,0.03190553,-0.02871646,0.99424856,0.05580820,0.07760872,0.04829209
1761617816453,0.03363648,0.10029378,0.10817968,-0.03461952,0.02545874,-0.00712889,0.99425028,0.05560741,0.07775638,0.04825074
1761617816464,0.17634244,-0.21780155,0.01358898,-0.01148802,-0.02106292,-0.01672909,0.99426733,0.05554422,0.07764053,0.04815873
1761617816474,0.24571400,-0.19993646,-0.07646624,-0.02674419,-0.00468566,-0.02870686,0.99428486,0.05539981,0.07761523,0.04800371
1761617816486,-0.03660903,-0.07326404,0.05564940,-0.03614682,-0.00352707,0.01797176,0.99429336,0.05518292,0.07759407,0.04811154
1761617816497,0.17507331,-0.03459563,0.11804418,0.00043751,0.00042335,-0.01616773,0.99429727,0.05518529,0.07759636,0.04802424
1761617816509,-0.23691220,0.24764923,0.15421566,-0.00346127,-0.02208654,-0.01437791,0.99431279,0.05516469,0.07746494,0.04793869
1761617816519,0.37493128,0.30641491,0.14637473,0.03042802,-0.02056725,-0.00477253,0.99431349,0.05531531,0.07736313,0.04791506
1761617816531,-0.21671685,0.19023500,-0.18616052,0.04450909,-0.01713508,0.00194879,0.99430634,0.05557124,0.07726461,0.04792627
1761617816541,0.05584581,0.01508517,0.02684471,0.07803282,-0.02779616,-0.01674073,0.99429899,0.05597701,0.07712007,0.04783922
1761617816553,-0.15360678,-0.10153573,-0.00152984,0.01472183,-0.00753445,-0.02233310,0.99430391,0.05606460,0.07707524,0.04770634
1761617816564,0.10274119,-0.23007947,-0.06214934,0.02081667,-0.02983398,-0.01432559,0.99431384,0.05617806,0.07691264,0.04762826
1761617816574,0.18698415,-0.31254586,-0.06424709,0.00117520,-0.01411053,-0.06231357,0.99433544,0.05618440,0.07683644,0.04729177
1761617816586,-0.12840553,-0.05337018,-0.03728976,-0.02714838,-0.01319197,-0.00730766,0.99435254,0.05602423,0.07675861,0.04724865
1761617816597,0.12442435,-0.16607596,0.06709213,-0.01497469,-0.00727123,0.00571760,0.99435854,0.05594486,0.07672007,0.04727896
1761617816609,-0.50993639,0.06584290,-0.05713861,-0.02160465,0.00116679,-0.02262865,0.99437140,0.05581847,0.07672690,0.04714658
1761617816619,-0.01773033,0.01680629,-0.06744814,0.01288236,0.01363482,0.00324587,0.99436088,0.05588868,0.07680121,0.04716427
1761617816631,-0.09978423,0.26649885,-0.10566486,0.00609139,0.02217995,0.00306215,0.99434866,0.05592249,0.07692431,0.04718126
1761617816641,-0.09052845,0.05043922,-0.12718275,0.04145240,0.02675444,-0.01364917,0.99432816,0.05614840,0.07707012,0.04710687
1761617816653,0.04439096,-0.08049134,0.00491753,0.04039342,0.04541479,-0.01664713,0.99430028,0.05637259,0.07732217,0.04701448
1761617816664,-0.18711921,0.02553195,0.07317319,-0.06060947,0.01172610,-0.04257018,0.99432695,0.05601499,0.07739136,0.04676332
1761617816675,-0.07254348,0.28695541,-0.12232571,-0.04826069,0.02041453,-0.00821432,0.99433502,0.05575680,0.07750057,0.04671937
1761617816686,-0.05568751,-0.04906185,-0.01677731,-0.03701412,0.01236168,-0.01431235,0.99434499,0.05554952,0.07756980,0.04663922
1761617816698,0.02036012,-0.12300497,0.03017435,-0.05051218,0.01128815,-0.00208337,0.99435748,0.05523887,0.07763922,0.04662641
1761617816709,0.33331131,-0.71846294,-0.06064714,-0.03673919,0.02321392,-0.00239080,0.99435926,0.05504415,0.07776225,0.04661374
1761617816720,-0.02014363,0.00330499,-0.00568173,-0.05032031,0.01154173,-0.00599839,0.99437058,0.05477997,0.07782285,0.04658225
1761617816731,-0.04019542,0.02086973,-0.11219956,-0.04631651,-0.00211384,0.00713300,0.99438436,0.05451133,0.07781059,0.04662362
1761617816743,-0.00540877,0.08629518,-0.02457669,-0.06388801,-0.00270135,0.00489531,0.99440416,0.05414717,0.07779519,0.04665152
1761617816753,0.03258619,-0.21854731,-0.22242591,0.00748406,0.00580843,-0.01975337,0.99440448,0.05418571,0.07782510,0.04654979
1761617816793,-0.18195635,0.18120241,0.05196193,-0.00357089,0.00529058,0.00132609,0.99439883,0.05411412,0.07793118,0.04657638
1761617816820,0.33010334,-0.33198631,-0.48577663,-0.02894502,0.00273950,-0.04316437,0.99444441,0.05372191,0.07796830,0.04599150
1761617816831,0.65155425,-0.44715564,0.68811329,-0.11892830,0.03233113,0.03286356,0.99445731,0.05306186,0.07814774,0.04617390
1761617816853,-0.42660080,0.31421025,0.10298232,-0.04501620,0.00610436,-0.00147266,0.99447908,0.05256668,0.07821489,0.04615770
1761617816864,0.05229834,0.12038943,-0.12394020,-0.03561941,0.00194566,-0.01426955,0.99449245,0.05236721,0.07822578,0.04607779
1761617816877,-0.32500763,0.33106462,0.02594468,-0.04380271,0.01193220,-0.02231794,0.99450730,0.05209564,0.07829976,0.04593942
1761617816889,-0.02012037,-0.03479272,-0.01614382,-0.02441292,0.01283589,0.00708169,0.99450693,0.05195038,0.07837614,0.04598155
1761617816900,0.02258097,-0.23080397,-0.07523953,-0.02865877,0.00692702,-0.00217258,0.99451270,0.05179276,0.07841423,0.04596960
1761617816910,-0.02590093,-0.07949092,0.02871860,-0.04557216,0.00614534,-0.00926250,0.99452426,0.05156490,0.07844496,0.04592329
1761617816920,0.02747634,-0.05606412,0.00698940,-0.04687784,0.00928868,0.00078540,0.99453270,0.05132582,0.07849233,0.04592730
1761617816933,-0.09902747,0.18911067,0.12897423,-0.04640651,0.00485020,-0.00704550,0.99454738,0.05103346,0.07852289,0.04588291
1761617816943,0.18763880,-0.30865736,-0.19827839,-0.04778615,0.01095939,0.00834084,0.99455348,0.05078975,0.07857878,0.04592545
1761617816953,-0.03099671,-0.07037678,-0.06495376,-0.03754786,0.00667949,-0.00605909,0.99456239,0.05058887,0.07861452,0.04589303
1761617816965,-0.05021267,0.07306552,-0.06737706,-0.03541579,0.01168310,0.00562651,0.99456592,0.05038523,0.07868170,0.04592538
1761617816975,0.04362846,-0.29587824,-0.32254059,-0.03108015,0.01414770,0.02292321,0.99456270,0.05022050,0.07875668,0.04604688
1761617816987,-0.14841535,0.25416813,0.13847535,-0.04304038,0.00959014,-0.01235337,0.99457369,0.04998163,0.07880990,0.04597832
1761617816999,0.00852052,0.23068549,0.16843107,-0.01827631,0.00815706,0.00419250,0.99457415,0.04987288,0.07885844,0.04600326
1761617817009,0.06412691,0.19518502,0.15259562,-0.01952960,0.00903148,-0.00091701,0.99457578,0.04976840,0.07890676,0.04599836
1761617817020,0.01690644,-0.07545811,0.08695830,-0.02430763,0.00421462,-0.01317872,0.99458382,0.04963714,0.07892952,0.04592719
1761617817032,0.03749915,0.02631876,0.12689699,-0.02195641,0.01356132,0.01424356,0.99457995,0.04950430,0.07901156,0.04601336
1761617817043,-0.01203687,0.03827092,-0.04988109,-0.03123616,-0.00191267,-0.01068038,0.99459148,0.04934031,0.07900152,0.04595729
1761617817054,0.00266092,0.15560056,0.09420930,-0.02622998,0.01728544,-0.01657616,0.99459535,0.04919343,0.07909832,0.04586447
1761617817066,-0.06232470,0.11572053,0.05505151,0.00268708,-0.00094887,-0.00603320,0.99459668,0.04920955,0.07909263,0.04582827
1761617817077,0.28862057,0.22310861,0.10210055,-0.01713538,-0.00467522,0.00709214,0.99460149,0.04911702,0.07906738,0.04586656
1761617817087,0.11436739,-0.05352437,-0.03731037,-0.00744539,-0.00220945,-0.00859111,0.99460647,0.04907756,0.07905567,0.04582103
1761617817099,0.01082429,-0.06369066,0.08580162,-0.00952559,-0.02013116,0.00915362,0.99461577,0.04902374,0.07894193,0.04587275
1761617817110,-0.14583231,-0.13263247,0.00469044,-0.02579324,-0.04880943,-0.02718808,0.99465251,0.04887543,0.07866127,0.04571642
1761617817120,0.00711327,-0.00618503,0.02620575,-0.00538923,-0.00541453,-0.03075239,0.99466334,0.04884767,0.07863339,0.04555804
1761617817132,-0.14879119,0.12429822,-0.03699214,0.00615122,-0.00486328,-0.00138351,0.99466418,0.04888304,0.07860542,0.04555009
1761617817143,0.02162477,0.11708214,0.00530566,0.01352246,-0.01103900,-0.00899147,0.99466752,0.04895606,0.07854581,0.04550153
1761617817154,-0.05400436,-0.05199084,0.02088037,0.02074007,-0.01364492,-0.02068572,0.99467342,0.04907843,0.07846531,0.04537949
1761617817165,-0.01667863,0.14699219,0.02314328,0.00503177,-0.01660132,-0.01918617,0.99468367,0.04910510,0.07837732,0.04527780
1761617817176,-0.19717983,-0.21012460,-0.53719651,0.01662613,-0.00995450,-0.00621409,0.99468508,0.04920070,0.07832008,0.04524207
1761617817187,0.18236526,0.00775852,-0.05198121,0.03045172,-0.00643473,-0.00542905,0.99468100,0.04936514,0.07828534,0.04521275
1761617817199,-0.11832870,0.02155600,0.05070502,0.03821124,-0.02168841,-0.01347092,0.99468338,0.04958294,0.07816171,0.04513597
1761617817210,0.05355822,0.22106277,0.61206232,-0.01154712,-0.00591466,-0.02123557,0.99469469,0.04951770,0.07812829,0.04501599
1761617817221,-0.04969044,0.00145616,-0.06435156,-0.00631105,-0.01815647,0.00112568,0.99470381,0.04948362,0.07803025,0.04502207
1761617817232,-0.02392740,0.03128369,-0.01318255,0.02716513,-0.00170976,-0.03001111,0.99470458,0.04963710,0.07802059,0.04485250
1761617817244,-0.19923170,0.09407160,-0.18960030,0.06943631,-0.01505515,-0.01659635,0.99469574,0.05003289,0.07793478,0.04475790
1761617817254,0.00537909,0.14136254,-0.10699014,0.05590344,0.01645464,-0.00135220,0.99467387,0.05033477,0.07802363,0.04475060
1761617817266,-0.24170700,0.12811055,-0.11395116,0.04606225,0.00076117,-0.03906997,0.99467017,0.05059963,0.07802801,0.04452595
1761617817277,-0.37584308,0.06839801,-0.34321210,0.04879504,0.01001100,-0.01195619,0.99465497,0.05087044,0.07808357,0.04445959
1761617817288,-0.02372761,-0.26905565,0.00803811,-0.02224133,-0.01248487,-0.02634459,0.99467274,0.05075034,0.07801615,0.04431733
1761617817299,0.11347060,-0.22910533,0.18668664,-0.03015044,-0.01720389,-0.03105530,0.99469790,0.05057245,0.07791465,0.04413411
1761617817311,0.14172697,-0.16591866,0.19638891,-0.00900811,-0.00815451,-0.00250040,0.99470454,0.05052290,0.07786980,0.04412035
1761617817322,0.08945428,-0.12303147,-0.07194535,-0.00363310,-0.01460433,0.00673056,0.99471035,0.05050238,0.07778728,0.04415838
1761617817334,-0.06227742,0.01217487,0.09427719,-0.03702328,-0.02697577,-0.00054850,0.99473520,0.05027283,0.07762003,0.04415498
1761617817345,-0.13244829,-0.05757922,-0.13414969,-0.04191855,-0.03830190,0.01849838,0.99475914,0.05003809,0.07740554,0.04425857
1761617817355,-0.28665782,-0.11185826,-0.14837134,-0.02377466,-0.01457799,0.00857848,0.99476858,0.04992278,0.07733484,0.04430018
1761617817366,0.01508648,0.10082753,-0.09733146,-0.03584458,-0.02176731,0.03021395,0.99478045,0.04972384,0.07721403,0.04446787
1761617817378,-0.14599407,-0.13252315,-0.36301904,0.00147309,-0.03109535,0.00036165,0.99479426,0.04973261,0.07702901,0.04447002
1761617817388,-0.17545999,-0.06812028,-0.27252041,-0.00670076,-0.04986015,0.02293054,0.99481023,0.04969877,0.07677722,0.04458582
1761617817400,0.07305065,0.11578576,0.30315543,-0.00522098,-0.03513751,0.02225922,0.99482146,0.04966901,0.07657694,0.04471269
1761617817411,0.24252816,-0.01247670,0.40000030,-0.00749035,-0.02322775,0.03929736,0.99482372,0.04962557,0.07644221,0.04494062
1761617817422,-0.12743763,0.03342878,-0.01107157,-0.03226495,-0.02628047,0.00283069,0.99484277,0.04944972,0.07629899,0.04495605
1761617817433,-0.04214115,-0.06672349,-0.01404705,-0.00949102,-0.02344825,0.04423588,0.99484421,0.04939800,0.07617119,0.04519713
1761617817444,-0.12274086,0.01791705,0.03307353,-0.03544907,-0.02135360,-0.01540697,0.99486691,0.04920125,0.07605268,0.04511162
1761617817456,-0.00938969,-0.13045783,0.09021541,-0.05639385,-0.00924316,0.00355061,0.99488586,0.04887981,0.07599999,0.04513186
1761617817468,-0.07384953,0.25042651,0.04053618,-0.03004209,0.00162724,0.01549711,0.99488989,0.04869205,0.07601016,0.04522872
1761617817479,-0.29900654,0.32347399,-0.14993439,-0.00030601,0.01382910,0.00093184,0.99488371,0.04869030,0.07608899,0.04523403
1761617817490,-0.09654535,0.04558282,-0.06573190,0.01214223,0.00117118,0.00972143,0.99487752,0.04875708,0.07609543,0.04528750
1761617817492,-73.40605057,14.15914420,-34.75868639,0.05477670,0.00243340,0.06231213,0.99487352,0.04879543,0.07609714,0.04533112
1761617817504,9.21457232,-1.85131804,4.40959961,0.00186339,0.00599403,-0.00593403,0.99487190,0.04880624,0.07613190,0.04529670
1761617817546,0.18098321,-0.02278651,0.08902069,-0.00052790,-0.00164555,-0.00226353,0.99487738,0.04879489,0.07609652,0.04524803
1761617817556,-4.28357517,0.01162293,-1.72783629,0.02163722,-0.02926587,0.05429531,0.99487126,0.04889658,0.07595897,0.04550322
1761617817578,1.32411940,-0.00560846,0.36944552,0.00579979,-0.00863207,0.02494778,0.99486262,0.04896154,0.07586229,0.04578264
1761617817589,-0.45837684,0.27340012,-0.46933094,0.03667546,-0.01820758,0.04585475,0.99484879,0.04916142,0.07576306,0.04603254
1761617817600,0.29708514,0.06062512,0.83914605,0.02853528,-0.00153463,0.00925408,0.99483905,0.04932264,0.07575439,0.04608483
1761617817613,0.33832173,-0.17206050,0.13553933,-0.00271649,0.00427951,0.03369586,0.99482817,0.04930580,0.07578092,0.04629374
1761617817624,-0.05548696,-0.17666159,0.07397240,0.00019388,-0.00571951,-0.00025121,0.99483062,0.04930689,0.07574889,0.04629234
1761617817634,0.10026353,-0.08918345,0.10273286,-0.00659026,0.01839664,0.02978051,0.99481830,0.04927394,0.07584088,0.04644124
1761617817644,-0.07376843,-0.08732406,-0.06481648,0.00408822,0.01475580,0.02594780,0.99480572,0.04929417,0.07591392,0.04656968
1761617817655,0.08675491,0.09548957,0.10044982,-0.01747161,0.00260360,0.01684061,0.99480503,0.04919546,0.07592863,0.04666483
1761617817667,-0.07152957,0.09573833,-0.09727446,0.00298476,0.01376480,0.01690092,0.99479327,0.04921307,0.07600984,0.04676455
1761617817678,-0.29782349,0.29839933,-0.01618781,-0.00555096,0.01047665,0.00957637,0.99478780,0.04918198,0.07606851,0.04681817
1761617817690,0.06426078,-0.03436892,-0.04078392,0.02732132,0.01487731,0.02216053,0.99476730,0.04934045,0.07615480,0.04694670
1761617817700,-0.04274486,-0.00533175,0.05485547,0.01544630,0.01708127,0.00518152,0.99475512,0.04942154,0.07624448,0.04697391
1761617817711,0.28100507,-0.16620081,0.13296617,0.01750332,0.01545500,0.02759447,0.99473646,0.04951868,0.07633025,0.04712706
1761617817723,-0.03628235,0.10521882,0.06192188,0.02208523,0.02548495,0.01091003,0.99471662,0.04964126,0.07647169,0.04718761
1761617817733,-0.05076113,0.15933971,0.01437551,0.04556104,0.01871259,0.01968085,0.99469196,0.04988273,0.07657087,0.04729192
1761617817744,0.16129148,-0.04478202,0.07676149,0.04088083,0.02131463,0.01911447,0.99466616,0.05011166,0.07669023,0.04739896
1761617817755,0.08600861,0.03936203,0.11103263,0.02326972,0.01280017,0.01913571,0.99464910,0.05024081,0.07676127,0.04750516
1761617817767,-0.10923648,-0.11099802,-0.32766664,0.02811220,0.00012109,0.01095652,0.99463815,0.05039824,0.07676195,0.04756652
1761617817778,-0.05521840,-0.04531313,-0.21195624,0.02920246,0.01776489,0.00364243,0.99462074,0.05056615,0.07686410,0.04758746
1761617817789,-0.15474077,0.00206678,-0.12083701,0.04910866,-0.00381052,0.01146296,0.99460557,0.05083625,0.07684314,0.04765051
1761617817800,0.22007895,-0.04055746,0.28879639,0.03148749,-0.00279376,0.01466580,0.99459381,0.05101258,0.07682750,0.04773264
1761617817811,0.18053083,0.12680806,0.23983389,0.02760715,0.02166425,0.00416914,0.99457619,0.05116028,0.07694340,0.04775494
1761617817822,0.09243283,-0.01661078,-0.10463390,0.04836090,0.00243303,0.02438528,0.99455461,0.05143110,0.07695702,0.04789150
1761617817834,0.00341112,0.04138802,-0.01272722,0.04087973,0.00281490,0.00775670,0.99453916,0.05166411,0.07697307,0.04793571
1761617817845,0.08319092,-0.10469001,-0.04131181,0.04586769,0.02108732,0.00065810,0.99451564,0.05193015,0.07709538,0.04793953
1761617817856,-0.07755955,-0.03522471,0.05039653,-0.00992833,0.00485430,0.03503591,0.99450727,0.05187653,0.07712159,0.04812872
1761617817867,0.01565740,-0.22196824,-0.17999009,-0.00814354,0.02971055,0.03507899,0.99448685,0.05183011,0.07729094,0.04832867
1761617817879,-0.15616637,0.11328368,-0.14401245,-0.01542070,0.02612415,0.03318453,0.99447063,0.05174222,0.07743985,0.04851782
1761617817890,-0.02882144,-0.03169062,-0.19301292,-0.01218194,0.02903894,0.01073602,0.99445878,0.05167522,0.07759956,0.04857687
1761617817900,0.14587174,-0.11752226,0.16005031,0.02762687,0.01921768,0.00487802,0.99444242,0.05181749,0.07769853,0.04860199
1761617817911,0.28118768,0.08261762,0.30459298,-0.00645290,0.03399852,0.02175446,0.99442328,0.05178103,0.07789062,0.04872491
1761617817923,0.07194449,-0.02741797,-0.10279765,0.03632173,0.03502130,0.01684070,0.99439129,0.05199352,0.07809550,0.04882343
1761617817934,-0.02993145,0.14856385,-0.13443319,0.00452182,0.03626345,0.01802582,0.99436963,0.05201816,0.07829313,0.04892167
1761617817945,0.07677613,-0.00172847,-0.04330537,0.02743254,0.04524231,-0.01860534,0.99434672,0.05217178,0.07854649,0.04881748
1761617817957,0.05518949,-0.06708384,-0.09194360,0.02851710,0.03563614,-0.01595908,0.99432605,0.05233861,0.07875496,0.04872412
1761617817967,-0.01816587,-0.12795580,-0.23710226,-0.03544304,0.03114962,-0.01764840,0.99432737,0.05215608,0.07891538,0.04863323
1761617817978,-0.00848134,-0.01989233,-0.08260562,-0.05639548,0.03299040,-0.04552388,0.99434113,0.05185154,0.07909353,0.04838740
1761617817989,0.15015352,-0.16600283,0.01019162,-0.01106461,0.03562111,-0.02526097,0.99433530,0.05178903,0.07929479,0.04824467
1761617818000,0.10628076,-0.08106578,0.06727845,-0.03596521,0.00508981,-0.01343911,0.99434683,0.05159302,0.07932253,0.04817143
1761617818012,0.16401950,0.06909375,0.23571701,-0.04289284,0.00670798,-0.01850180,0.99436141,0.05135067,0.07936043,0.04806689
1761617818024,0.12113054,0.00387547,-0.04183900,-0.01511117,0.00356115,-0.00440530,0.99436566,0.05126000,0.07938180,0.04804046
1761617818035,0.06791309,0.11474130,-0.00817999,-0.04158881,-0.01675835,-0.00199348,0.99438637,0.05101879,0.07928460,0.04802890
1761617818047,0.09826355,-0.11577661,-0.04158843,-0.03456460,-0.02448932,-0.01042408,0.99441066,0.05082004,0.07914378,0.04796896
1761617818070,-0.09369736,0.04090268,0.14559449,-0.02449265,-0.00847794,-0.00893038,0.99443842,0.05053103,0.07904374,0.04786358
1761617818080,1.05238000,-0.89325962,-1.81628589,-0.08780082,-0.05318592,0.02235596,0.99447408,0.05011837,0.07879377,0.04796866
1761617818123,-0.26446701,0.21446977,0.40991031,-0.00389294,-0.00623639,-0.00121382,0.99449032,0.05003389,0.07865844,0.04794232
1761617818149,0.38102455,-0.12581281,-0.33467084,-0.05067093,-0.01555595,-0.03106375,0.99455808,0.04938023,0.07845777,0.04754159
1761617818168,0.04073596,-0.03805683,0.04504701,-0.03018693,0.02963212,-0.02844187,0.99456296,0.04909044,0.07874224,0.04726855
1761617818190,-0.25932113,0.14867257,0.15645738,-0.01669570,0.00286467,-0.05606369,0.99459847,0.04890762,0.07877361,0.04665465
1761617818212,0.04592813,-0.02202859,0.10039252,-0.01632650,-0.00454739,-0.03267570,0.99462844,0.04872558,0.07872290,0.04629032
1761617818223,0.25704903,-0.31538904,-0.02337974,-0.04058533,-0.01672991,-0.01953744,0.99465162,0.04850236,0.07863089,0.04618286
1761617818235,-0.10386351,-0.24960056,0.09340155,-0.03889933,-0.01620070,-0.00532139,0.99467162,0.04827480,0.07853611,0.04615173
1761617818247,-0.16203236,0.10824543,0.10298086,-0.04076913,-0.01309133,0.00584997,0.99468817,0.04802815,0.07845691,0.04618713
1761617818258,-0.04788353,0.06306247,0.09643043,-0.03417415,-0.01475175,0.00064947,0.99470332,0.04784190,0.07837651,0.04619067
1761617818268,-0.18574883,-0.10049345,-0.08041701,-0.01136917,-0.02360094,-0.00863969,0.99471791,0.04778278,0.07825379,0.04614574
1761617818279,0.15118973,0.01277242,0.01394206,-0.01857736,-0.00136218,-0.02519277,0.99472928,0.04768525,0.07824664,0.04601348
1761617818290,-0.15395586,0.09847724,0.11241665,-0.02561122,-0.01064851,-0.01188271,0.99474430,0.04753798,0.07818541,0.04594515
1761617818302,0.05136598,0.08327641,0.15564445,-0.03004291,-0.01209261,-0.03959957,0.99476870,0.04736373,0.07811527,0.04571548
1761617818313,0.23918668,0.11416279,0.25916654,-0.04046963,0.02056422,-0.00979926,0.99477272,0.04714924,0.07822426,0.04566354
1761617818323,-0.16484533,0.04200437,0.13054955,-0.03334014,0.01879727,-0.02756248,0.99478007,0.04696921,0.07832577,0.04551470
1761617818335,0.01181743,0.05623930,0.13182752,-0.03005583,0.04112505,-0.00840666,0.99477134,0.04678737,0.07857457,0.04546384
1761617818347,-0.05947739,0.10598632,0.17121670,-0.03004343,0.02735349,-0.02313687,0.99477310,0.04661312,0.07873322,0.04532965
1761617818357,0.13036900,0.12473373,0.23388635,-0.00728481,0.03772473,-0.01082565,0.99476200,0.04657560,0.07892751,0.04527390
1761617818368,-0.32620352,0.21282002,-0.61749841,0.02199847,0.03490175,-0.01287164,0.99474494,0.04669219,0.07911249,0.04520568
1761617818373,0.05410888,1.73042320,0.58140522,0.02699455,0.06233671,-0.05128292,0.99473460,0.04676373,0.07927768,0.04506978
1761617818409,-0.08478414,-0.25474818,-0.18850572,0.01572792,0.01240458,-0.00920397,0.99471132,0.04704211,0.07949724,0.04490687
1761617818436,0.10117258,0.15742398,0.37694284,0.03930490,0.03907698,-0.00921054,0.99464961,0.04757076,0.08002282,0.04478298
1761617818446,0.57123869,0.65448190,2.64594800,0.11421921,0.11097149,-0.01929101,0.99457826,0.04817041,0.08060543,0.04468171
1761617818457,-0.71032353,-0.49375935,-1.81373488,0.05538320,0.05572410,-0.00949867,0.99454024,0.04848056,0.08091748,0.04462851
1761617818480,0.04207312,-0.16712035,-0.34667231,0.05023696,0.05003203,0.00535457,0.99446251,0.04905577,0.08149035,0.04468982
1761617818491,-0.11459900,-0.02583954,0.32028658,0.06371710,0.05273457,-0.00479209,0.99442362,0.04939666,0.08177248,0.04466419
1761617818502,-0.09240131,-0.13721510,-0.12702666,0.02390238,0.07221419,-0.00083900,0.99438420,0.04952932,0.08217327,0.04465953
1761617818513,-0.12034397,-0.11224450,-0.06374442,0.02064085,0.05818483,0.00156149,0.99435076,0.04964594,0.08250201,0.04466835
1761617818524,0.00275702,0.00371599,0.12656552,0.01973511,0.06283362,-0.00412998,0.99431792,0.04975350,0.08284445,0.04464584
1761617818536,0.01106623,-0.02836615,-0.08710763,0.01645308,0.06063266,-0.00400533,0.99428540,0.04984728,0.08319006,0.04462301
1761617818548,-0.01004666,-0.04766191,-0.05596621,0.02527785,0.06377634,0.00128824,0.99424467,0.05000147,0.08357909,0.04463087
1761617818560,0.03656873,0.03086738,0.02380649,0.01112066,0.06120950,0.01600831,0.99420509,0.05006987,0.08395553,0.04472932
1761617818571,-0.14498160,-0.15208233,-0.13668752,0.01943208,0.06577156,-0.01118975,0.99417337,0.05017188,0.08430083,0.04467058
1761617818581,0.08758234,-0.07974318,-0.08109475,0.00741986,0.07219672,0.00881641,0.99413711,0.05021084,0.08467987,0.04471686
1761617818591,-0.11663070,0.00737256,0.06197298,-0.00646599,0.06147068,-0.01125287,0.99411571,0.05017948,0.08497800,0.04466229
1761617818602,-0.00156118,0.13077175,0.02692100,-0.01030703,0.06524384,0.02005441,0.99408137,0.05012021,0.08535315,0.04477760
1761617818613,0.00174279,-0.00271562,0.08354941,0.03138673,0.08307733,0.00461454,0.99403262,0.05029127,0.08580592,0.04480275
1761617818624,-0.08030742,0.00601063,-0.05777434,0.02094219,0.07678542,0.00869675,0.99398808,0.05040645,0.08622824,0.04485058
1761617818635,0.01277312,0.08414983,-0.02177796,0.01443294,0.08136435,-0.00672267,0.99394567,0.05048800,0.08668795,0.04481260
1761617818647,0.01147996,-0.11954877,-0.15776936,0.05207900,0.07183874,-0.00416851,0.99389363,0.05079787,0.08711539,0.04478779
