UnixTime(ms),Ax,Ay,Az,Gx,Gy,Gz,QuatW,QuatX,QuatY,QuatZ
1761618661287,0.00000000,0.00000000,0.00000000,0.00000000,0.00000000,0.00000000,0.94275487,0.08365115,0.31869152,0.05149227
1761618661295,-1.69338604,0.07880968,-3.52576781,0.06013411,-0.13895344,0.12315239,0.94289591,0.08389469,0.31812876,0.05199103
1761618661305,0.63205860,-0.10261563,1.53691366,0.00197839,-0.05641307,0.03049570,0.94298345,0.08390478,0.31784105,0.05214656
1761618661318,0.07884157,0.01443372,0.27750402,-0.00166665,-0.03169608,0.03545465,0.94303796,0.08389453,0.31764612,0.05236461
1761618661328,-0.12802764,-0.04634022,-0.01343592,-0.00251063,-0.00766843,0.03911093,0.94304136,0.08388097,0.31760471,0.05257581
1761618661340,-0.03831696,-0.10377510,0.13984239,0.00001459,-0.00689478,0.03663164,0.94304297,0.08388106,0.31756438,0.05279010
1761618661351,0.01601583,-0.20687847,-0.08088119,-0.01098656,-0.00151565,0.04233753,0.94303808,0.08382063,0.31755604,0.05302296
1761618661363,0.05711557,-0.00573102,0.04073684,0.01171067,0.00753509,0.03005805,0.94300777,0.08388797,0.31759937,0.05319579
1761618661374,-0.01203627,-0.00478928,0.07219367,-0.00439926,0.01379037,0.03740147,0.94297147,0.08386289,0.31767797,0.05340898
1761618661385,-0.06370480,0.04578808,0.03514451,0.00546813,0.02143380,0.02313288,0.94292051,0.08389379,0.31779907,0.05353968
1761618661396,-0.02265652,-0.00910697,0.13516330,-0.01796864,0.03143780,0.02191301,0.94286313,0.08379316,0.31797513,0.05366239
1761618661408,0.07676331,-0.10410592,0.07076543,-0.00243884,0.04531058,0.00730719,0.94277407,0.08377914,0.31823566,0.05370441
1761618661419,-0.01704808,0.16332026,0.18321520,-0.01582107,0.03723388,0.00181917,0.94271096,0.08369054,0.31844417,0.05371460
1761618661431,0.04214559,0.07019624,0.02380006,0.01687750,0.03729987,0.00517683,0.94262888,0.08378674,0.31865678,0.05374411
1761618661442,-0.06095445,0.02114795,0.00879888,0.00643506,0.04084935,-0.00301703,0.94254928,0.08382278,0.31888554,0.05372721
1761618661453,-0.06101636,0.05504028,-0.00976720,-0.00761508,0.03704027,-0.00475763,0.94248381,0.08377975,0.31909481,0.05370033
1761618661464,0.02354798,0.10257931,-0.01129041,0.00319335,0.03473779,-0.01128956,0.94241993,0.08379764,0.31928935,0.05363711
1761618661476,0.09408259,0.08826182,0.09099402,0.01948116,0.02732256,-0.02367052,0.94236591,0.08390673,0.31944235,0.05350455
1761618661487,0.20643034,0.04721943,0.11565392,0.01507037,0.02521592,-0.01559265,0.94231502,0.08399188,0.31958482,0.05341645
1761618661498,0.03267543,0.01056116,0.11203003,0.01550799,0.01386273,-0.02824087,0.94228967,0.08407950,0.31966315,0.05325689
1761618661509,0.04195745,0.10379403,0.07106233,0.03874347,0.01479215,-0.01127946,0.94224574,0.08429646,0.31974598,0.05319373
1761618661520,0.01900658,0.24672921,0.02043208,0.06448941,0.02372665,-0.01265499,0.94217226,0.08465760,0.31987885,0.05312286
1761618661532,-0.02155344,0.24407115,0.02988327,0.09592725,0.01645309,-0.01378893,0.94209758,0.08519000,0.31997017,0.05304633
1761618661543,-0.07192799,0.16208662,0.03306862,0.09676509,0.01672433,-0.01822824,0.94202167,0.08573672,0.32006466,0.05294334
1761618661554,-0.04291619,0.06659085,0.03205258,0.09122576,0.01193319,-0.01819407,0.94195805,0.08624759,0.32013149,0.05284146
1761618661565,-0.01140395,-0.19570841,-0.00522681,0.08544914,-0.00046749,-0.02638023,0.94192328,0.08672610,0.32012887,0.05269373
1761618661576,0.08062457,-0.13311195,0.02900644,0.06301752,0.00438817,-0.03091838,0.94189232,0.08707585,0.32015322,0.05252213
1761618661587,0.03483106,-0.07141576,-0.00120941,0.04990136,-0.00390789,0.00341109,0.94187299,0.08735280,0.32013153,0.05254106
1761618661599,0.05152372,0.00382054,0.00375536,0.07043965,0.02030968,-0.01407202,0.94180141,0.08775079,0.32024628,0.05246155
1761618661610,-0.20252103,0.07821451,0.02615718,0.08817158,0.00951186,-0.03257868,0.94174731,0.08824455,0.32029955,0.05227911
1761618661621,-0.07032436,0.00267280,-0.00261341,0.09870848,0.00981419,-0.02228310,0.94168357,0.08879731,0.32035451,0.05215433
1761618661632,-0.09933589,0.20596281,0.08804085,0.08702457,0.01668516,-0.02316303,0.94161351,0.08928030,0.32044711,0.05202577
1761618661643,-0.18092799,0.06536870,0.03991059,0.12706543,0.01368961,-0.03399606,0.94153092,0.08998551,0.32052309,0.05183710
1761618661655,-0.13563166,0.06768580,0.11742558,0.11347471,0.00390375,-0.05199523,0.94147851,0.09062097,0.32054495,0.05154592
1761618661666,-0.03136086,-0.01781867,0.07673908,0.07550084,0.00324590,-0.04294536,0.94144467,0.09104378,0.32056313,0.05130543
1761618661677,0.16230184,-0.06855536,-0.02615076,0.05901500,0.01161974,-0.00606408,0.94139187,0.09137721,0.32062878,0.05127117
1761618661688,-0.12831323,0.01028267,0.07839556,0.07425344,0.01195855,-0.01064157,0.94133239,0.09178932,0.32069515,0.05121210
1761618661699,-0.15964234,0.02213223,0.04547388,0.11239607,0.03549884,-0.03498432,0.94121475,0.09241312,0.32089217,0.05101794
1761618661710,-0.07033292,0.11591929,0.07325454,0.12286051,0.04634377,-0.01303698,0.94106237,0.09310114,0.32115169,0.05094493
1761618661722,0.01235428,-0.00172247,0.07650150,0.11930716,0.06058761,-0.02096435,0.94088652,0.09376926,0.32149098,0.05082753
1761618661733,-0.00535597,-0.12399385,0.12585008,0.09153993,0.04820408,-0.02058785,0.94075045,0.09427730,0.32175851,0.05071327
1761618661744,0.02811604,-0.36766127,0.10097675,0.06054823,0.04035098,-0.02708472,0.94064726,0.09461637,0.32198448,0.05056160
1761618661755,0.09066844,-0.23710354,0.19523463,0.02823074,0.03825531,-0.00818262,0.94056355,0.09476882,0.32219106,0.05051741
1761618661766,0.01425494,-0.17638285,0.02722517,0.04344766,0.04450522,-0.01639709,0.94045851,0.09501213,0.32244029,0.05042559
1761618661777,-0.02647748,0.18255421,0.14340599,0.05367990,0.04685354,0.00433446,0.94033788,0.09531005,0.32270033,0.05044964
1761618661788,-0.15622213,0.25010940,0.35109525,0.08404007,0.05259625,-0.00632027,0.94019082,0.09578067,0.32299486,0.05041425
1761618661799,0.00572743,0.30584131,-0.25242581,0.10042110,0.05448905,-0.00573731,0.94003163,0.09633801,0.32329728,0.05038241
1761618661811,0.11488125,-0.21860470,0.04434102,0.11023350,0.05908034,-0.00976326,0.93985567,0.09696083,0.32363108,0.05032725
1761618661822,-0.14819248,-0.06022133,0.13962480,0.09856306,0.06088153,-0.00638960,0.93968301,0.09751278,0.32397202,0.05029146
1761618661833,0.14515877,0.11853746,0.17976835,0.06537274,0.05279343,0.02535364,0.93953799,0.09787233,0.32426238,0.05043091
1761618661844,-0.24520220,0.01448712,0.02895048,0.06836307,0.06510211,-0.00571167,0.93937384,0.09825517,0.32462695,0.05039892
1761618661855,0.00745516,0.03318161,0.11577957,0.09552685,0.06189474,0.00144759,0.93919901,0.09878534,0.32497047,0.05040696
1761618661866,0.03727688,0.10996100,0.06320331,0.10177055,0.08002889,-0.00809868,0.93898613,0.09935525,0.32541863,0.05036161
1761618661878,0.06557271,-0.03462762,0.10833752,0.10668494,0.08751391,-0.00262873,0.93875352,0.09995269,0.32590871,0.05034688
1761618661889,-0.07378275,0.27199614,0.06758668,0.10888859,0.08870557,-0.01731410,0.93852305,0.10055702,0.32640103,0.05025079
1761618661900,0.10739576,-0.17941622,0.05079529,0.12342648,0.09607229,-0.00104956,0.93826409,0.10124204,0.32693423,0.05024497
1761618661911,-0.07987902,0.20403663,0.12572170,0.09791262,0.10071593,-0.01150981,0.93801148,0.10179035,0.32749824,0.05018051
1761618661922,0.13601980,-0.22951309,-0.08951983,0.09297427,0.10479404,-0.00839136,0.93774992,0.10231565,0.32809032,0.05013310
1761618661933,-0.18074818,0.00926966,0.04506717,0.10636596,0.09881449,-0.01533617,0.93749780,0.10290599,0.32863874,0.05004798
1761618661945,0.13218137,-0.13524532,0.17988832,0.07475836,0.10278756,-0.00059668,0.93724995,0.10332463,0.32921435,0.05004464
1761618661956,-0.08596325,-0.22097787,-0.12007082,0.08433079,0.09822442,0.00321274,0.93700560,0.10379267,0.32975950,0.05006247
1761618661967,0.20968884,0.01308040,0.06934406,0.06770713,0.10727441,0.00176630,0.93675136,0.10417183,0.33036024,0.05007236
1761618661978,-0.00665230,0.12431493,-0.25896470,0.06707284,0.09302868,0.01404859,0.93652140,0.10454744,0.33088120,0.05015104
1761618661989,-0.11101535,0.11298497,-0.01209412,0.07210145,0.08833620,-0.00425167,0.93630454,0.10494760,0.33137146,0.05012744
1761618662000,0.11287513,-0.01391408,-0.09753930,0.07102787,0.07558054,-0.00230573,0.93611065,0.10534536,0.33179471,0.05011453
1761618662011,-0.09357391,-0.04643115,0.01980628,0.08010059,0.05431412,-0.01409590,0.93595780,0.10578991,0.33209616,0.05003630
1761618662023,0.05805176,-0.16919669,-0.23970539,0.08813450,0.06110538,-0.01146361,0.93578538,0.10627906,0.33243529,0.04997267
1761618662034,-0.01136114,-0.00808047,0.11411227,0.07273830,0.04688493,0.00214815,0.93564506,0.10668639,0.33269785,0.04998470
1761618662045,0.14920168,-0.11742505,-0.09859665,0.05665610,0.05370214,0.01986635,0.93549589,0.10700367,0.33299858,0.05009595
1761618662056,0.10928785,-0.28806853,0.04799162,0.05654407,0.05327575,0.02901449,0.93534464,0.10732032,0.33329692,0.05025844
1761618662067,-0.10519290,0.10496937,-0.14365867,0.03232610,0.04524360,0.02092591,0.93522827,0.10749973,0.33354803,0.05037457
1761618662078,-0.17028516,-0.02358353,-0.04571576,0.03125994,0.02812308,0.02296192,0.93514576,0.10767322,0.33370411,0.05050201
1761618662090,0.05998682,0.01971341,-0.23341645,0.03794053,0.03930536,0.00813788,0.93504118,0.10788379,0.33392225,0.05054718
1761618662101,-0.03066738,-0.12639003,0.02914343,0.03016330,0.03327001,0.02323814,0.93494807,0.10805270,0.33410857,0.05067731
1761618662112,-0.08032221,-0.11774001,-0.06713963,0.00979720,0.03401766,0.02537830,0.93486665,0.10810708,0.33429736,0.05081816
1761618662123,0.09385999,-0.04462962,-0.03253165,-0.00560931,0.03503348,0.02882573,0.93479131,0.10807566,0.33449355,0.05097958
1761618662134,0.02416481,0.07248766,-0.05664644,-0.01100369,0.03821421,0.01707084,0.93471595,0.10801349,0.33470946,0.05107604
1761618662145,-0.08995328,0.05640687,-0.39140316,0.00936711,0.02653412,0.01680783,0.93465151,0.10806595,0.33485805,0.05117016
1761618662157,0.10304187,-0.10412063,0.01737881,0.01913716,0.02608462,0.01992698,0.93458128,0.10817216,0.33500282,0.05128075
1761618662168,-0.03386353,-0.08048635,-0.10086493,0.01686138,0.03359397,0.01795264,0.93449812,0.10826574,0.33518927,0.05138039
1761618662179,0.00271400,0.09921094,0.23669403,-0.00308446,0.03153085,0.01783731,0.93443127,0.10824847,0.33536584,0.05148028
1761618662190,-0.15680431,-0.13268971,-0.22689109,-0.00516199,0.03086183,0.01263147,0.93436868,0.10821956,0.33553867,0.05155102
1761618662201,-0.02157936,-0.06091655,-0.03601455,-0.01938089,0.04488293,0.00704195,0.93428948,0.10811200,0.33578777,0.05159010
1761618662212,-0.00617286,-0.09666924,-0.03843268,-0.01428884,0.04277238,0.00322516,0.93421162,0.10803198,0.33602729,0.05160816
1761618662224,-0.00828447,-0.00495751,0.05546880,-0.01615640,0.04919033,-0.00156210,0.93412422,0.10794231,0.33630030,0.05159949
1761618662235,0.06841233,0.09612652,-0.01955269,-0.01248282,0.04450488,0.00091393,0.93404152,0.10787178,0.33655175,0.05160465
1761618662246,-0.02610617,-0.27618628,0.26396426,0.00251163,0.04531324,-0.00538205,0.93395090,0.10788572,0.33680324,0.05157478
1761618662257,0.03289600,0.07897458,0.03724988,0.00267363,0.04603176,-0.00161397,0.93385751,0.10790056,0.33705872,0.05156583
1761618662268,-0.06564120,-0.02942917,-0.07575664,0.00167186,0.02617156,0.01321393,0.93379943,0.10790992,0.33720528,0.05163982
1761618662279,0.10203115,0.13068017,-0.25058578,-0.00315479,0.03971165,0.01916288,0.93371595,0.10789242,0.33742568,0.05174618
1761618662290,0.04618086,-0.05990177,0.01813117,-0.02780695,0.03152900,0.01111308,0.93366665,0.10773670,0.33760224,0.05180841
1761618662302,0.08982473,-0.02445927,0.05644713,-0.03402781,0.03332836,0.03207812,0.93361163,0.10754784,0.33778721,0.05198644
1761618662313,0.04497369,0.05993762,-0.02363195,-0.01258643,0.02722908,0.03270980,0.93355434,0.10747736,0.33793969,0.05216962
1761618662324,-0.06937403,0.04567520,-0.05155536,0.01416108,0.02890743,-0.00552488,0.93348832,0.10755666,0.33810158,0.05213868
1761618662335,0.02365264,0.10967852,0.00039738,0.00925516,0.03379286,0.01325411,0.93341034,0.10760803,0.33828913,0.05221224
1761618662346,0.18468063,-0.04591813,0.10675578,-0.00429623,0.02247373,0.01501019,0.93336279,0.10758397,0.33841498,0.05229630
1761618662357,0.00190066,-0.14159904,-0.03302394,0.01193263,0.02376671,-0.00367351,0.93330797,0.10765079,0.33854807,0.05227573
1761618662368,0.09715895,-0.07124029,0.01655166,-0.01079817,0.02675557,0.00865239,0.93325831,0.10759086,0.33869657,0.05232375
1761618662380,-0.14222681,0.04976729,-0.07135529,-0.04515493,0.01243336,0.00305043,0.93326117,0.10734025,0.33876557,0.05234068
1761618662391,0.11974147,0.08150838,-0.05521113,-0.03785540,0.00825252,0.01512463,0.93326400,0.10712826,0.33881179,0.05242537
1761618662402,0.01797991,0.07474661,0.00680404,-0.01066540,-0.00115580,0.00630809,0.93327109,0.10706960,0.33880543,0.05246007
1761618662413,0.04601321,0.06604896,0.00757240,-0.00825365,0.00329869,0.00119884,0.93326931,0.10702338,0.33882390,0.05246678
1761618662424,0.10548654,0.06325628,0.02518372,-0.00778313,-0.00163153,0.01138956,0.93327403,0.10697979,0.33881476,0.05253056
1761618662435,0.03261956,-0.05953761,0.00285292,-0.00631885,-0.01102083,0.01436609,0.93329576,0.10694473,0.33875360,0.05261030
1761618662446,0.19099904,0.14305076,-0.05628346,-0.01492357,-0.01461859,0.00665572,0.93333294,0.10686115,0.33867174,0.05264757
1761618662458,0.10044164,-0.03930210,0.03308605,-0.02350649,-0.00823247,0.00615301,0.93336252,0.10673069,0.33862605,0.05268172
1761618662469,0.04353882,-0.07570917,0.07401599,-0.04042971,-0.00964230,0.01378389,0.93340325,0.10650631,0.33857253,0.05275822
1761618662480,-0.06571826,-0.28058040,0.07370402,-0.03295295,0.00012428,0.01660623,0.93341877,0.10632177,0.33857323,0.05285121
1761618662491,-0.02010539,0.03088119,0.06919146,-0.02976741,-0.01257875,0.00395632,0.93346242,0.10615358,0.33850216,0.05287357
1761618662502,0.06013212,0.08653147,0.03411367,-0.00446187,-0.00293388,0.00382106,0.93346987,0.10612904,0.33848602,0.05289458
1761618662513,0.04770652,0.16450090,0.00074730,0.00522926,-0.01801312,0.01469051,0.93349845,0.10615833,0.33838515,0.05297685
1761618662525,0.03136086,0.09188495,-0.02850987,0.00411835,-0.00820490,-0.00037628,0.93351260,0.10618139,0.33833920,0.05297474
1761618662536,0.01210389,-0.00748137,0.04230646,0.01019059,-0.01885241,0.00705416,0.93354160,0.10623744,0.33823551,0.05301354
1761618662547,0.18863170,-0.21924634,-0.02040616,-0.01045699,-0.00780609,0.01459401,0.93355945,0.10617888,0.33819180,0.05309527
1761618662558,0.05469132,-0.10517724,0.06365825,-0.01561042,-0.01835501,0.01015878,0.93360299,0.10609224,0.33808993,0.05315165
1761618662569,0.07694242,-0.04425077,0.03812019,-0.01289108,-0.02822443,0.00125840,0.93366801,0.10602005,0.33793187,0.05315869
1761618662580,0.11393522,0.21148777,0.14294814,-0.01128003,-0.03105326,-0.01750438,0.93374300,0.10595745,0.33775952,0.05306154
1761618662591,0.05463704,0.10696934,-0.01075201,0.00752785,-0.03117654,-0.00330102,0.93380028,0.10599810,0.33759117,0.05304372
1761618662602,0.01940434,0.21581111,-0.04928353,0.02985991,-0.03973352,-0.00880662,0.93386393,0.10616382,0.33737065,0.05299484
1761618662613,-0.02999341,0.16671740,0.01862494,0.02888573,-0.04018464,-0.01814696,0.93393194,0.10632414,0.33714762,0.05289413
1761618662625,0.04710340,0.01575950,-0.02598744,0.03204242,-0.02795741,-0.01192759,0.93397249,0.10650678,0.33698827,0.05282614
1761618662636,0.01543481,-0.09721944,0.06899430,0.03058042,-0.03533345,-0.00181840,0.93402396,0.10667497,0.33679393,0.05281614
1761618662647,0.12402847,0.00275581,0.07974201,0.01884411,-0.03694908,-0.01029112,0.93408915,0.10677956,0.33658887,0.05275902
1761618662658,0.06339126,-0.09663015,-0.02795215,0.00963510,-0.03366330,0.01022715,0.93414870,0.10683448,0.33639699,0.05281732
1761618662669,-0.03125381,-0.02788947,0.09660868,0.01112897,-0.03263812,0.00171949,0.93420527,0.10689513,0.33621911,0.05282669
1761618662680,-0.08762798,-0.02351973,-0.09373495,0.01942119,-0.02057484,0.00113919,0.93423366,0.10700292,0.33610492,0.05283301
1761618662691,0.04612093,0.03560952,-0.07799120,0.02956891,-0.02440951,-0.00033630,0.93426395,0.10716850,0.33596822,0.05283113
1761618662703,-0.02470856,0.05036745,-0.08505446,0.02795032,-0.03665687,-0.00628310,0.93432177,0.10732502,0.33576295,0.05279594
1761618662714,0.05987074,0.02589647,-0.03943866,0.01217226,-0.03124700,-0.00517966,0.93437844,0.10739319,0.33558796,0.05276694
1761618662725,-0.02850987,-0.05583184,-0.08790545,0.01906998,-0.03337745,-0.00124445,0.93443367,0.10749998,0.33540105,0.05275997
1761618662736,0.02554485,-0.01041938,0.00756493,0.00322555,-0.02665161,-0.00268068,0.93448506,0.10751772,0.33525446,0.05274522
1761618662747,0.02527876,-0.03086842,-0.29585475,-0.00672812,-0.02675818,-0.00161783,0.93454365,0.10748004,0.33510462,0.05273616
1761618662758,-0.00538188,-0.01731186,-0.03131944,-0.00465048,-0.02670454,-0.00648479,0.93460178,0.10745423,0.33495641,0.05270017
1761618662769,-0.02032506,-0.00767006,0.01749761,-0.00155639,-0.02143363,-0.00693347,0.93464798,0.10744552,0.33483638,0.05266135
1761618662781,-0.05153048,-0.02508902,0.22965948,0.01007818,-0.02325451,-0.00890345,0.93469132,0.10750246,0.33470499,0.05261104
1761618662792,0.01878548,0.12616304,-0.02626029,0.01293472,-0.01825351,-0.00027590,0.93471942,0.10757425,0.33460369,0.05260951
1761618662803,-0.01292299,0.03792856,-0.06163939,0.02845837,-0.01314045,-0.00030282,0.93472736,0.10773077,0.33453141,0.05260784
1761618662814,0.00066200,0.02854909,-0.11632239,0.01895577,-0.01705937,-0.00804545,0.93475205,0.10783787,0.33443503,0.05256239
1761618662825,-0.05628808,0.02648464,0.03018557,0.01292767,-0.02222718,-0.00648496,0.93479026,0.10791026,0.33431056,0.05252607
1761618662836,-0.01430300,-0.08332533,-0.02823216,0.01705657,-0.00962947,-0.02250382,0.93480532,0.10800407,0.33425759,0.05240230
1761618662848,0.02986987,0.00921134,0.09319949,0.01523516,-0.00776266,-0.01573352,0.93481612,0.10809091,0.33421335,0.05231262
1761618662859,0.04738980,0.02139534,0.09358276,0.02298951,-0.00979535,-0.01527839,0.93482528,0.10821506,0.33416045,0.05223012
1761618662870,0.01397336,-0.01338600,-0.04903874,0.02496098,-0.00957884,-0.00948744,0.93483123,0.10835484,0.33410681,0.05217699
1761618662881,0.00751035,-0.07200732,-0.14943381,0.01659876,-0.01318366,0.00023569,0.93484690,0.10844862,0.33403232,0.05217832
1761618662892,0.03197984,-0.01189344,-0.04615457,0.01794152,-0.00506659,-0.01391740,0.93484970,0.10854820,0.33400420,0.05210108
1761618662903,0.03676611,-0.01826212,-0.08030493,0.02609589,-0.01447901,-0.01336484,0.93486571,0.10869303,0.33392384,0.05202690
1761618662915,0.10090045,0.03239134,-0.08591413,0.03297900,-0.01600747,-0.01766190,0.93488202,0.10888101,0.33383260,0.05192623
1761618662926,0.11915475,0.10214705,-0.03883790,0.03283824,-0.03645834,-0.03079913,0.93494357,0.10906655,0.33362661,0.05175221
1761618662937,0.15777563,0.10508650,-0.08378913,0.03259511,-0.04086083,-0.03589883,0.93501562,0.10925071,0.33339575,0.05154939
1761618662948,0.24083322,0.09740202,-0.01359865,0.04386734,-0.05683650,-0.03389994,0.93510822,0.10948979,0.33308599,0.05136463
1761618662959,0.03878106,-0.08227661,-0.12212617,0.04739180,-0.06299886,-0.03603718,0.93521282,0.10975281,0.33273635,0.05116462
1761618662971,0.06378792,-0.05160457,-0.09578725,0.03791103,-0.06810552,-0.03219773,0.93533549,0.10996890,0.33234814,0.05098110
1761618662982,0.05193909,-0.13629042,-0.08572543,0.05038266,-0.08297712,-0.00707094,0.93546703,0.11024601,0.33189177,0.05094221
1761618662993,0.04265925,-0.08393482,-0.01694935,0.04416539,-0.07710652,-0.02373453,0.93559699,0.11049113,0.33146383,0.05081048
1761618663004,0.00387012,-0.15057175,-0.02225317,0.02781621,-0.08427491,-0.04039380,0.93575647,0.11064551,0.33099610,0.05058630
1761618663015,0.04664171,0.00462368,0.01788450,0.00165335,-0.08074960,-0.01164890,0.93591584,0.11065460,0.33055198,0.05052223
1761618663026,-0.08058524,0.02116211,-0.03239959,-0.00078222,-0.06537272,0.00177339,0.93604619,0.11065018,0.33018262,0.05053225
1761618663037,-0.17738088,-0.02934953,-0.03500938,0.02414222,-0.05674946,-0.02618380,0.93615107,0.11078658,0.32986199,0.05038431
1761618663049,0.23187311,-0.03724613,-0.04585276,0.02942788,-0.02439162,-0.03578976,0.93619008,0.11094991,0.32972662,0.05018567
1761618663060,-0.19174165,0.04762315,0.03830603,0.01025842,-0.03743847,-0.02303203,0.93626663,0.11100941,0.32950947,0.05005209
1761618663071,0.06918181,0.15503026,0.05649604,0.01361349,-0.00992795,-0.04580613,0.93628954,0.11108156,0.32945685,0.04980932
1761618663082,-0.33687363,0.19814613,0.04002012,0.02440735,0.00030762,-0.04938146,0.93628740,0.11121702,0.32945856,0.04953525
1761618663093,-0.11698466,0.07466184,0.05939557,-0.00249362,0.01302631,-0.06214428,0.93628173,0.11120305,0.32953151,0.04918724
1761618663105,-0.10691039,-0.07157393,0.02259745,-0.01496085,0.01866160,-0.05677344,0.93627090,0.11111404,0.32964255,0.04884944
1761618663115,0.09722952,0.04755080,0.19945147,-0.02496769,0.02977925,-0.05438354,0.93624695,0.11098670,0.32979442,0.04857208
1761618663127,-0.09831049,-0.04375950,-0.02741039,-0.00921507,0.03395181,-0.04854785,0.93619930,0.11093418,0.32998795,0.04829536
1761618663137,0.01732068,0.00379898,0.07524005,-0.00227840,0.03730471,-0.04146008,0.93614125,0.11092187,0.33018939,0.04807148
1761618663148,-0.07251095,0.02912330,0.00848604,-0.00496241,0.03970254,-0.03549389,0.93607686,0.11089433,0.33040974,0.04787448
1761618663160,-0.01737643,-0.09463836,0.00795649,-0.00294006,0.04126049,-0.03232937,0.93600583,0.11087772,0.33064286,0.04769182
1761618663171,-0.01960526,-0.11669795,0.03524278,-0.01315698,0.02988042,-0.02500048,0.93596217,0.11080338,0.33081169,0.04755057
1761618663182,0.12859578,-0.16340168,0.14880259,-0.02035962,0.03838846,-0.00985157,0.93590299,0.11069039,0.33102474,0.04749590
1761618663193,-0.01249982,-0.06955650,0.01992481,-0.02706864,0.02799503,-0.02100565,0.93587140,0.11053880,0.33118151,0.04737826
1761618663204,0.10839784,-0.04936721,-0.01308972,-0.01554851,0.02434059,-0.01986966,0.93583935,0.11045251,0.33131660,0.04726799
1761618663216,0.00483765,0.04734847,-0.01015906,-0.00341889,0.01398592,-0.01160515,0.93581736,0.11043353,0.33139423,0.04720358
1761618663227,-0.01741553,0.09282235,0.01306165,-0.00221257,0.01592629,-0.00109149,0.93578780,0.11042125,0.33148262,0.04719752
1761618663238,-0.09975887,0.06708450,-0.01237209,0.00997796,0.02137508,-0.01543627,0.93574276,0.11047763,0.33160339,0.04711031
1761618663249,-0.22861888,0.02733660,-0.07681950,0.03609244,0.02565276,-0.01835062,0.93567436,0.11067614,0.33174448,0.04700938
1761618663260,0.02209947,0.02828957,0.08210844,0.00291846,0.03995508,0.00625762,0.93559131,0.11069248,0.33196823,0.04704442
1761618663271,-0.01501236,-0.13587184,0.11476410,-0.01119639,0.04354132,0.00329778,0.93551053,0.11062922,0.33221423,0.04706305
1761618663282,0.18601985,-0.22105442,0.13051730,-0.01306290,0.05543005,0.00141135,0.93541031,0.11055738,0.33251910,0.04707081
1761618663294,0.01683845,-0.10141582,0.04962846,-0.03694578,0.04414627,-0.00588844,0.93534793,0.11034863,0.33276853,0.04703754
1761618663305,-0.00519726,0.05321197,0.08796597,-0.05995299,0.04846171,-0.01270689,0.93529494,0.11001589,0.33303749,0.04696702
1761618663316,-0.04934400,0.17149457,-0.01668988,-0.02521859,0.05146773,-0.00105273,0.93520993,0.10987593,0.33332313,0.04696118
1761618663327,-0.04970821,0.15374785,-0.06438266,0.00860267,0.06924229,-0.01087056,0.93506903,0.10992411,0.33371089,0.04690030
1761618663339,-0.12731370,0.15425531,0.00961034,0.00958353,0.06171804,-0.00956870,0.93493631,0.10998017,0.33407194,0.04684433
1761618663349,0.11510039,0.05826940,0.22371261,0.02296196,0.07723888,-0.00651711,0.93477734,0.11010187,0.33448131,0.04680979
1761618663361,0.08963576,-0.04796249,-0.00105343,0.01343461,0.06039980,-0.00818134,0.93464967,0.11017710,0.33481955,0.04676397
1761618663372,0.18233609,-0.01748356,0.03334737,-0.00071201,0.04713481,0.00437486,0.93455517,0.11017315,0.33508114,0.04678825
1761618663383,0.17125269,0.00151176,-0.02612329,-0.00330511,0.03913501,0.00755932,0.93447733,0.11015481,0.33529834,0.04683021
1761618663394,-0.00046259,0.05613224,0.02607726,0.00101360,0.02373527,-0.00553008,0.93443009,0.11016053,0.33543245,0.04679896
1761618663405,0.04594480,0.04795424,0.05424158,0.01183240,0.01175462,-0.00274595,0.93439968,0.11022620,0.33549769,0.04678372
1761618663416,0.07836988,0.04783223,-0.03531482,0.01715014,0.02251641,-0.00065095,0.93434375,0.11032139,0.33562265,0.04678011
1761618663428,-0.03622473,0.05213139,-0.01695800,0.03307739,0.01328273,-0.00100021,0.93429499,0.11050827,0.33569770,0.04677446
1761618663439,-0.10728445,0.10385047,-0.01514868,0.06892219,0.01217555,-0.01972961,0.93423086,0.11089079,0.33576527,0.04666496
1761618663450,-0.10352564,0.20118563,-0.05127905,0.08977839,0.01481734,-0.02726210,0.93414956,0.11138906,0.33584751,0.04651365
1761618663461,0.06610781,0.07432135,-0.00896787,0.07963601,0.02188081,-0.01131153,0.93405452,0.11183900,0.33597114,0.04644974
1761618663472,0.02461634,-0.09706706,0.02340051,0.07102598,0.00502257,-0.00972655,0.93399990,0.11223320,0.33599901,0.04639576
1761618663484,0.21523776,-0.16770825,-0.00498304,0.04428830,0.01481560,-0.00002446,0.93393915,0.11248564,0.33608346,0.04639562
1761618663494,0.02969259,-0.09768768,0.03942875,0.03382423,0.00161699,0.00796659,0.93391185,0.11266829,0.33609219,0.04643864
1761618663506,0.01890099,-0.14536956,-0.08646235,0.02876446,-0.00104559,-0.00636318,0.93389628,0.11282937,0.33608634,0.04640301
1761618663517,0.08956530,-0.07176352,-0.03116577,0.01973469,-0.01444570,-0.01295313,0.93391529,0.11293792,0.33600689,0.04633176
1761618663528,-0.00243630,-0.03815248,-0.09459663,0.00871481,-0.03621979,-0.01585833,0.93398674,0.11298672,0.33580406,0.04624296
1761618663539,0.10232487,-0.02265001,-0.16096621,0.02082684,-0.04535065,-0.01308591,0.93406680,0.11310231,0.33555236,0.04617033
1761618663550,0.11811478,-0.16755866,-0.27904789,0.02917581,-0.03830328,-0.00331302,0.93412495,0.11326569,0.33533786,0.04615178
1761618663561,-0.03706284,0.10750599,-0.01092879,0.02807346,-0.03440707,0.00096904,0.93417475,0.11342290,0.33514518,0.04615720
1761618663572,-0.08661979,0.03767533,0.02071333,0.04537799,-0.03619102,-0.00248132,0.93421686,0.11367475,0.33494432,0.04614343
1761618663584,-0.12658419,0.24388406,0.16643615,0.01714141,-0.03305253,-0.00806868,0.93427476,0.11377246,0.33475592,0.04609744
1761618663595,0.01633542,-0.00860228,0.02454713,0.02584273,-0.04337279,-0.01813198,0.93434713,0.11391330,0.33451954,0.04599862
1761618663606,-0.06634867,-0.00582785,-0.05773468,0.02747932,-0.02794735,-0.01208680,0.93438771,0.11406718,0.33436303,0.04593094
1761618663617,-0.07064692,0.04945468,-0.01028000,0.02314364,-0.03457944,-0.01023665,0.93444346,0.11419563,0.33417112,0.04587412
1761618663628,-0.07152280,-0.00570974,-0.02278317,0.00562022,-0.01618826,-0.01141390,0.93447573,0.11422767,0.33407885,0.04580906
1761618663640,-0.12566692,-0.06730518,0.00573298,0.00014946,-0.01365055,-0.00761579,0.93450557,0.11422852,0.33400104,0.04576565
1761618663650,-0.08872051,0.11868466,0.19035215,-0.01434809,-0.00792868,-0.01406871,0.93453326,0.11415319,0.33395941,0.04569179
1761618663665,-0.21106703,-0.14831513,-0.21669401,-0.00442815,-0.00811614,-0.00495975,0.93456034,0.11412064,0.33389976,0.04565534
1761618663671,1.02595952,0.01048703,1.22897359,-0.02855369,-0.00244262,-0.01846017,0.93457716,0.11402927,0.33389194,0.04559627
1761618663684,-0.43015887,-0.18214496,-0.65011900,-0.01792248,-0.00225104,-0.00730561,0.93459825,0.11391636,0.33387776,0.04555024
1761618663693,0.05599968,-0.20373631,0.05613888,-0.00698619,-0.00928053,-0.00411342,0.93461877,0.11388353,0.33383414,0.04553091
1761618663724,-0.17621137,0.05265757,-0.18218548,-0.00878404,-0.00054440,-0.00192088,0.93463941,0.11375001,0.33382587,0.04550171
1761618663732,1.58845333,-0.79416835,1.82465918,-0.04712966,-0.00260995,-0.01697557,0.93467011,0.11355678,0.33381517,0.04543211
1761618663744,-1.07475464,0.32707012,-1.17309053,-0.00000571,0.00098182,-0.00544613,0.93466961,0.11355674,0.33382091,0.04540025
1761618663755,0.00207472,-0.04178633,-0.15797568,-0.01323563,-0.00755909,0.00192753,0.93469405,0.11347998,0.33377707,0.04541143
1761618663774,-0.06722222,0.09461504,-0.07118015,-0.00684616,-0.00682705,-0.01164218,0.93473028,0.11341528,0.33371255,0.04530141
1761618663778,1.50676569,-1.21165484,0.03842474,-0.00612523,-0.09046937,-0.03633657,0.93479464,0.11340395,0.33354518,0.04523419
1761618663789,-0.48770099,0.44744423,0.01515745,-0.03236731,-0.04817824,-0.02581173,0.93491758,0.11322593,0.33328020,0.04509222
1761618663801,-0.02023117,0.01333006,-0.03313338,-0.04624024,-0.03744100,-0.00225608,0.93502804,0.11295773,0.33306304,0.04507914
1761618663812,-0.04518188,0.03039810,-0.05226923,-0.04034333,-0.03975464,0.00371254,0.93513734,0.11272374,0.33283247,0.04510067
1761618663824,0.04942900,-0.04920948,0.00580855,-0.03773635,-0.03494417,-0.00717657,0.93523694,0.11250676,0.33263154,0.04505941
1761618663835,0.00503818,-0.09545346,0.01306731,-0.04751626,-0.04663739,-0.00384695,0.93536729,0.11223117,0.33236104,0.04503709
1761618663847,0.02543071,-0.18069661,0.11810334,-0.04003474,-0.05502215,-0.00336354,0.93550694,0.11200297,0.33204742,0.04501792
1761618663858,0.06615754,-0.04520558,0.05881000,-0.03895788,-0.04603498,-0.00749197,0.93562971,0.11177896,0.33178271,0.04497484
1761618663870,-0.00252849,-0.02520019,0.02277040,-0.03654030,-0.06458465,0.00602742,0.93578338,0.11157068,0.33141458,0.04500920
1761618663955,-0.02521829,0.05533850,-0.02426308,-0.00284829,-0.00633315,0.00002299,0.93589432,0.11144820,0.33114226,0.04501019
1761618664026,0.05340673,-0.04051547,-0.01446317,-0.01717244,-0.05915789,0.00468568,0.93669230,0.11084373,0.32905990,0.04517512
1761618664047,0.45281539,-0.08599905,0.00938444,-0.08636935,-0.08955445,0.04149879,0.93710585,0.10994117,0.32812406,0.04560879
1761618664096,-0.19723397,0.17113035,0.03710620,0.00029200,-0.02598838,0.00331072,0.93732243,0.10994828,0.32749124,0.04568940
1761618664130,0.11931156,-0.07002569,-0.05447114,-0.02615182,-0.04501269,0.00594262,0.93763654,0.10950370,0.32672602,0.04579043
1761618664143,1.40346836,-0.26346423,-0.35025536,-0.07152475,-0.17816440,-0.02600940,0.93810881,0.10903164,0.32555014,0.04561876
1761618664205,-0.34629146,0.04365840,0.05083484,-0.00269885,-0.03445347,-0.01278129,0.93850895,0.10894771,0.32447863,0.04522127
1761618664208,60.30883441,5.17162137,-22.01295789,0.07882060,-1.09913448,-0.40019676,0.93901477,0.10905017,0.32304976,0.04470101
1761618664242,-4.41101937,-0.34087514,1.67947693,0.00525134,-0.07149648,-0.00769945,0.93943031,0.10913997,0.32182717,0.04456935
1761618664294,-0.11500256,0.00202886,0.02113254,0.00470725,-0.02713160,-0.00085197,0.93965938,0.10926283,0.32111903,0.04454711
1761618664296,88.86522202,-9.06392151,-14.16815600,-0.29789522,-1.06472874,0.17545007,0.94000994,0.10899472,0.32016078,0.04470502
1761618664332,-4.34145870,0.36941653,0.67911107,-0.00091095,-0.03687747,0.01396377,0.94022987,0.10897801,0.31948408,0.04496125
1761618664343,0.90752175,-0.23281081,-0.38426540,0.01628990,-0.08358327,0.04981394,0.94035640,0.10906353,0.31904527,0.04522278
1761618664388,-0.26134105,0.05705440,0.12186922,-0.01062777,-0.01367939,0.01377164,0.94047430,0.10882281,0.31873543,0.04553470
1761618664390,41.60279045,-6.16737114,-7.01590987,0.12646009,-0.05848392,0.08532352,0.94047529,0.10894295,0.31867987,0.04561576
1761618664426,-2.18283414,0.34747956,0.31805365,-0.00016997,0.00090997,0.01072598,0.94046067,0.10893988,0.31869629,0.04580937
1761618664431,4.73067246,0.29817050,-4.20111493,0.04163017,-0.04922547,-0.08693498,0.94050167,0.10904604,0.31857077,0.04558768
1761618664452,-0.99539502,-0.07312571,0.80206919,-0.02516326,-0.03795919,-0.04088308,0.94068522,0.10878560,0.31817789,0.04516454
1761618664467,0.21239797,0.03333172,-0.11464305,-0.05921405,-0.06218754,0.01260668,0.94088819,0.10834445,0.31771459,0.04525846
1761618664496,-0.13754971,0.01139047,0.12714698,-0.03544930,-0.03524115,-0.00413777,0.94112574,0.10782335,0.31719655,0.04519764
1761618664498,76.86420620,8.86601669,-60.93550160,-0.16679950,-0.85594360,0.00827163,0.94137120,0.10768991,0.31651179,0.04520425
1761618664515,-6.60270669,-0.77762790,5.20144089,-0.00694498,-0.10891129,0.00163154,0.94169548,0.10762949,0.31556426,0.04521845
1761618664530,-0.12204461,-0.01272209,0.09422203,-0.02502680,-0.09526365,-0.00450031,0.94195067,0.10744679,0.31486884,0.04518560
1761618664543,-0.01908391,-0.00795549,-0.05688418,0.01382929,-0.08880910,-0.01510904,0.94213932,0.10753737,0.31428714,0.04508663
1761618664553,0.27909534,-0.06975165,-0.48317300,0.04211850,-0.10702871,-0.00757988,0.94229543,0.10774797,0.31375200,0.04504873
1761618664573,-0.38176775,-0.02136454,0.37923455,0.01796152,-0.05451174,-0.00268441,0.94245749,0.10792758,0.31320688,0.04502189
1761618664596,-0.04916951,0.02640247,0.09466538,0.00042677,-0.05056263,0.00722807,0.94264272,0.10793240,0.31263552,0.04510357
1761618664597,91.92614743,21.63670014,-85.56226246,0.22379854,-1.18784987,-0.04184163,0.94297534,0.10813382,0.31156646,0.04506591
1761618664609,-14.41972643,-3.21592783,13.27730408,0.01637536,-0.09192897,0.01810523,0.94312715,0.10822389,0.31106085,0.04516549
1761618664622,-0.19825162,-0.04266291,0.18663343,0.01092917,-0.07333367,-0.00217935,0.94328135,0.10829711,0.31056951,0.04515089
1761618664628,1.47079156,0.85700828,-2.22963876,0.04998490,-0.12498190,-0.05204960,0.94339495,0.10844707,0.31019457,0.04499474
1761618664646,-0.73264224,-0.34487462,0.87945514,0.02343909,-0.04626159,-0.00948106,0.94351478,0.10866388,0.30976665,0.04490704
1761618664651,4.43745384,2.77301825,-7.30139547,0.02234888,-0.21718639,-0.10059324,0.94366902,0.10871081,0.30931055,0.04469579
1761618664663,-1.26555039,-0.78272767,2.18072450,-0.02179327,-0.04924881,0.00642387,0.94378730,0.10857024,0.30899290,0.04473722
1761618664673,0.16314209,0.23641892,-0.34822971,-0.00679446,-0.08158969,0.02161152,0.94391690,0.10853695,0.30859311,0.04484312
1761618664702,-0.23382539,-0.19727176,0.30533292,0.01203194,-0.03288366,0.00202571,0.94404979,0.10870961,0.30812123,0.04487219
1761618664705,13.02236053,5.39591522,-26.03236076,0.12119861,-0.36205409,0.10781132,0.94421799,0.10891565,0.30750574,0.04505547
1761618664723,-2.43074924,-1.01469068,4.75110288,0.01229066,-0.03406097,0.01671307,0.94429737,0.10902565,0.30720089,0.04520505
1761618664728,2.80954354,-0.64542898,-7.57972222,-0.02247451,-0.17001134,0.09186306,0.94442833,0.10897059,0.30678436,0.04543012
1761618664741,-1.00387149,-0.01379271,2.55728111,-0.02385063,-0.03434709,0.01901387,0.94451274,0.10881556,0.30656111,0.04555371
1761618664763,-0.08217739,0.06006959,0.27241780,-0.00764911,-0.02005520,0.00372915,0.94459023,0.10873333,0.30634552,0.04559379
1761618664775,0.14290033,0.03422582,-0.63429988,-0.00252434,-0.05580581,0.00519489,0.94470352,0.10871755,0.30599673,0.04562626
1761618664777,15.07885753,5.51766716,-56.93053822,0.13290391,-0.23436974,0.07008481,0.94474928,0.10882387,0.30580923,0.04568233
1761618664789,-2.25545631,-0.52190282,7.73980799,0.03349550,-0.03862129,0.00021568,0.94480103,0.10902485,0.30557751,0.04568362
1761618664798,0.17454577,0.01918999,-0.56536411,0.00645074,-0.01359458,0.01166137,0.94481446,0.10905291,0.30551837,0.04573435
1761618664812,-0.13070656,-0.06480161,0.49453438,-0.00465938,-0.01948237,0.00870649,0.94486160,0.10901866,0.30537517,0.04579834
1761618664828,0.03085345,-0.01697898,0.04395333,-0.01417536,-0.00817606,0.01098819,0.94489099,0.10890739,0.30531099,0.04588460
1761618664831,0.80263152,-2.80759649,-21.84042533,-0.15272389,-0.11540953,0.06231801,0.94496615,0.10868594,0.30514365,0.04597496
1761618664848,-0.18169424,0.35612371,3.76773043,-0.02463733,-0.01881005,-0.00322659,0.94504316,0.10847652,0.30498376,0.04594754
1761618664864,0.03520995,0.00440228,-0.10684476,-0.03070676,-0.02311099,-0.00602890,0.94513275,0.10823240,0.30480003,0.04589961
1761618664877,-0.00326716,-0.00535625,-0.35444312,-0.04098282,-0.05110278,0.00547499,0.94527481,0.10795372,0.30445253,0.04593684
1761618664879,10.94242534,-12.98093729,-95.72587352,-0.20822125,-0.42078165,0.13180517,0.94538177,0.10780796,0.30415798,0.04602910
1761618664890,-1.30892524,1.53922819,12.30035668,-0.04742487,-0.02830241,0.00352434,0.94545917,0.10755187,0.30400515,0.04604813
1761618664899,-0.09888116,-0.10194425,-0.10865430,-0.04128444,-0.04375460,-0.00077162,0.94554937,0.10735370,0.30379513,0.04604443
1761618664920,-0.03570517,0.11003819,0.44456845,-0.02770651,-0.02167075,-0.00018360,0.94565754,0.10705724,0.30356325,0.04604246
1761618664922,9.19079220,-20.08347453,-86.40032791,-0.50439290,-0.40353756,-0.06373544,0.94581865,0.10662851,0.30322024,0.04598829
1761618664943,-0.72858072,1.57505691,6.99834616,-0.01762524,-0.02106031,-0.00717420,0.94591402,0.10644344,0.30299911,0.04591296
1761618664945,24.28787905,-42.20601853,-106.76225832,-0.58672139,-0.45254204,-0.00223069,0.94606163,0.10603274,0.30268233,0.04591140
1761618664955,-3.07979671,4.98683653,13.57969468,-0.05295662,-0.06667868,0.00147380,0.94620158,0.10576001,0.30233894,0.04591899
1761618664966,-0.09135585,0.34874193,0.17085820,-0.05167072,-0.04417309,0.00775257,0.94630883,0.10547582,0.30209598,0.04596163
1761618664977,-0.10666149,-0.03656607,0.17649340,-0.04299660,-0.04385222,-0.01156507,0.94641713,0.10523504,0.30185041,0.04589686
1761618664988,0.11098809,0.09713229,-0.33858660,-0.05965857,-0.03978180,0.01458803,0.94652221,0.10489797,0.30162565,0.04597928
1761618665011,-0.06371708,0.11310949,0.40336646,-0.02669425,-0.01783410,0.00812308,0.94661532,0.10459633,0.30142412,0.04607108
1761618665022,0.09261925,-0.59714153,-1.41077625,-0.06077283,-0.04547744,-0.01334602,0.94673755,0.10425600,0.30116945,0.04599634
1761618665044,-0.07651710,0.36764324,0.85354550,-0.01663904,-0.01045575,-0.00833644,0.94679844,0.10407380,0.30105496,0.04590505
1761618665055,-0.15929629,-0.06991351,-1.64987792,-0.03870027,0.01705676,0.04199697,0.94678107,0.10386482,0.30114706,0.04613184
1761618665078,-0.09030080,0.10133997,0.81773313,0.01087611,0.01035660,-0.00767165,0.94673416,0.10398881,0.30126513,0.04604438
1761618665089,-0.16157874,-0.55604934,-1.79893827,-0.07759152,0.06166624,0.05134142,0.94665575,0.10354266,0.30161971,0.04633959
1761618665100,0.49468340,0.20081406,0.96720661,-0.02744001,0.03193266,-0.01293791,0.94662106,0.10339722,0.30178895,0.04627102
1761618665122,-0.04255760,0.18124802,0.41887631,0.01443555,0.00916623,-0.01987571,0.94658186,0.10355746,0.30189070,0.04605040
1761618665133,-0.00569822,0.23102830,-0.67199726,0.00153171,0.04489506,-0.02628247,0.94650719,0.10356611,0.30214435,0.04590191
1761618665145,-0.11949870,0.01750469,0.08402252,0.02989886,0.03101401,-0.00619787,0.94643443,0.10373504,0.30231958,0.04586689
1761618665155,0.19819267,-0.16352843,0.02591367,-0.01104968,0.04776728,0.00439923,0.94635882,0.10367648,0.30257275,0.04589020
1761618665167,0.07317596,-0.27447951,0.20465442,-0.03318340,0.02402243,0.01300484,0.94633119,0.10348070,0.30271448,0.04596693
1761618665178,0.12211368,-0.10813831,0.02778572,-0.05209618,0.02813271,0.01076112,0.94630991,0.10319156,0.30287062,0.04602666
1761618665201,-0.04825620,0.08639872,0.22982122,-0.01325097,0.00134206,0.00575040,0.94631828,0.10304050,0.30288592,0.04609221
1761618665221,0.06635925,-0.04275258,-0.40040630,-0.02067246,0.00240422,-0.00513181,0.94633583,0.10283068,0.30291032,0.04604012
1761618665223,20.54283938,-18.28040059,-142.40571003,-0.16551454,0.11997156,0.05099489,0.94631979,0.10271481,0.30299430,0.04607582
1761618665244,-1.39975188,1.23987019,9.43246605,-0.00874468,0.00506645,0.00097955,0.94631211,0.10262168,0.30304826,0.04608625
1761618665274,-0.03164086,0.01613676,0.17780352,-0.00691775,0.00410008,-0.00547254,0.94630769,0.10251896,0.30310914,0.04600499
1761618665276,6.17057362,-26.92635972,-79.28159079,-0.18564660,0.15654587,-0.35863447,0.94629436,0.10232403,0.30327352,0.04562842
1761618665317,-0.29391593,1.36646354,4.00463168,-0.01933496,0.00479865,-0.00361050,0.94630935,0.10192283,0.30337309,0.04555350
1761618665319,8.21414959,-14.33624584,-81.34222403,-0.15970154,0.16445443,-0.16941976,0.94628057,0.10175514,0.30354577,0.04537561
1761618665377,-0.30397992,0.53503839,3.00566202,-0.01832956,-0.00189696,-0.01183505,0.94637052,0.10123000,0.30349142,0.04503654
1761618665409,0.10241257,-0.06094313,-0.41752650,-0.01857412,-0.01086552,-0.02037535,0.94647345,0.10093281,0.30331757,0.04471053
1761618665458,-0.02704251,0.05731103,0.24041296,-0.01011325,-0.00585217,-0.00081410,0.94654806,0.10068049,0.30317156,0.04469022
1761618665492,0.03394075,0.03287581,-0.05001195,0.00950386,-0.01579019,-0.00407928,0.94661965,0.10084110,0.30290470,0.04462128
1761618665512,0.12600843,0.25611361,-0.03787723,0.02428315,-0.00465265,-0.02167086,0.94661884,0.10108029,0.30285888,0.04440782
1761618665545,-0.03684545,-0.09774051,0.08079626,0.01789679,-0.02104820,-0.01128714,0.94670649,0.10137380,0.30251369,0.04422271
1761618665578,-0.06513473,0.02001174,0.03585021,0.01816632,-0.01352127,-0.00723548,0.94675104,0.10167263,0.30229126,0.04410369
1761618665588,0.47527697,0.49233613,-0.67969490,0.03166289,-0.07847343,-0.00287754,0.94686859,0.10184361,0.30186750,0.04408815
1761618665611,-0.14556670,-0.23841806,0.29179067,0.01546109,-0.03548614,0.00131096,0.94697875,0.10202142,0.30145941,0.04410323
1761618665634,-0.04331166,-0.05846585,0.06247978,0.01999304,-0.03189659,-0.00413575,0.94706959,0.10224334,0.30110536,0.04405732
1761618665664,0.00561290,0.02080607,0.00566083,0.00689998,-0.03389774,-0.00034360,0.94722217,0.10234822,0.30059012,0.04405210
1761618665688,0.05568329,0.22613370,-0.19668335,0.03777311,-0.05151205,-0.00394023,0.94737123,0.10280150,0.29997197,0.04400481
1761618665709,0.17188478,-0.13307097,-0.07871400,0.00988799,-0.09373389,-0.00301134,0.94767107,0.10290483,0.29899245,0.04397334
1761618665724,-0.05750700,-0.06208329,0.03754841,0.01547089,-0.09673955,0.00209308,0.94788921,0.10302240,0.29825723,0.04398925
1761618665740,-0.14060947,0.13940926,-0.01302039,0.04305089,-0.10017917,-0.00031952,0.94810632,0.10337112,0.29744578,0.04398666
1761618665762,-0.19236655,-0.18416547,0.23390538,0.01554588,-0.02889152,-0.01314236,0.94819321,0.10354057,0.29713086,0.04384341
1761618665788,-0.01899501,-0.02451055,0.03909907,0.01590427,-0.02419793,0.01979597,0.94825670,0.10374573,0.29681871,0.04409878
1761618665801,0.31605342,0.41028452,-0.73660144,0.08049614,-0.09623583,0.00318151,0.94839604,0.10427701,0.29618355,0.04411978
1761618665807,0.88606287,0.04742583,-2.21404075,0.01652467,-0.23189769,0.06784603,0.94860145,0.10432741,0.29547626,0.04432671
1761618665825,-0.56149696,-0.34058766,1.16297037,0.03060542,-0.06574187,-0.01466249,0.94875428,0.10459061,0.29491088,0.04420061
1761618665838,-0.03136032,0.11697269,-0.19281954,0.06397554,-0.06678564,-0.02733130,0.94885218,0.10500965,0.29447344,0.04402159
1761618665845,-0.29718401,0.54146194,-1.00560063,0.07948720,-0.12852586,-0.01311113,0.94897088,0.10530773,0.29399147,0.04397242
1761618665891,0.02200902,-0.13346257,0.31549523,0.01292674,-0.02039540,-0.00313500,0.94908638,0.10560504,0.29352237,0.04390032
1761618665903,0.19215869,0.74417705,-3.44799181,0.05186910,-0.32472124,0.05023371,0.94964726,0.10592145,0.29154157,0.04420675
1761618665926,-0.00488370,-0.34956022,1.33911546,0.00213657,-0.11259839,-0.01231955,0.95004940,0.10594612,0.29024106,0.04406445
1761618665943,0.06123361,-0.06518829,-0.32738547,-0.03268038,-0.17844241,0.01835653,0.95052373,0.10567488,0.28875999,0.04421681
1761618665967,-0.06795760,-0.08602508,0.50673582,-0.01633771,-0.07555417,0.00772962,0.95081128,0.10548209,0.28786845,0.04430802
1761618665988,0.04283881,-0.04602033,-0.01474477,-0.00101472,-0.07156962,0.02887891,0.95103464,0.10547098,0.28708476,0.04462425
1761618665990,14.34321816,-6.68990746,-96.07049506,0.00086131,-1.34779985,0.13785142,0.95135420,0.10547167,0.28600652,0.04473453
1761618666013,-1.11299636,0.57859244,6.61161853,0.01267839,-0.09811412,0.00835874,0.95166785,0.10561557,0.28489293,0.04482940
1761618666048,0.00093058,-0.00529066,0.17872390,-0.00989801,-0.04793520,0.00604123,0.95193128,0.10544334,0.28405886,0.04493452
1761618666065,-0.21830708,-0.32012861,-1.22523716,-0.07525589,-0.21120654,0.07500747,0.95252227,0.10478485,0.28221080,0.04559083
1761618666075,-0.66721429,0.72405725,-0.65582586,0.02152659,-0.22944069,0.07633570,0.95284355,0.10489679,0.28101771,0.04598778
1761618666096,0.34609845,-0.03007731,1.14308395,0.04415482,-0.08171992,0.03163535,0.95302369,0.10534717,0.28018416,0.04631046
1761618666107,-0.01730333,-0.17151166,-0.44568205,0.00166939,-0.12948168,0.07050541,0.95321798,0.10535660,0.27945259,0.04670881
1761618666131,0.08653923,-0.02675425,0.36764786,-0.01096849,-0.06128978,0.02378932,0.95343200,0.10522608,0.27872324,0.04699191
1761618666142,-0.48931070,0.16715035,-1.44191979,0.07234132,-0.14592336,0.08476855,0.95359616,0.10561672,0.27793526,0.04744966
1761618666164,0.18914190,0.01736606,0.58494520,0.02890581,-0.04853590,0.01118588,0.95371228,0.10594047,0.27739166,0.04757494
1761618666175,-0.48274556,0.17449036,-2.16619293,0.05224361,-0.22013328,0.07239135,0.95400085,0.10621736,0.27622495,0.04795861
1761618666180,0.66840381,-0.82317112,-0.94743588,-0.02215517,-0.32667897,0.14162701,0.95423868,0.10615865,0.27535925,0.04833393
1761618666208,0.15827157,0.00656887,1.11198306,-0.00691816,-0.06385334,0.02924871,0.95448172,0.10606352,0.27448127,0.04873610
1761618666209,-0.00540359,-4.84521520,-72.65597564,0.18204539,-1.12701193,0.54462129,0.95474318,0.10623647,0.27341061,0.04925349
1761618666244,0.00827011,0.31683353,3.93682274,0.02769720,-0.04630920,0.02533655,0.95489611,0.10671563,0.27260946,0.04969181
1761618666263,0.04130913,0.35494166,-1.28281021,0.08798245,-0.15345216,0.05867510,0.95518972,0.10755586,0.27114399,0.05025216
1761618666286,0.05429815,-0.13545814,0.59507156,0.02989725,-0.14110480,0.03512387,0.95558186,0.10789370,0.26954950,0.05064905
1761618666297,0.80801660,0.57797577,-3.19752382,0.08685968,-0.37133569,0.07222449,0.95609398,0.10838446,0.26745146,0.05105712
1761618666320,-0.14587020,-0.38297881,1.18230919,0.05087874,-0.18108994,0.05125306,0.95657598,0.10896956,0.26536892,0.05164653
1761618666331,0.61915210,-0.15724135,-1.17268659,0.04464068,-0.26158246,0.08195999,0.95691838,0.10921285,0.26394330,0.05209322
1761618666365,-0.25271792,-0.02011160,0.72837631,0.01899613,-0.10787334,0.02642475,0.95735828,0.10953389,0.26212024,0.05253979
1761618666375,2.20550072,-0.45683343,-5.09014205,0.03987173,-0.47191752,0.08938883,0.95797746,0.10974122,0.25966627,0.05300462
1761618666387,-0.30007797,-0.05410368,1.08933439,-0.02575643,-0.35329927,0.08346601,0.95853006,0.10958926,0.25758180,0.05349707
1761618666408,-0.72939080,0.18946361,1.67100945,-0.02285346,-0.12910983,0.03742473,0.95888997,0.10935501,0.25625843,0.05388067
1761618666418,0.53433892,-0.19816831,-1.77663640,-0.02207879,-0.21243481,0.05769808,0.95918905,0.10923689,0.25512190,0.05418935
1761618666430,0.36111363,0.28376252,0.83433799,-0.02823954,-0.15198371,0.02711099,0.95942652,0.10907733,0.25426319,0.05434253
1761618666441,-0.46353217,-0.06034911,0.06781054,-0.01214577,-0.15761260,0.01674131,0.95966031,0.10900993,0.25338844,0.05443544
1761618666452,0.02980266,0.11828548,0.29835627,-0.03207507,-0.14105339,0.01860764,0.95988300,0.10883030,0.25259854,0.05453965
1761618666464,0.07595118,-0.13638089,-0.03526206,-0.01491236,-0.12625453,0.01087589,0.96009529,0.10873785,0.25181577,0.05460708
1761618666475,0.25048415,-0.07732452,-0.33408069,-0.02168989,-0.14270626,0.00218331,0.96031165,0.10861964,0.25103802,0.05461898
1761618666486,0.03577379,0.11182624,0.47064924,-0.05575273,-0.13908041,-0.00714482,0.96055673,0.10830185,0.25024526,0.05457825
1761618666496,1.11686814,0.29798062,-1.29666363,-0.13326712,-0.19354079,0.01047206,0.96086085,0.10767549,0.24933562,0.05462747
1761618666498,41.03843202,7.70615929,-68.54978014,-0.50283625,-0.88537561,-0.00478894,0.96114664,0.10717266,0.24845024,0.05462268
1761618666509,-7.60881084,-0.61497101,12.81224680,-0.11144489,-0.15483847,0.00133526,0.96144452,0.10653742,0.24756766,0.05463029
1761618666521,-0.33120107,-0.55491308,-0.17693866,-0.04773185,-0.14440013,-0.04306008,0.96169786,0.10626774,0.24675180,0.05438700
1761618666531,0.08078209,0.43858517,-0.05255167,-0.03208365,-0.15772989,-0.03758584,0.96194428,0.10609609,0.24590795,0.05418592
1761618666542,-0.01576078,0.74201532,0.35044003,-0.04739197,-0.14173204,-0.04491133,0.96218799,0.10583306,0.24512133,0.05393666
1761618666553,0.10933082,0.04771129,0.07764423,0.01448866,-0.13455951,-0.02585371,0.96237712,0.10591347,0.24437453,0.05379317
1761618666565,-0.09474182,-0.21122457,-0.10483158,0.00336231,-0.15672520,-0.02135043,0.96260416,0.10593230,0.24349687,0.05367361
1761618666576,0.14064872,-0.01669016,0.17295991,-0.03282307,-0.15727494,-0.01676013,0.96285195,0.10574849,0.24261613,0.05357975
1761618666587,0.29335760,0.32828205,0.26599362,-0.06802699,-0.16625821,0.01825199,0.96311491,0.10537775,0.24171002,0.05367923
1761618666598,-0.19908272,0.04792771,0.00604014,-0.03939645,-0.16360670,0.03371722,0.96336228,0.10515319,0.24077746,0.05387142
1761618666610,0.13394477,0.01491297,0.23974606,-0.02016824,-0.15016832,0.04436164,0.96357789,0.10503621,0.23990648,0.05412871
1761618666621,0.12126885,0.15830193,0.23142756,-0.02165519,-0.16099921,0.04863287,0.96379189,0.10491927,0.23903709,0.05439133
1761618666641,-0.55455045,-0.49996902,0.38795336,-0.00040709,-0.07675075,0.02988160,0.96396632,0.10491518,0.23826574,0.05469164
1761618666643,78.79422672,46.65660139,-35.01724693,-0.03639492,-0.90251650,0.39723203,0.96417029,0.10487879,0.23736323,0.05508887
1761618666654,-12.56206227,-7.24508039,6.62028320,-0.04193626,-0.15934756,0.08688205,0.96438520,0.10464604,0.23647885,0.05557107
1761618666675,-0.72750659,-0.54560777,0.10327723,-0.00493363,-0.08034156,0.04464990,0.96457719,0.10459226,0.23560313,0.05605775
1761618666687,1.45358538,1.11475743,-0.43040987,0.00191681,-0.17353766,0.08194228,0.96478797,0.10460309,0.23462264,0.05652073
1761618666718,-0.72080153,-0.56306407,0.19098757,0.00819654,-0.05672796,0.02846024,0.96496389,0.10473178,0.23373201,0.05696755
1761618666728,12.51043383,6.15427851,-2.58140613,0.09262353,-0.55488918,0.26268179,0.96550830,0.10519953,0.23092982,0.05829409
1761618666741,-7.13817876,-3.71513316,1.70815528,0.03722768,-0.15595757,0.08633567,0.96569116,0.10544337,0.22990830,0.05885959
1761618666752,0.72509307,0.69057914,0.07538605,0.02802054,-0.16584923,0.08951948,0.96586244,0.10559888,0.22898783,0.05935643
1761618666763,-0.03045071,0.13563280,-0.07786558,0.07978878,-0.17080526,0.03895347,0.96601614,0.10601778,0.22809111,0.05956093
1761618666774,-0.20823996,-0.94804053,-0.26135041,0.09674208,-0.15444066,0.03711004,0.96614634,0.10655469,0.22723396,0.05976689
1761618666785,0.44362543,0.59791068,0.56071110,0.04046908,-0.17386039,0.03011656,0.96633076,0.10677120,0.22630381,0.05992802
1761618666796,0.04715906,-0.13825653,-0.03707941,0.03319038,-0.16912629,0.02156540,0.96652574,0.10695873,0.22534824,0.06004986
1761618666808,-0.28195950,0.10747023,0.02591712,0.02984258,-0.16780076,0.01854786,0.96672801,0.10713331,0.22436661,0.06015837
1761618666820,0.26729929,-0.31632011,0.01648264,0.03573123,-0.17536719,0.01453930,0.96694419,0.10734948,0.22330564,0.06024633
1761618666831,1.12135963,0.30785103,-0.20148685,0.03870224,-0.21628203,0.02746040,0.96717851,0.10755654,0.22214853,0.06039324
1761618666842,-0.44803398,-0.37323360,0.30778279,0.02448053,-0.21079503,0.04701294,0.96742142,0.10769608,0.22094700,0.06066122
1761618666853,0.08072036,-0.11574886,-0.27426576,0.01281669,-0.20953819,0.02584059,0.96767604,0.10776913,0.21975263,0.06080851
1761618666855,145.61832997,58.54074761,-9.79359213,-0.11855203,-1.24651105,0.25772097,0.96795524,0.10765058,0.21850612,0.06106623
1761618666875,-16.05816391,-6.15954002,1.19482196,-0.00782075,-0.11356912,0.02124471,0.96820368,0.10757316,0.21738178,0.06127655
1761618666886,2.58485724,0.75751225,0.08512426,-0.00708489,-0.20379566,0.02177203,0.96845365,0.10753383,0.21625072,0.06139738
1761618666888,329.47264630,81.24701289,-15.26951219,-0.09508941,-1.70656377,0.07168062,0.96872382,0.10746727,0.21505612,0.06144756
1761618666908,-24.31054789,-6.25213379,1.09879644,-0.01795355,-0.11257019,0.00860584,0.96898879,0.10728684,0.21392479,0.06153405
1761618666919,2.75349883,0.62804005,-0.16346980,-0.01414941,-0.20814792,0.00018630,0.96924937,0.10720902,0.21277998,0.06153507
1761618666922,75.73870562,29.46255398,0.13929306,-0.10654737,-0.80458183,0.01152956,0.96950209,0.10706518,0.21169379,0.06155064
1761618666941,-11.87497232,-4.26431421,-0.02228150,0.01612931,-0.09569970,0.00921894,0.96968596,0.10722567,0.21074158,0.06164237
1761618666943,237.27563244,63.12742167,-12.54619164,0.23622334,-1.03521872,0.14695011,0.96984661,0.10742645,0.20986165,0.06176728
1761618666964,-19.45028135,-5.30381703,0.97262509,0.02996585,-0.07927098,-0.00340101,0.96999233,0.10773810,0.20903723,0.06173191
1761618666966,213.18849317,53.26375753,-19.54848736,0.31555598,-0.97951953,0.06769575,0.97014643,0.10802210,0.20815566,0.06179283
1761618666986,-18.77946239,-4.71531707,1.81726740,0.01975431,-0.08253564,0.00581276,0.97029969,0.10822261,0.20731792,0.06185183
1761618666988,211.05474393,66.06044397,-16.97180908,0.21795245,-1.05758841,0.03450342,0.97047870,0.10841876,0.20636609,0.06188288
1761618667008,-19.18678442,-5.86439600,1.49779400,0.01454861,-0.09012872,0.00119646,0.97065116,0.10856279,0.20547382,0.06189473
1761618667010,115.65019482,32.34268501,-10.96326594,0.24208299,-0.81792268,-0.01196062,0.97082680,0.10885329,0.20449231,0.06188038
1761618667022,-21.25100001,-5.89824024,1.96156713,0.04210705,-0.15443640,0.00063641,0.97098878,0.10909962,0.20358886,0.06188410
1761618667044,-1.43819890,-0.50688476,0.10125505,0.02665343,-0.08016537,-0.00230083,0.97114674,0.10940214,0.20267898,0.06185798
1761618667065,0.52813514,0.26300102,-0.06073727,0.01933634,-0.12345354,0.00832200,0.97138219,0.10960033,0.20141358,0.06194329
1761618667076,7.06069341,2.45248003,-1.20344073,0.10701262,-0.33839853,-0.00256003,0.97170058,0.11018890,0.19955239,0.06192921
1761618667087,-4.82924677,-1.60296632,0.76681757,0.04342295,-0.20599553,0.02080936,0.97189995,0.11042990,0.19840912,0.06204470
1761618667128,-1.21023527,-0.45595969,0.16542953,0.01314321,-0.05184845,0.00554464,0.97207712,0.11069737,0.19735400,0.06215753
1761618667156,2.98064976,1.07850840,-0.61337628,0.07765151,-0.28920046,-0.00628964,0.97278634,0.11180778,0.19321843,0.06206759
1761618667175,0.74366108,-0.07009699,-0.55958676,0.05885421,-0.31316948,-0.03460778,0.97331774,0.11235513,0.19030596,0.06174574
1761618667198,-2.41863653,-0.70760492,0.70927634,0.01337548,-0.15298344,0.01994813,0.97362238,0.11250627,0.18857724,0.06197115
1761618667210,3.80123504,0.88079639,-1.01034899,0.04971821,-0.24039107,0.02608702,0.97387359,0.11282695,0.18702672,0.06213941
1761618667231,-3.31097311,-0.79713826,0.87271786,-0.01229763,-0.10496193,0.00611836,0.97409545,0.11269783,0.18592462,0.06220365
1761618667241,3.65571845,1.69317366,-1.12490010,-0.02051577,-0.16409415,0.01534706,0.97425539,0.11259730,0.18512056,0.06227885
1761618667255,-1.43793586,-0.51015415,-0.34279374,0.06370186,-0.12816750,-0.03215392,0.97438534,0.11303366,0.18424261,0.06205860
1761618667275,-1.30819455,-0.50856836,0.74526598,-0.01092148,-0.06046938,0.02040199,0.97450026,0.11292335,0.18363187,0.06226466
1761618667277,120.92124525,39.29495018,-30.11910712,-0.25744049,-0.55396224,0.12055108,0.97463288,0.11265304,0.18305021,0.06239124
1761618667298,-12.45666151,-4.08926395,3.22118414,-0.00623408,-0.04492945,0.00528258,0.97472361,0.11258883,0.18258744,0.06244565
1761618667299,256.68267679,82.43966964,-67.55720322,0.06272091,-0.70813230,-0.01331286,0.97481816,0.11263587,0.18205634,0.06243567
1761618667319,-19.60673204,-6.23400504,5.11208366,0.00116069,-0.06374616,0.00031297,0.97493370,0.11264730,0.18142844,0.06243875
1761618667322,86.56129014,30.49194510,-17.83213640,0.04141238,-0.46734954,0.06423243,0.97503110,0.11269907,0.18084425,0.06251904
1761618667333,-17.22836575,-5.83615742,3.79252669,-0.03754433,-0.09978217,0.02856379,0.97515068,0.11248506,0.18027549,0.06268185
1761618667370,-0.91948182,-0.44015505,0.14778647,-0.00500401,-0.02806642,0.01514592,0.97524010,0.11239149,0.17975065,0.06296508
1761618667388,3.40071119,0.95538460,-0.66183900,-0.04146826,-0.10713270,0.08409388,0.97541111,0.11201827,0.17878646,0.06372193
1761618667399,0.67834083,0.42094586,0.33207375,-0.00559466,-0.08347093,0.05764544,0.97547428,0.11198918,0.17835241,0.06402168
1761618667410,-2.11352871,-0.31261115,0.22889485,0.02059660,-0.05169320,0.03866781,0.97550081,0.11210967,0.17805000,0.06424789
1761618667431,-0.98272038,-0.52278166,0.13198265,0.03839329,-0.03016284,0.03545032,0.97548801,0.11249936,0.17774385,0.06460771
1761618667443,0.83890111,-0.06130657,-0.06224804,0.04089913,-0.00440146,0.05358452,0.97544239,0.11274885,0.17771700,0.06493457
1761618667455,-0.71282093,0.54918248,-0.07188279,0.04840514,0.00047509,0.04577878,0.97538906,0.11304412,0.17771990,0.06521383
1761618667465,0.78823697,0.45758138,-0.09728990,0.07296956,0.02239942,0.02799847,0.97531548,0.11341626,0.17783414,0.06535662
1761618667476,-0.86252395,-0.65690084,0.12232132,0.04998383,-0.00044495,0.02531213,0.97527421,0.11369367,0.17783167,0.06549710
1761618667487,1.02546890,-0.24400013,0.47947914,0.00414611,0.02002033,0.04418483,0.97523653,0.11371565,0.17793778,0.06573128
1761618667497,-0.09497189,-0.09931324,-0.11120229,0.02157376,0.01920671,0.01993642,0.97519896,0.11382567,0.17803573,0.06583296
1761618667509,-0.57359731,-0.49076134,-0.05216624,0.02095833,0.01525545,0.03367974,0.97515390,0.11395142,0.17812726,0.06603503
1761618667519,0.91012480,0.17226379,0.25667672,-0.00285415,0.02714667,0.00949891,0.97512781,0.11393730,0.17826164,0.06608205
1761618667531,-0.48548373,-0.02633205,-0.02965816,-0.00667034,0.02913509,-0.00185465,0.97510215,0.11389861,0.17843062,0.06607130
1761618667542,0.41344459,0.58873070,0.21033611,0.01950360,0.01914090,-0.01622989,0.97507639,0.11400588,0.17853590,0.06598203
1761618667553,-0.28779836,-0.45237111,-0.03717572,0.05290746,0.04373027,-0.01655510,0.97500244,0.11430481,0.17878297,0.06588850
1761618667564,0.20413507,-0.43382588,-0.14446619,0.06736036,0.04721728,-0.00477173,0.97491387,0.11467192,0.17904031,0.06586249
1761618667575,-0.13435895,0.17976356,0.55946496,0.00721817,0.04123419,0.00189157,0.97486553,0.11471270,0.17927328,0.06587318
1761618667587,-0.05224419,0.12229562,0.07958594,0.00667596,0.04485063,-0.00836005,0.97481723,0.11475076,0.17952893,0.06582552
1761618667598,-0.06370847,-0.04590363,-0.03521140,0.01321788,0.03273046,-0.02251259,0.97478203,0.11482742,0.17971877,0.06569495
1761618667609,0.48864762,-0.08491942,0.13766795,0.02683619,0.04610915,-0.03088467,0.97473263,0.11496563,0.17995623,0.06553590
1761618667620,-0.38939768,-0.38647043,-0.37008702,0.03906711,0.02488443,-0.01309257,0.97468641,0.11518245,0.18009434,0.06546323
1761618667631,-0.11937254,0.49035848,0.64622909,0.01200538,0.04505170,-0.02092753,0.97463926,0.11525028,0.18034888,0.06534499
1761618667642,0.27729562,0.30161817,-0.05582773,-0.00067975,0.05975966,-0.00089165,0.97457861,0.11524651,0.18068054,0.06534004
1761618667653,-0.22799791,0.12364670,-0.28118281,0.04240918,0.05374757,-0.01292729,0.97450162,0.11547764,0.18097347,0.06526959
1761618667664,-0.28343011,0.14399825,0.23031221,0.03815825,0.05341013,-0.07054085,0.97444608,0.11569514,0.18127791,0.06486751
1761618667676,-0.46260525,-0.57268946,-0.13113547,0.04966939,0.02048801,-0.06093749,0.97441318,0.11598322,0.18139674,0.06451407
1761618667678,110.58600218,0.27230666,28.24737219,0.04586233,0.13845651,-0.15317365,0.97439312,0.11602679,0.18152827,0.06436855
1761618667698,-11.17225775,-0.20991623,-2.71957977,0.00373941,0.01928514,0.00615508,0.97434799,0.11606474,0.18172402,0.06443103
1761618667700,99.35544375,31.98113148,22.51821396,0.17114592,0.34138098,0.15957695,0.97425802,0.11622733,0.18204833,0.06458263
1761618667721,-9.08404206,-2.86366607,-2.15454669,0.04227320,0.04527602,0.03363430,0.97409332,0.11666909,0.18252146,0.06493410
1761618667731,2.14403765,-0.08519576,0.25834008,0.08580989,0.10646974,0.05578712,0.97391989,0.11710672,0.18306446,0.06521862
1761618667743,-0.46370054,-0.31623625,0.19352124,0.00448954,0.10036499,0.03194039,0.97379474,0.11713276,0.18364657,0.06540387
1761618667754,0.10745386,-0.26071614,0.11241422,-0.04934663,0.08308588,-0.00495052,0.97374383,0.11686629,0.18409524,0.06537714
1761618667756,75.54502026,0.72070148,19.39459904,-0.47474698,0.34531566,-0.10742093,0.97374248,0.11636780,0.18445782,0.06526435
1761618667767,-14.35998279,0.18352975,-3.53824849,-0.07454873,0.06080092,-0.00621406,0.97372994,0.11594660,0.18480134,0.06522924
1761618667786,-0.77954767,0.08075866,-0.24166124,-0.02083605,0.03772279,0.01232958,0.97367700,0.11574658,0.18516348,0.06534760
1761618667789,28.12180254,3.64998252,2.19574819,0.05104333,0.15949735,0.10742571,0.97361154,0.11582314,0.18540273,0.06550874
1761618667809,-4.24151603,-0.42940022,-0.44768692,0.01535246,0.04700706,0.00793382,0.97349659,0.11597897,0.18587985,0.06558927
1761618667812,59.51486046,5.25762931,13.58803541,0.09541025,0.36372711,0.08948947,0.97340096,0.11608392,0.18627995,0.06568771
1761618667832,-6.56054778,-0.68092041,-1.47499821,-0.00415266,0.03571853,0.01549067,0.97332702,0.11604239,0.18663714,0.06584261
1761618667833,105.82804682,-6.25855669,15.02920080,-0.03041104,0.38033715,0.25784555,0.97324886,0.11601502,0.18697944,0.06607468
1761618667854,-9.30357235,0.50765298,-1.29937653,0.00446857,0.03081878,0.00026813,0.97318247,0.11606083,0.18729533,0.06607742
1761618667856,127.63048990,3.87024157,11.55703169,0.23749224,0.38462960,0.02805829,0.97309900,0.11625082,0.18760304,0.06609987
1761618667876,-9.79560056,-0.23675904,-1.00897792,0.02171229,0.02617485,0.00298242,0.97301697,0.11647771,0.18787656,0.06613104
1761618667887,1.26008174,0.33540737,0.08565710,0.05259836,0.04874772,0.01014638,0.97293162,0.11675122,0.18813005,0.06618380
1761618667889,40.35881029,4.36096502,1.04331963,0.34148252,0.29028409,-0.12267842,0.97282939,0.11714393,0.18846388,0.06604272
1761618667900,-8.57738175,-1.42567451,-0.59553616,0.09194324,0.05542231,0.01334609,0.97270200,0.11765881,0.18877424,0.06611746
1761618667911,0.14156983,-0.26331469,0.32753087,0.02596434,0.04690847,0.02900429,0.97262375,0.11780161,0.18903224,0.06627698
1761618667922,0.09370082,0.04411549,0.05817490,-0.02108566,0.05825835,0.02711601,0.97256475,0.11768459,0.18935557,0.06642747
1761618667934,-0.50214773,-0.03821741,-0.02999341,0.00131682,0.02395980,0.01359757,0.97253281,0.11769190,0.18948855,0.06650294
1761618667945,0.06385694,0.38586279,-0.48134584,0.02427420,0.02505222,0.03604550,0.97247569,0.11782662,0.18962759,0.06670299
1761618667956,-0.04353882,-0.01844353,-0.39838020,0.05264062,0.01922269,0.09537237,0.97238299,0.11811878,0.18973428,0.06723231
1761618667967,-0.41884841,0.36127844,0.03661670,0.05694892,0.03804293,0.06763317,0.97227443,0.11844338,0.18995112,0.06761782
1761618667988,-0.49073514,-0.14009885,0.13421719,0.04984827,0.01983936,0.02266524,0.97215669,0.11895184,0.19015348,0.06784900
1761618667989,59.32977951,5.83168901,-31.50886787,0.44867654,0.18651269,0.43425914,0.97204698,0.11935565,0.19032134,0.06823984
1761618668027,-2.97985895,-0.33187273,1.60002130,0.00564661,0.00942686,0.01850874,0.97197551,0.11946067,0.19049668,0.06858410
1761618668045,1.00387051,0.19258313,-0.41255487,0.00913070,0.06244835,0.06622112,0.97180650,0.11954604,0.19108058,0.06920327
1761618668054,-0.76050716,0.88871541,-1.33684420,-0.07109617,0.00430434,-0.02069992,0.97184722,0.11923678,0.19109930,0.06911322
1761618668066,-0.82933328,-0.09557657,0.70737730,-0.01239077,-0.00882106,0.06899180,0.97183696,0.11916057,0.19104505,0.06953752
1761618668077,0.02956837,-0.23688596,0.04956585,0.02240601,0.04886676,0.13512887,0.97171329,0.11928605,0.19131870,0.07029424
1761618668090,-0.13997895,-0.57491490,0.36526578,-0.00030553,0.06566175,0.15079311,0.97156399,0.11928414,0.19172909,0.07123670
1761618668099,0.15390877,-0.38737405,-0.17362949,0.00798790,0.06578993,0.12606813,0.97145351,0.11932208,0.19204159,0.07183552
1761618668109,0.13151100,-0.10732013,0.10627530,-0.03022383,0.03621929,0.10755833,0.97139575,0.11916945,0.19222450,0.07237869
1761618668120,0.06544223,-0.13673101,-0.07492661,-0.01296224,0.01264779,0.08607129,0.97135645,0.11910010,0.19229216,0.07283917
1761618668132,-0.02438653,-0.03060018,0.09230055,0.00718739,0.02034136,0.02878136,0.97131402,0.11914323,0.19241421,0.07301186
1761618668144,0.01742694,-0.14226525,-0.11635488,0.02707554,0.01120883,0.01116677,0.97127731,0.11929891,0.19247866,0.07307607
1761618668155,0.25870396,0.09000728,-0.28874876,0.02957139,0.04388650,-0.00968368,0.97121114,0.11946747,0.19272882,0.07302088
1761618668196,-0.19577098,0.13707612,0.21030250,0.02545268,0.01632658,0.00728545,0.97106840,0.11999179,0.19306514,0.07317096
1761618668222,1.06880884,-0.05649004,-0.98795375,0.12759915,0.19634131,0.06200793,0.97028980,0.12165058,0.19561758,0.07397706
1761618668244,-0.27936293,-0.15170104,0.56708522,-0.07613854,0.03909093,0.00084435,0.97030710,0.12080544,0.19605149,0.07398643
1761618668255,2.05460964,1.06980984,-3.73622962,0.04453502,0.03447787,0.00445952,0.97024151,0.12103257,0.19622733,0.07400917
1761618668292,-0.82904093,-0.13234054,1.06683557,0.00621215,0.00413025,0.00074420,0.97021025,0.12114905,0.19630477,0.07402313
1761618668312,1.64970003,-0.23009348,-0.98591602,-0.17405633,-0.02894400,0.04459539,0.97044681,0.11943459,0.19601967,0.07446239
1761618668332,-0.95362742,0.23985319,0.90566648,-0.15507784,-0.02398301,0.03309803,0.97065937,0.11788382,0.19577984,0.07479337
1761618668355,-0.17069006,-0.42974612,0.25837612,-0.13676358,-0.00120667,0.02175564,0.97083407,0.11629736,0.19576584,0.07504574
1761618668366,0.81511010,-1.20247919,0.11103442,-0.24064320,0.03450272,0.03684420,0.97093868,0.11496179,0.19595733,0.07525022
1761618668388,-0.34910073,0.81292311,0.01939176,-0.10993080,0.02284047,0.07543412,0.97096475,0.11379652,0.19619944,0.07604983
1761618668400,-0.32781775,1.01764862,-0.61032652,0.04605927,0.00785682,0.05561328,0.97089604,0.11407518,0.19624698,0.07638629
1761618668410,0.02330525,0.43585582,-0.32900120,0.13476063,0.01905679,0.06374447,0.97076603,0.11478267,0.19634702,0.07672094
1761618668421,0.28273750,-0.40820119,0.03471389,0.17442276,0.04758729,0.01350620,0.97059484,0.11573328,0.19660638,0.07679455
1761618668432,0.02926784,-0.70970816,0.28261839,0.11344726,0.03822810,0.00314678,0.97046976,0.11639127,0.19682810,0.07681280
1761618668444,0.56898740,-0.31192538,-0.25158715,0.05134572,0.04241744,0.00356569,0.97038695,0.11667367,0.19706139,0.07683242
1761618668455,0.00395382,0.01222435,0.30776379,0.00372607,0.02487155,-0.00905593,0.97035873,0.11669566,0.19720814,0.07677899
1761618668466,0.57226323,1.39650608,-0.32108483,-0.07590014,0.01729555,0.03072004,0.97037533,0.11629718,0.19729894,0.07694027
1761618668476,-0.61615414,-0.50651229,-0.28911370,0.03034835,0.01688705,-0.08399999,0.97037304,0.11645803,0.19738844,0.07649507
1761618668488,-0.21557854,-0.92888650,-0.27052566,0.06612457,0.03197288,-0.13729797,0.97035221,0.11683163,0.19756909,0.07571933
1761618668499,0.60418354,-0.65294691,-0.04573075,-0.01974342,0.01434262,-0.06951194,0.97037921,0.11672206,0.19764869,0.07533354
1761618668510,0.49115328,0.49657935,0.57011181,-0.12951114,0.02050174,-0.06612851,0.97046818,0.11602270,0.19775940,0.07497645
1761618668521,-0.80296872,0.25016848,-0.19599188,-0.12431356,-0.00671806,-0.09432588,0.97059831,0.11533276,0.19772211,0.07445294
1761618668533,-0.01611225,0.00808228,-0.06415136,-0.08064109,-0.00304203,-0.11506927,0.97071400,0.11484084,0.19770356,0.07375102
1761618668543,0.37467914,-0.75645680,-0.59048056,-0.06947653,-0.01706965,-0.11984485,0.97082189,0.11447957,0.19761479,0.07312782
1761618668554,-0.11564766,0.11838396,0.59037198,-0.14203826,-0.02850171,-0.02387901,0.97095668,0.11369125,0.19745661,0.07299529
1761618668566,-0.28019516,0.21067914,0.28767668,-0.13556567,-0.02085392,-0.05815299,0.97110196,0.11288464,0.19733253,0.07264928
1761618668577,-0.01875721,0.07293111,-0.21103151,-0.13051138,-0.02102374,-0.09895479,0.97124651,0.11217988,0.19721900,0.07211493
1761618668588,-0.01612549,0.00256664,0.12815732,-0.10555736,-0.03920828,-0.07105437,0.97138735,0.11159403,0.19700139,0.07172058
1761618668599,0.30090162,-0.08169576,0.32460609,-0.12209186,-0.03542728,-0.03962339,0.97152102,0.11091642,0.19680477,0.07150067
1761618668610,-0.42835368,-0.48338203,-0.03106125,-0.11315749,-0.05555625,-0.09351023,0.97168987,0.11029972,0.19650199,0.07099104
1761618668622,-0.20979313,0.36596162,0.53639735,-0.14206004,-0.07173615,-0.12312562,0.97191702,0.10948287,0.19608951,0.07028306
1761618668633,0.32465243,-0.41223715,-0.43075728,-0.10935279,-0.07605298,-0.02697613,0.97207517,0.10889783,0.19568262,0.07013874
1761618668643,-0.29215345,0.97227689,0.07461745,-0.08252650,-0.05659386,0.07795130,0.97215749,0.10844394,0.19537136,0.07056747
1761618668655,-0.66028834,1.31546170,-0.05091445,-0.00264431,-0.01154971,0.09065938,0.97213374,0.10842820,0.19530264,0.07110690
1761618668666,-0.17834810,-0.71779880,-0.37803853,0.13473565,0.03653342,0.07919338,0.97198128,0.10915578,0.19549992,0.07153454
1761618668678,-0.26036181,-0.28950281,0.38390653,0.02609603,0.01022400,-0.04676247,0.97197226,0.10930713,0.19555922,0.07126332
1761618668688,0.71420843,-0.67776322,0.69464690,0.08460500,0.04660774,-0.03605859,0.97189007,0.10973439,0.19579459,0.07108122
1761618668699,0.01133255,-0.04384956,0.09315344,0.02649416,0.02715440,-0.01170235,0.97184783,0.10988143,0.19594529,0.07101627
1761618668711,-0.30631414,0.44381234,0.19440407,0.00913156,0.02088755,0.01149552,0.97181162,0.10993576,0.19606957,0.07108467
1761618668721,-0.24872911,-0.41404139,0.10022837,0.02440527,0.04769152,-0.05677887,0.97176750,0.11006633,0.19632472,0.07078091
1761618668732,0.19877795,-0.14442182,-0.15176769,0.00021404,0.05251035,-0.04783410,0.97172846,0.11006750,0.19661091,0.07052021
1761618668743,0.42442159,0.40360186,-0.46330182,-0.03181484,0.04364551,0.06296941,0.97167496,0.10989411,0.19684877,0.07086339
1761618668755,-0.66063283,-0.32569690,0.61168265,-0.04368333,0.06224824,0.09536474,0.97159134,0.10964511,0.19720359,0.07140697
1761618668768,-0.34820799,0.26922030,-0.00587898,-0.01166199,0.07246385,0.01406815,0.97149456,0.10956698,0.19768910,0.07150123
1761618668777,0.37377857,0.07938417,-0.36520034,0.06042764,0.14121982,-0.04243213,0.97134672,0.10984192,0.19833165,0.07130816
1761618668789,-0.00635042,-0.05324184,0.15051214,0.03065277,0.09545388,-0.00687222,0.97121970,0.11001511,0.19887096,0.07126933
1761618668800,0.21021617,-0.39904153,0.10933831,-0.06722711,0.07556442,-0.08853435,0.97121178,0.10963864,0.19929412,0.07077354
1761618668810,0.00027032,-0.42943052,0.41392114,-0.19248480,0.02912417,-0.17864745,0.97136183,0.10862809,0.19944702,0.06983564
1761618668821,-0.04362175,-0.39213618,0.29547655,-0.23318178,0.00996543,-0.20024312,0.97157358,0.10733394,0.19950233,0.06872429
1761618668833,0.10523919,-0.10885181,-0.04704112,-0.19596443,0.01810694,-0.03249353,0.97169521,0.10614835,0.19961188,0.06852771
1761618668844,0.68748293,-0.18138285,1.04397535,-0.20991733,0.04698004,0.15144485,0.97170732,0.10509876,0.19984678,0.06928493
1761618668855,-0.57616682,1.89008238,-1.38663845,-0.07524138,0.08221290,0.12884918,0.97160084,0.10465484,0.20033183,0.07004514
1761618668866,-0.14403659,-1.53302504,-0.32953458,0.06277627,0.09510674,0.08066928,0.97142672,0.10499383,0.20084541,0.07048076
1761618668877,-0.01559244,1.42660905,0.09960857,0.09884850,0.08154823,0.03712381,0.97125709,0.10554738,0.20130208,0.07068865
1761618668888,0.20680419,0.00040134,0.13789292,0.00389473,0.03303742,0.01650378,0.97121047,0.10556880,0.20148379,0.07077942
1761618668899,0.13989851,-0.11200501,0.14088371,-0.02984886,0.02135688,-0.06194533,0.97122870,0.10540464,0.20160125,0.07043872
1761618668911,0.13702447,-0.30127539,0.02479566,-0.04578072,-0.03224490,-0.06524457,0.97132201,0.10514369,0.20141745,0.07006683
1761618668922,-0.05929442,-0.15555459,0.08962549,-0.07664805,-0.06367342,-0.09719382,0.97148703,0.10469913,0.20104815,0.06950310
1761618668934,0.55566413,-1.71771937,-1.07405993,0.02819827,-0.10637610,-0.02010188,0.97160317,0.10485986,0.20044180,0.06938852
1761618668945,0.34514749,2.73607914,1.40027508,-0.18203818,-0.13013340,0.11598110,0.97181799,0.10383134,0.19970655,0.07004382
1761618668956,-0.36146923,-0.38410195,-1.51081498,0.03928842,-0.12087886,0.08530208,0.97189519,0.10404153,0.19905985,0.07050018
1761618668967,-0.55419629,0.21566389,-0.33438690,0.11468007,-0.10063384,0.04221668,0.97192534,0.10470668,0.19847617,0.07074504
1761618668979,0.51730676,-0.28194464,0.00608702,0.10231912,-0.10167909,0.07531209,0.97194876,0.10527967,0.19790677,0.07116679
1761618668989,-0.22014810,-0.14869000,0.23727018,0.04698276,-0.11876266,0.02023483,0.97204448,0.10553572,0.19725951,0.07127707
1761618669025,-0.46464784,-0.09476865,0.30246351,-0.01164721,-0.03850548,0.00761207,0.97219544,0.10532898,0.19657604,0.07141218
1761618669034,7.73758903,-4.48520851,-2.22568639,-0.52828982,-0.30852742,0.03111718,0.97270205,0.10303092,0.19523395,0.07154754
1761618669055,-2.72110760,1.68316540,0.61731330,-0.10470088,-0.02359717,0.05307661,0.97283171,0.10188445,0.19497556,0.07212873
1761618669066,0.06616578,0.38285256,-0.88198525,-0.04858574,-0.00523138,0.09179138,0.97282794,0.10162209,0.19494731,0.07262440
1761618669078,-0.45599821,-0.14251113,0.40123937,-0.01616810,0.00282823,-0.01881496,0.97284296,0.10152589,0.19496414,0.07251245
1761618669089,0.56996804,-0.43952492,0.40313158,-0.00450455,0.02487670,-0.01982654,0.97282563,0.10150021,0.19510593,0.07239944
1761618669100,-0.52011932,0.34936647,-0.22574296,-0.00998576,0.01434721,0.00737142,0.97281263,0.10144579,0.19518413,0.07243962
1761618669111,-0.03754662,0.00853913,0.14565064,-0.03773537,0.01137095,-0.02936151,0.97283275,0.10124768,0.19524382,0.07228547
1761618669123,0.11373515,0.00221638,0.09037642,-0.06228758,0.01312661,-0.02447643,0.97286554,0.10088641,0.19531996,0.07214351
1761618669134,-0.00026690,-0.07042164,-0.03603630,-0.05499020,-0.00415539,-0.00879405,0.97290539,0.10058121,0.19529689,0.07209470
1761618669145,0.17517507,-0.00373728,-0.08525716,-0.06459187,-0.00364289,0.00918435,0.97294367,0.10021304,0.19527613,0.07214705
1761618669155,0.28306868,0.08368076,-0.51067993,-0.06166873,-0.00923585,0.01850102,0.97297812,0.09990161,0.19522949,0.07224048
1761618669167,-0.25347753,0.17005873,0.02123615,-0.04478368,-0.03222303,-0.00578160,0.97304587,0.09963739,0.19503937,0.07220637
1761618669178,0.18114583,0.04666740,-0.22753968,-0.01831221,0.00110763,-0.02136472,0.97306319,0.09953942,0.19504530,0.07209207
1761618669189,0.34897704,-0.06755775,-0.49204218,-0.02914627,-0.01874238,-0.00744841,0.97310436,0.09937474,0.19493940,0.07204998
1761618669200,-0.00796820,-0.37854701,0.57681695,-0.05774733,-0.02872579,0.00606960,0.97316478,0.09906291,0.19478429,0.07208276
1761618669211,-0.10616991,0.11815303,0.09938462,-0.07494040,-0.01509805,-0.04995385,0.97324859,0.09862450,0.19469596,0.07179053
1761618669223,0.42322708,-0.49848242,-0.28714573,-0.05986798,-0.04900426,-0.01038970,0.97334497,0.09827727,0.19441174,0.07173027
1761618669234,-0.74636789,0.22142782,0.24366733,-0.11566836,-0.08739681,-0.07164539,0.97353896,0.09762374,0.19391795,0.07132547
1761618669245,0.41763943,-0.40050236,-0.22506678,-0.12321092,-0.05576703,-0.02578133,0.97367052,0.09698305,0.19362796,0.07119141
1761618669255,0.31420059,0.32354728,0.05170570,-0.15658461,-0.06140217,0.05678697,0.97379426,0.09616098,0.19330560,0.07148954
1761618669267,-0.10438995,0.50686215,0.11415505,-0.13693277,-0.04089946,0.05980796,0.97389303,0.09537361,0.19307042,0.07183344
1761618669278,-0.58506306,0.49774529,-0.37884727,-0.05177037,-0.06397678,0.01432559,0.97398808,0.09507852,0.19270576,0.07191509
1761618669288,0.44834582,-0.10057303,-0.46192459,0.01386698,-0.06966809,0.01249714,0.97404785,0.09515063,0.19234348,0.07198008
1761618669301,-0.37753247,-0.43324270,0.29276636,0.03875581,-0.05544220,-0.01689170,0.97410073,0.09539479,0.19199420,0.07187366
1761618669312,0.74661238,-0.07779465,-0.06541644,-0.02903429,-0.06826368,0.01061587,0.97418210,0.09524236,0.19163581,0.07192939
1761618669323,-0.49372768,0.30991422,0.33145897,-0.08013372,-0.07656830,-0.02538824,0.97432060,0.09479361,0.19120703,0.07178722
1761618669334,-0.08597547,0.54274593,0.00617022,-0.08104291,-0.05973249,-0.06638481,0.97445389,0.09435193,0.19088149,0.07142542
1761618669346,0.09672084,-0.38832022,-0.17612535,-0.03008763,-0.06758117,0.00073535,0.97455037,0.09417140,0.19047600,0.07142983
1761618669357,0.02805587,-0.58267343,-0.15796921,-0.01469584,-0.03779587,-0.00617479,0.97460358,0.09408690,0.19025867,0.07139433
1761618669368,0.26848706,-0.39395693,-0.12382999,-0.03743746,-0.06908029,0.01680568,0.97468759,0.09388849,0.18989255,0.07148340
1761618669378,-0.29456902,0.10769398,0.51196845,-0.08800606,-0.09632713,-0.03233082,0.97483985,0.09343525,0.18939646,0.07131690
1761618669389,-0.24121806,0.37437949,0.28895772,-0.11150668,-0.09687320,-0.05050196,0.97502703,0.09280524,0.18884913,0.07103156
1761618669402,-0.25333709,-0.17958381,0.18703928,-0.10284868,-0.08188916,0.00729188,0.97518116,0.09217272,0.18834551,0.07107640
1761618669412,0.06945153,-0.30243542,0.18477682,-0.12587516,-0.07610148,-0.03683796,0.97532726,0.09154335,0.18796500,0.07089221
1761618669423,-0.59821389,0.10374164,-0.03958044,-0.09620522,-0.04877684,-0.06707904,0.97545518,0.09101422,0.18769673,0.07052328
1761618669434,-0.00315488,0.18319798,0.25801364,-0.09245685,-0.04791632,0.01445308,0.97555160,0.09048259,0.18742121,0.07060638
1761618669445,1.23936864,-0.03235348,-1.09682597,-0.05745710,-0.02605679,0.04387220,0.97559053,0.09016945,0.18727920,0.07084549
1761618669456,-1.54411306,0.30518068,0.84116727,-0.03413011,-0.03013570,0.00890069,0.97563445,0.08998856,0.18711948,0.07089266
1761618669467,-0.15756392,0.32353585,0.01721192,0.01364295,-0.01604245,0.02428307,0.97563474,0.09006632,0.18702804,0.07103108
1761618669478,-0.16573055,-0.02492669,-0.06317872,0.02025680,0.00286693,0.00968773,0.97561771,0.09017672,0.18704367,0.07108387
1761618669489,0.12380011,-0.50329260,0.40358503,-0.03066252,-0.02391611,0.01796143,0.97565037,0.09001268,0.18691572,0.07117997
1761618669500,0.14648908,-0.60101570,0.23917465,-0.09701813,-0.04662886,0.03058086,0.97574016,0.08945483,0.18664760,0.07135581
1761618669512,0.16011874,-0.01773235,0.26288484,-0.15261763,-0.01780277,0.05605788,0.97582142,0.08851623,0.18653811,0.07170056
1761618669523,0.01358792,-0.35093204,-0.18192985,-0.07143998,-0.02675221,0.08855098,0.97584668,0.08815903,0.18640435,0.07214332
1761618669534,0.07292273,0.54468392,0.01989826,-0.07372323,-0.01156600,0.08488628,0.97586138,0.08773512,0.18633785,0.07263141
1761618669545,0.02696839,0.28323201,-0.12279060,-0.04163063,-0.02302629,0.02588979,0.97589643,0.08749991,0.18620775,0.07277769
1761618669556,-0.01763771,0.14550347,-0.25963091,-0.01894172,-0.02633368,0.00835308,0.97592997,0.08739573,0.18606291,0.07282363
1761618669567,0.03993340,-0.11919512,-0.05201656,-0.00805097,-0.05036633,0.00966627,0.97598178,0.08735225,0.18579094,0.07287583
1761618669578,0.14929515,-0.20702944,0.09155918,-0.05057196,-0.03061174,-0.00822546,0.97604259,0.08707158,0.18562104,0.07283018
1761618669590,0.07789355,-0.18008882,0.19784606,-0.05054781,-0.03595229,0.00344722,0.97610795,0.08677334,0.18540892,0.07285052
1761618669602,0.18584748,-0.20959977,0.13502951,-0.10072947,-0.02893199,0.00368884,0.97618926,0.08619415,0.18524256,0.07287173
1761618669611,0.16497221,0.02538492,-0.01749882,-0.11748890,-0.03713850,-0.05509994,0.97629562,0.08561258,0.18505873,0.07259898
1761618669623,-0.18230249,0.43726937,-0.01037599,-0.06368054,-0.04175651,-0.05785219,0.97639871,0.08524323,0.18481654,0.07226344
1761618669634,-0.13724865,0.25354693,-0.04463979,-0.03563356,-0.04257288,-0.09591155,0.97649898,0.08504725,0.18458239,0.07173593
1761618669646,-0.00451013,0.05103499,0.07710316,-0.07170695,-0.03522891,-0.05391030,0.97659663,0.08463135,0.18437806,0.07142325
1761618669656,-0.30111321,0.03328963,0.01516798,-0.06179590,-0.01602528,-0.06846309,0.97666679,0.08430692,0.18429393,0.07106382
1761618669667,-0.28370272,0.16605229,0.07388203,-0.03186438,0.00999641,-0.03047455,0.97668417,0.08412689,0.18435041,0.07089164
1761618669678,-0.20550249,0.20454852,-0.00754296,0.00519709,0.06872748,-0.02977157,0.97662272,0.08415521,0.18472497,0.07072938
1761618669690,-0.19350426,0.12741184,0.02592533,0.07130159,0.04840211,-0.07836509,0.97656667,0.08456876,0.18500570,0.07027486
1761618669701,-0.22034528,0.42514531,0.11899596,0.06513533,0.02471987,-0.14883471,0.97656840,0.08493352,0.18514414,0.06944139
1761618669712,-0.15351471,0.09946966,-0.10208728,0.11452072,-0.01331741,-0.04356303,0.97654563,0.08552902,0.18507489,0.06921486
1761618669723,0.05416876,-0.10394682,0.09788390,0.04913897,0.00562734,0.00120757,0.97651504,0.08580420,0.18510640,0.06922162
1761618669734,-0.25686052,-0.13450220,0.06808075,0.02076910,0.04575005,-0.05079044,0.97647599,0.08592155,0.18536489,0.06893466
1761618669738,-6.98301658,1.66922757,-0.85281187,0.15756459,0.18564647,0.08499477,0.97637668,0.08620516,0.18569905,0.06908765
1761618669774,0.85796632,-0.26233703,0.07424034,0.00974352,0.01497706,0.00358410,0.97630510,0.08638103,0.18596939,0.06915234
1761618669802,-0.32811289,-0.06071520,0.07632979,-0.03739685,0.04697112,0.02285683,0.97620052,0.08584439,0.18664342,0.06948034
1761618669814,-2.29414344,-0.70974493,0.54060752,-0.03032506,0.20576152,0.39575198,0.97583083,0.08567305,0.18780597,0.07171634
1761618669834,1.04857507,0.60057547,-0.44435033,0.10270725,0.10136330,0.10603835,0.97546044,0.08671553,0.18883481,0.07279263
1761618669846,-0.15931653,0.67559945,-0.24589112,0.14326096,0.08092158,0.05224272,0.97527095,0.08755361,0.18930820,0.07309825
1761618669857,0.36032337,0.18554376,0.16944941,0.07227407,0.04429628,0.00158727,0.97518491,0.08796196,0.18955848,0.07310721
1761618669869,0.40772741,-0.40109885,0.04041895,0.03237448,0.00960973,-0.03631610,0.97517237,0.08815782,0.18961662,0.07288750
1761618669880,0.46125538,-0.48267308,-0.05559492,0.00822141,-0.00239335,-0.02529948,0.97518107,0.08820222,0.18960369,0.07275088
1761618669890,0.24844817,-0.23187780,-0.05662174,0.00605972,-0.01645281,0.01192114,0.97519005,0.08823312,0.18951978,0.07281168
1761618669902,0.00534179,0.18797429,0.11777564,-0.01189056,0.01183788,0.00954091,0.97517900,0.08816535,0.18958726,0.07286606
1761618669914,-0.06292191,-0.06645762,-0.11124868,0.02191639,-0.01436439,0.01651558,0.97517647,0.08829575,0.18950179,0.07296433
1761618669924,-0.01342964,0.15018103,-0.12117937,0.04779727,0.00546257,-0.03717238,0.97516285,0.08854430,0.18953020,0.07277104
1761618669934,-0.05920964,-0.08930286,-0.17768503,0.02914285,-0.04410214,-0.03999288,0.97521001,0.08869875,0.18929645,0.07255907
1761618669946,0.00915546,-0.05866894,0.01007706,-0.00275469,-0.04694507,-0.07321772,0.97529430,0.08868305,0.18902887,0.07214173
1761618669958,0.04595006,0.00865581,0.21340545,-0.01524761,-0.05485560,-0.03740553,0.97538514,0.08858928,0.18869151,0.07191169
1761618669968,-0.09073454,-0.01816623,-0.01074239,0.00782005,-0.07298144,-0.04906483,0.97546676,0.08862681,0.18834119,0.07167618
1761618669979,0.06707575,0.01786061,0.05179488,-0.03416150,-0.05609864,-0.00740852,0.97554633,0.08843893,0.18803265,0.07163543
1761618669990,0.18867549,0.07512080,-0.15423175,0.01441739,-0.04982507,0.01010627,0.97558934,0.08852110,0.18774865,0.07169304
1761618670001,0.04780816,0.26308857,-0.09237121,0.04825191,-0.06866879,0.03037988,0.97562554,0.08878649,0.18737097,0.07186013
1761618670012,-0.19307397,0.08125683,-0.01540615,0.05303830,-0.09490037,0.01206454,0.97569354,0.08907555,0.18685376,0.07192588
1761618670023,0.04584669,-0.29323906,0.24695299,0.01269644,-0.07505172,-0.00206127,0.97576763,0.08914601,0.18643723,0.07191444
1761618670034,0.05805176,-0.32605739,0.26558680,-0.01629273,-0.10222883,0.00247512,0.97588311,0.08905559,0.18586986,0.07192817
1761618670046,0.05592465,-0.09567329,0.21648753,-0.01632765,-0.12639397,0.00264267,0.97602995,0.08896089,0.18513677,0.07194350
1761618670057,-0.26909421,0.21297822,0.26717268,-0.01080711,-0.13609697,-0.08675209,0.97621871,0.08889929,0.18436102,0.07144901
1761618670068,-0.40763730,0.11898296,0.03907386,0.03159867,-0.12165909,-0.10434914,0.97636945,0.08907150,0.18369798,0.07088031
1761618670079,-0.28796453,0.26752106,0.20794651,0.02608092,-0.07412345,-0.01390610,0.97643789,0.08921364,0.18329400,0.07080452
1761618670090,-0.19425149,-0.19303597,0.07653690,0.03093223,-0.04120860,0.04700141,0.97644614,0.08938532,0.18306530,0.07106538
1761618670101,-0.06326966,-0.19469012,0.10010776,0.02889186,-0.01161052,0.13452893,0.97638839,0.08954711,0.18300028,0.07181874
1761618670113,-0.09408395,-0.07574377,0.05470522,0.02110479,-0.01584176,0.13038599,0.97633758,0.08967163,0.18290681,0.07258802
1761618670123,-0.39397799,0.21152351,0.32126458,0.05961032,0.02002036,0.15061101,0.97623409,0.08997266,0.18300791,0.07334861
1761618670135,0.04928773,0.09697477,-0.13069378,0.08461197,-0.00526599,0.12700455,0.97614049,0.09045495,0.18297790,0.07407253
1761618670146,0.06782349,0.01414865,-0.06844454,0.07014795,-0.01585266,0.07299448,0.97608954,0.09084778,0.18288912,0.07448130
1761618670157,0.01562242,0.13049558,0.01674483,0.01561943,-0.00484122,0.07584645,0.97605524,0.09093212,0.18286298,0.07489087
1761618670168,0.13265796,-0.02200685,-0.05974325,0.02643782,-0.00453336,0.04914610,0.97602369,0.09108678,0.18283646,0.07517838
1761618670179,-0.08388521,0.04925056,0.27093441,0.03992239,0.02524713,0.02180835,0.97596790,0.09130636,0.18297532,0.07529832
1761618670190,0.56747563,-0.38558294,-0.42683822,0.03790279,0.01682412,0.05843395,0.97590617,0.09151482,0.18306785,0.07561971
1761618670202,0.42314723,-0.22702888,0.13236841,-0.02686586,-0.04055975,0.05877835,0.97593840,0.09135900,0.18283261,0.07596062
1761618670213,0.28162959,-0.20947984,0.11443260,-0.07741243,-0.06549932,-0.02213317,0.97605081,0.09094871,0.18248546,0.07584332
1761618670224,0.26578352,0.06456337,-0.20518395,-0.04790619,-0.05457638,-0.01042790,0.97613971,0.09067325,0.18217164,0.07578336
1761618670235,0.17328555,0.32063709,-0.27915125,0.00644004,-0.06001272,-0.00759447,0.97620344,0.09070996,0.18182957,0.07574007
1761618670246,0.04399825,0.39999988,-0.07949434,0.03656196,-0.06187506,-0.04685163,0.97626743,0.09090923,0.18149235,0.07548473
1761618670257,0.16847833,0.08336136,-0.05964034,0.00706803,-0.07116180,-0.01082795,0.97633708,0.09094598,0.18112231,0.07542842
1761618670319,-0.03728964,-0.09200905,-0.06717034,-0.00700487,-0.02018082,-0.00615568,0.97648882,0.09072743,0.18049267,0.07523637
1761618670338,0.11293948,-0.84537848,2.31407912,-0.27290346,-0.37461725,-0.13730604,0.97746130,0.08817578,0.17699000,0.07395255
1761618670368,-0.53359595,0.32651129,-0.93343146,0.05930221,-0.08624348,0.06997900,0.97753500,0.08907717,0.17567910,0.07501624
1761618670402,0.06785007,0.13864266,-0.15913881,0.07874377,-0.03769995,0.07171727,0.97743366,0.09040401,0.17504385,0.07622467
1761618670425,-0.07011919,-0.37176101,0.10123893,-0.00279733,0.02135672,0.12753382,0.97727988,0.09037240,0.17528519,0.07766580
1761618670435,-0.62685597,-0.25305075,0.48684757,0.10551093,0.15839972,0.12336294,0.97702244,0.09093688,0.17613262,0.07832580
1761618670446,-0.02464035,-0.41166056,-0.71487081,0.09646743,0.18830871,0.05283783,0.97675991,0.09147227,0.17717774,0.07861904
1761618670458,0.14910413,0.43355737,0.32734213,-0.00992981,0.17817089,0.02040597,0.97655944,0.09141220,0.17825567,0.07874250
1761618670469,0.36818748,-0.25481926,0.18140033,-0.08033553,0.22958041,0.00124327,0.97637405,0.09098240,0.17948393,0.07874915
1761618670480,0.22754120,0.34990936,-0.56434992,-0.13835904,0.20942505,-0.02481741,0.97624204,0.09021451,0.18064623,0.07861142
1761618670491,-0.27094584,0.40676824,1.13558396,-0.11411600,0.21556672,-0.03251390,0.97609952,0.08960970,0.18178874,0.07843909
1761618670502,0.28102218,-0.29899637,-1.11816587,-0.05706283,0.20418640,-0.04433865,0.97593066,0.08928158,0.18296281,0.07818415
1761618670514,-0.12180080,0.01542081,0.40055869,-0.08933396,0.24410294,-0.08447597,0.97574432,0.08874558,0.18442743,0.07767729
1761618670525,-0.01757887,0.55736909,-0.01004142,-0.11327337,0.23436543,-0.08193011,0.97559484,0.08813390,0.18569300,0.07723487
1761618670535,0.30923591,0.43481098,0.06893354,-0.09213388,0.22104674,-0.06978360,0.97544862,0.08765941,0.18683139,0.07687548
1761618670548,-0.43351761,-1.11918378,-0.29671764,-0.04655508,0.15239609,-0.07957320,0.97533184,0.08737077,0.18777625,0.07638213
1761618670558,0.25334951,0.85506252,-0.09112762,-0.00021656,0.14340794,-0.12432139,0.97523940,0.08736966,0.18851480,0.07574187
1761618670598,0.22484131,0.05516842,-0.17998944,-0.01069185,0.03143589,-0.01876057,0.97516605,0.08715636,0.18914194,0.07536760
1761618670625,-0.69020454,-0.11241749,0.35577715,-0.00235671,0.19348414,0.04079494,0.97461589,0.08712454,0.19175398,0.07591833
1761618670635,-5.97111013,-1.18194977,1.08379998,0.20028046,0.58440943,0.16246910,0.97386051,0.08815598,0.19476369,0.07675505
1761618670658,2.71360746,0.24657409,-0.65756417,-0.00408687,0.22138337,0.09657179,0.97328482,0.08811062,0.19722104,0.07782699
1761618670669,-0.82094864,-0.02485341,0.10691199,-0.00952685,0.41677968,0.10771721,0.97277001,0.08805775,0.19953417,0.07842482
1761618670691,0.66841432,0.00838793,-0.22143594,0.00475029,0.27117417,0.05782813,0.97207864,0.08811142,0.20259844,0.07907828
1761618670702,-1.07429497,0.75226454,0.46615102,-0.01512258,0.37160729,-0.01229154,0.97167484,0.08803052,0.20458654,0.07901252
1761618670714,0.94648915,-0.25579552,-0.43106784,0.01151407,0.28893865,-0.01764628,0.97131970,0.08809788,0.20627683,0.07890929
1761618670725,-0.02173240,-0.39960486,0.07231199,-0.03090122,0.23906012,-0.00848695,0.97104921,0.08792174,0.20763947,0.07886092
1761618670736,0.37247102,-0.36421935,-0.03790356,-0.09640091,0.28407829,-0.01822277,0.97078513,0.08742045,0.20911668,0.07876616
1761618670747,0.08883044,0.32773048,0.03772823,-0.12890719,0.19564071,0.00010226,0.97060701,0.08667279,0.21025140,0.07876675
1761618670758,-0.00097873,0.03949524,-0.09958809,-0.11990103,0.24873167,-0.02659556,0.97039057,0.08604331,0.21155724,0.07862712
1761618670770,-0.12814758,-0.00804641,-0.32358790,-0.05039783,0.16828995,-0.03053408,0.97020849,0.08573589,0.21258381,0.07844087
1761618670780,-0.64151883,-0.40439624,0.35865998,-0.03778719,0.20445198,0.01182489,0.96998944,0.08554128,0.21363673,0.07850176
1761618670791,1.02857140,0.14362184,0.13570941,0.00525732,0.22771604,0.02877934,0.96970003,0.08556993,0.21487779,0.07865861
1761618670802,0.14882605,0.19643977,0.24205377,-0.07288569,0.19982333,0.11221674,0.96943141,0.08515449,0.21601678,0.07929825
1761618670814,-0.04100472,0.21529638,-0.04071183,0.03473135,0.19146795,0.05226924,0.96913569,0.08535940,0.21714644,0.07960664
1761618670824,-0.21403854,0.20765724,0.23459537,0.06693314,0.21704063,0.04861345,0.96883353,0.08570411,0.21826420,0.07985699
1761618670836,0.16169074,0.02371901,-0.05894720,0.05133337,0.19060937,0.04218152,0.96853977,0.08599927,0.21936020,0.08009954
1761618670847,0.11357558,-0.15318056,0.31233285,-0.03353493,0.17891866,0.06098893,0.96829423,0.08580645,0.22038899,0.08045022
1761618670858,0.12142073,-0.25544405,0.34112771,-0.06784735,0.15994969,0.07908348,0.96808848,0.08542989,0.22127671,0.08088914
1761618670869,0.05673634,0.01835679,0.10158815,-0.00395411,0.15637119,0.05348307,0.96787279,0.08540854,0.22212111,0.08117795
1761618670881,-0.05329906,0.31534636,-0.05622233,0.02932268,0.16357841,-0.00594911,0.96764442,0.08557715,0.22306169,0.08114374
1761618670891,-0.00270268,0.07529588,0.07810938,0.03755904,0.20714793,0.03436106,0.96736318,0.08577245,0.22413886,0.08132242
1761618670902,0.12178834,0.19471239,-0.01642973,-0.01680378,0.18006756,0.07755107,0.96710071,0.08567835,0.22514723,0.08175670
1761618670913,-0.00326541,0.01313669,0.12146165,-0.01713229,0.17616668,0.03814430,0.96686307,0.08558327,0.22612496,0.08196840
1761618670926,0.12226780,0.01612150,0.02117049,-0.02842442,0.15801060,0.04221842,0.96663633,0.08541414,0.22706512,0.08221960
1761618670936,0.68881219,0.02411373,1.06054035,-0.01907357,0.16137939,0.03540398,0.96642402,0.08531115,0.22793657,0.08241078
1761618670948,0.18552381,-0.67961050,-0.83270254,-0.03530893,0.14251367,0.02710187,0.96623828,0.08511165,0.22874177,0.08256391
1761618670958,-0.30244779,0.78555420,0.73685697,-0.06657421,0.11097379,0.04787364,0.96610569,0.08475215,0.22934103,0.08282243
1761618670969,-0.15308464,-0.39167973,-0.45891126,0.00556761,0.12920899,0.01744152,0.96592416,0.08478305,0.23005814,0.08291923
1761618670981,0.14378275,0.45679530,0.14326495,0.01341711,0.12812889,0.04959384,0.96571348,0.08486154,0.23080770,0.08320935
1761618670992,-0.04786223,0.50861672,0.18997323,0.03623023,0.15217302,0.01657432,0.96548767,0.08506081,0.23164465,0.08330051
1761618671003,0.03763509,0.32844259,0.00411363,0.08402383,0.16266453,0.01425953,0.96523455,0.08550613,0.23250677,0.08337609
1761618671015,0.25047824,-0.35900036,-0.37034223,0.10527635,0.13596543,0.01021716,0.96498051,0.08612726,0.23330896,0.08343637
1761618671025,0.20286517,-0.01829443,0.37180112,0.10619976,0.14707563,0.00033483,0.96474341,0.08668481,0.23408111,0.08343813
1761618671037,-0.03172047,-0.18604118,0.17687701,0.07243252,0.09913837,0.00485371,0.96456499,0.08710130,0.23465116,0.08346603
1761618671048,0.12493784,0.55036072,-0.00838602,0.07257689,0.12374633,-0.02629565,0.96437036,0.08751136,0.23535032,0.08331746
1761618671058,-0.08674029,0.40707354,0.26862219,0.10493360,0.10174139,-0.00769218,0.96419318,0.08806226,0.23588447,0.08327708
1761618671070,0.43256040,-0.21820294,-0.19802420,0.12958834,0.11335352,-0.03664002,0.96398697,0.08879443,0.23652491,0.08307006
1761618671081,-0.05706170,0.09244827,0.07112362,0.14927597,0.08933070,-0.05909999,0.96382134,0.08960052,0.23700730,0.08275092
1761618671107,-0.26434153,-0.28165279,-0.71597109,0.05238858,0.02451806,-0.03209723,0.96371180,0.09030253,0.23733584,0.08232082
1761618671127,0.49724406,0.56101621,1.22095032,0.10240544,0.06891230,-0.10046969,0.96353518,0.09130098,0.23800774,0.08134124
1761618671137,0.32620885,-0.00161150,1.84675630,0.19849284,0.12939186,-0.15411823,0.96333578,0.09234307,0.23868704,0.08053212
1761618671148,-0.23488814,-0.50613209,-0.52063803,0.09753883,0.11861875,-0.14451243,0.96319786,0.09284540,0.23929793,0.07978788
1761618671158,-0.46886257,-0.00504068,-1.30643892,0.05559307,0.10551525,-0.11395304,0.96307792,0.09314560,0.23986771,0.07917254
1761618671169,-0.17182631,-0.20182476,-0.18176041,0.09096747,0.06413448,-0.11557209,0.96299353,0.09364592,0.24022045,0.07853689
1761618671181,0.32055664,0.12037158,-0.46013353,0.06253186,0.07105747,-0.09717409,0.96289709,0.09402424,0.24065035,0.07794899
1761618671192,-0.12764270,-0.22729151,0.46858024,0.08124275,0.04865807,-0.11592976,0.96284055,0.09445076,0.24090581,0.07734035
1761618671203,0.04738047,-0.12833967,0.19153244,0.04704181,0.04072076,-0.13077086,0.96281723,0.09470244,0.24112366,0.07664073
1761618671214,0.01287628,0.09369550,-0.06335057,0.01665946,0.03769521,-0.14872323,0.96282107,0.09479490,0.24133287,0.07581532
1761618671226,-0.33236153,-0.14853977,-0.26993263,0.01928291,0.00004090,-0.12055789,0.96286892,0.09491734,0.24133313,0.07504977
1761618671236,0.61794602,-0.39439754,0.47836873,0.04536020,-0.01047227,-0.11519729,0.96290402,0.09514188,0.24128129,0.07447955
1761618671248,0.07129413,0.28519104,-0.26369072,0.02603061,-0.01060531,-0.06636619,0.96293420,0.09529285,0.24121978,0.07409462
1761618671259,-0.10781803,-0.07353185,0.09749898,0.04301451,-0.04410399,-0.03722942,0.96298675,0.09552728,0.24097941,0.07389172
1761618671270,-0.59022973,-0.03027539,-0.11604393,0.05140588,-0.04457101,-0.05729699,0.96304618,0.09582030,0.24072536,0.07356513
1761618671281,1.00127836,0.10903688,0.48908673,0.03450037,-0.02137934,0.00728604,0.96305327,0.09600142,0.24061312,0.07360338
1761618671292,-0.52688378,-0.19725873,-0.30829672,0.02265670,-0.03314244,0.01474852,0.96308114,0.09613057,0.24042421,0.07368745
1761618671303,-0.03126647,-0.33036830,0.26326982,0.01121242,-0.04101137,-0.02789681,0.96314355,0.09619280,0.24019659,0.07353262
1761618671315,-0.00663721,0.37744883,-0.28839515,-0.00071109,-0.04496932,-0.00833732,0.96321326,0.09618864,0.23993352,0.07348385
1761618671326,0.27579019,0.10843810,0.18156712,0.00487102,-0.05505030,-0.00448236,0.96328648,0.09621494,0.23963625,0.07345964
1761618671337,-0.30023080,0.07378629,-0.28219616,0.03489811,-0.06874674,-0.02725859,0.96337269,0.09640688,0.23925814,0.07330972
1761618671349,-0.28305054,-0.32217719,-0.29178966,0.02184048,-0.06208172,-0.01131611,0.96346068,0.09654338,0.23887013,0.07323900
1761618671359,-0.04326126,0.29820445,0.61989074,0.01748815,-0.06488235,-0.04546730,0.96354865,0.09662995,0.23854897,0.07301393
1761618671371,-0.38792698,0.24940830,-0.26183888,0.01374625,-0.06353940,-0.03111779,0.96364464,0.09670899,0.23818361,0.07283500
1761618671382,0.27900838,0.13607009,0.04991914,0.02319425,-0.03148331,-0.01954157,0.96368343,0.09683888,0.23800731,0.07272557
1761618671392,-0.26648579,0.11614470,-0.03123434,0.04389335,-0.04238365,-0.03742527,0.96372954,0.09706712,0.23778691,0.07253096
1761618671403,-0.00291771,-0.20946765,0.01159032,0.04796768,-0.01690422,-0.03514446,0.96374039,0.09733094,0.23769394,0.07233767
1761618671414,0.37576015,-0.34770708,0.09435905,0.03340481,-0.00296757,-0.01113795,0.96373026,0.09751801,0.23767732,0.07227529
1761618671426,-0.22524432,0.04839237,-0.34840598,0.00941211,-0.00783757,-0.01441287,0.96374231,0.09757307,0.23763147,0.07219098
1761618671437,-0.18410347,-0.04291861,0.19803341,0.02196934,-0.01073914,-0.03697085,0.96376000,0.09769500,0.23757187,0.07198579
1761618671448,0.25147582,0.36430063,-0.00190686,0.02113907,0.00270017,-0.01888335,0.96375258,0.09780704,0.23758618,0.07188571
1761618671459,-0.44651126,-0.24701834,-0.10799684,0.07066147,-0.01814354,-0.02265820,0.96374684,0.09820274,0.23748458,0.07175882
1761618671470,0.29935368,0.16500090,-0.30600599,0.08732259,-0.00265996,-0.04826614,0.96372064,0.09869175,0.23746968,0.07148853
1761618671482,-0.26847531,-0.41280052,-0.07547539,0.06473119,-0.01242465,-0.01306952,0.96370537,0.09907043,0.23739700,0.07141207
1761618671492,0.15364396,0.00198141,0.12360761,0.03374336,-0.01216666,0.00682762,0.96370031,0.09924421,0.23733434,0.07144724
1761618671504,0.09358059,0.05420073,-0.28348985,0.01574318,-0.02398955,0.01739240,0.96371768,0.09933552,0.23719520,0.07154811
1761618671515,-0.29037471,0.05841452,-0.13393906,0.04202570,-0.02395802,-0.00819800,0.96372981,0.09957086,0.23706103,0.07150220
1761618671526,0.38042416,-0.07810059,-0.27370474,0.04803173,-0.02017879,0.01975643,0.96372141,0.09984464,0.23694601,0.07161482
1761618671537,0.04300369,-0.09619666,0.00916447,0.04380461,-0.01999623,0.01553868,0.96371714,0.10008338,0.23683703,0.07169950
1761618671548,0.07579881,-0.11503377,-0.09156288,0.01102716,-0.01077236,-0.01464708,0.96373113,0.10014292,0.23677886,0.07162041
1761618671560,-0.10146875,0.21106391,-0.11819920,-0.03492456,-0.02986619,-0.02951041,0.96380871,0.09993687,0.23660265,0.07144630
1761618671571,-0.06157914,0.18003629,-0.15983622,-0.03310169,-0.03263879,-0.08427990,0.96390499,0.09975646,0.23642477,0.07098697
1761618671582,-0.11596398,-0.12676197,0.62741942,-0.02663850,-0.03757058,-0.05552080,0.96399644,0.09960462,0.23621062,0.07067050
1761618671593,0.62184587,-0.06313881,-0.64332104,-0.00990850,-0.04338867,-0.05899183,0.96408185,0.09955161,0.23597849,0.07035490
1761618671604,0.03577146,0.13309406,-0.21546969,0.01380760,-0.05576949,-0.05517421,0.96417194,0.09962825,0.23566897,0.07004868
1761618671615,0.16527166,0.15035481,-0.00206119,-0.00024689,-0.03266706,-0.03029377,0.96422909,0.09962686,0.23548603,0.06987903
1761618671626,0.03839903,0.08040482,-0.08626095,0.02313713,-0.06880407,-0.05576463,0.96432861,0.09975180,0.23511449,0.06957790
1761618671665,-0.18240872,-0.07037045,-0.23366083,-0.00336931,-0.01739861,-0.01081879,0.96443433,0.09968543,0.23477174,0.06936477
1761618671683,1.20152731,-0.23778660,1.48991191,-0.05133139,-0.13132476,-0.11485142,0.96482684,0.09924141,0.23363578,0.06837131
1761618671693,0.61430927,0.34384180,-0.31428283,0.08080182,-0.14247726,-0.12186953,0.96499695,0.09963734,0.23293764,0.06777415
1761618671704,-0.93893741,0.03730583,-0.88550881,0.04138209,-0.04105006,-0.03334625,0.96504195,0.09987115,0.23270571,0.06758574
1761618671727,-0.33271715,-0.09726350,-0.21069669,-0.01790504,-0.00015007,-0.01120162,0.96507254,0.09966614,0.23270399,0.06745748
1761618671737,0.43937557,-0.14977181,0.42134880,-0.05448748,0.01816325,-0.03006456,0.96508989,0.09938280,0.23279844,0.06730115
1761618671748,-0.25556544,-0.01164153,-0.14501657,-0.01469428,0.02773098,-0.03109955,0.96507302,0.09930051,0.23295373,0.06712699
1761618671759,-0.13875407,0.02568488,0.01553446,0.00520481,0.01614981,-0.03110125,0.96506040,0.09932940,0.23304336,0.06695438
1761618671771,-0.15759965,-0.02365287,-0.03801543,-0.02987322,0.02778170,-0.06639579,0.96506603,0.09915315,0.23320728,0.06656264
1761618671782,-0.00846232,-0.04287204,0.29321577,-0.05326777,0.05403574,-0.06896635,0.96505117,0.09887616,0.23348826,0.06620402
1761618671793,-0.24725050,-0.05742483,-0.14260435,-0.03380452,0.07204224,-0.04290261,0.96498765,0.09868178,0.23390250,0.06595733
1761618671805,-0.15864525,-0.07560438,-0.02321088,-0.02630606,0.07891450,-0.02654802,0.96490343,0.09853052,0.23435626,0.06580468
1761618671815,-0.14669826,-0.08402675,0.16210753,0.00111785,0.09637153,-0.05784535,0.96479948,0.09853644,0.23486703,0.06549810
1761618671827,-0.10049333,0.14276672,-0.06798594,-0.01130450,0.09333503,-0.02987226,0.96468598,0.09847088,0.23540838,0.06532484
1761618671838,0.00074009,-0.03406612,0.09198248,-0.00753908,0.09834174,-0.02189517,0.96456840,0.09843017,0.23593942,0.06520660
1761618671849,0.07678497,0.11559668,0.21632876,-0.02689115,0.07106726,-0.00958728,0.96449205,0.09828361,0.23632674,0.06515435
1761618671860,0.18603121,0.16664919,0.07943294,-0.02374215,0.06556975,-0.01080874,0.96442093,0.09815303,0.23668737,0.06509491
1761618671872,-0.03137828,0.06341469,-0.21494689,-0.01213265,0.03145317,-0.00124554,0.96438122,0.09807781,0.23688238,0.06508718
1761618671883,0.13385188,-0.12884549,0.02485552,-0.01551018,0.02209802,-0.00331501,0.96436199,0.09799560,0.23699950,0.06506961
1761618671893,0.05920427,-0.04579240,-0.08802351,-0.04193823,0.00326259,-0.00729917,0.96438271,0.09777543,0.23701663,0.06503129
1761618671904,0.15039900,0.03801901,-0.12970110,-0.01026230,-0.00324193,0.00281095,0.96439169,0.09771950,0.23699896,0.06504661
1761618671916,-0.08778588,0.15078533,-0.17592657,0.01719380,-0.01412868,-0.00731292,0.96440513,0.09782352,0.23691348,0.06500237
1761618671927,0.08530632,0.17835720,0.10681265,0.02657991,-0.00998181,-0.02108961,0.96441135,0.09796439,0.23686058,0.06489059
1761618671938,0.00780612,0.08750751,0.01510659,0.01895281,-0.02547055,-0.02719586,0.96444705,0.09807432,0.23671285,0.06473286
1761618671950,-0.11605542,-0.04435133,-0.05692031,0.01719833,-0.06033357,-0.02975458,0.96453429,0.09817407,0.23636291,0.06456028
1761618671960,0.16007859,0.19326984,0.26739875,-0.02202995,-0.03588952,0.00924675,0.96458688,0.09806282,0.23618167,0.06460698
1761618671972,-0.24834684,-0.01794864,-0.30480226,0.03413407,-0.01751866,-0.04476168,0.96460896,0.09826080,0.23608006,0.06434736
1761618671982,0.02253882,-0.12167016,0.05277684,0.05011564,-0.01083125,-0.00851239,0.96459882,0.09852892,0.23602212,0.06430182
1761618671993,0.00608615,-0.06958153,-0.00540249,-0.01597108,-0.00403089,-0.00557152,0.96461526,0.09844107,0.23599995,0.06427118
1761618672004,-0.11132768,-0.13885173,-0.06600845,0.00431418,-0.00561449,-0.03082803,0.96463167,0.09846480,0.23596907,0.06410162
1761618672016,-0.09880076,0.07692486,-0.09341145,0.02624052,0.00625931,-0.03136554,0.96461921,0.09861831,0.23600568,0.06391813
1761618672028,-0.09863234,-0.00197581,-0.02561594,0.01643630,0.00726847,-0.02627017,0.96460923,0.09871364,0.23604784,0.06376577
1761618672038,-0.19454969,-0.03112881,0.00224232,0.01034412,0.00943204,-0.02837713,0.96460146,0.09876743,0.23609689,0.06361821
1761618672049,0.12087604,0.21463161,0.20851188,-0.03177663,0.03700951,-0.00011384,0.96456925,0.09859107,0.23630229,0.06361757
1761618672060,-0.18176799,0.12494100,0.18910150,-0.00161175,0.00132284,-0.01527187,0.96457374,0.09858253,0.23630930,0.06353663
1761618672071,0.02891500,-0.06330003,-0.19797893,-0.00676911,0.03033176,-0.01394549,0.96453938,0.09854259,0.23648826,0.06345435
1761618672083,-0.06452602,-0.08325668,-0.19081851,0.01891322,0.00297074,-0.02134469,0.96453214,0.09865134,0.23650534,0.06333162
1761618672094,0.06569415,-0.12106083,-0.15713895,0.00262332,0.00815794,-0.00758553,0.96452257,0.09866551,0.23654939,0.06329066
1761618672105,0.02507223,-0.14590115,-0.17430807,-0.00119719,-0.00288339,-0.00636378,0.96452968,0.09865868,0.23653296,0.06325439
1761618672116,0.10529110,-0.15516349,-0.02799421,-0.00757705,-0.00177384,0.00194620,0.96453547,0.09861814,0.23652347,0.06326480
1761618672127,-0.01920591,-0.07217362,-0.07701127,-0.01642286,-0.00399627,-0.00694729,0.96455275,0.09852700,0.23650129,0.06322624
1761618672139,0.00184367,-0.02071684,-0.08181185,-0.02473524,-0.02037750,0.00480960,0.96459454,0.09838353,0.23638310,0.06325414
1761618672175,-0.02904544,0.05830476,-0.12006064,-0.00266233,-0.00880506,0.00063410,0.96463798,0.09833508,0.23622285,0.06326568
1761618672184,2.00398886,-0.85967833,0.54835505,0.02403316,-0.17316990,0.00543081,0.96481584,0.09844323,0.23544358,0.06329012
1761618672195,-1.01669328,0.55448901,-0.28342301,-0.07222832,-0.04736171,0.00548317,0.96492062,0.09803514,0.23517599,0.06332110
1761618672205,0.03148422,-0.09993134,-0.06821327,-0.05657909,-0.06959711,0.00664857,0.96503411,0.09774658,0.23482104,0.06335500
1761618672217,-0.15699832,0.02073844,-0.07993726,-0.02716001,-0.04977201,-0.01470195,0.96512821,0.09758498,0.23452490,0.06326753
1761618672228,-0.07382131,0.06259989,0.05169721,-0.05735757,-0.03325911,-0.02166110,0.96520923,0.09728099,0.23434863,0.06315272
1761618672238,-0.05865212,0.05490664,-0.06301373,-0.01168466,-0.04074821,0.00401430,0.96526433,0.09722140,0.23414081,0.06317320
1761618672250,-0.06432591,0.20830364,0.09672527,-0.00366308,-0.02182804,0.01751292,0.96529029,0.09720033,0.23401530,0.06327390
1761618672260,-0.14780401,0.12843235,0.00819175,0.03161224,-0.04650498,-0.01092526,0.96533648,0.09736630,0.23377115,0.06321654
1761618672272,-0.12445867,0.13538722,0.06098996,0.00731047,-0.01755564,-0.01059194,0.96536130,0.09740943,0.23366757,0.06315405
1761618672283,-0.13876667,-0.21719650,-0.10032377,-0.01693792,-0.01830330,0.00666726,0.96539294,0.09731542,0.23356599,0.06319105
1761618672293,-0.01007246,-0.29311758,0.11247248,-0.07312004,0.01982849,-0.00278124,0.96540705,0.09693886,0.23366810,0.06317673
1761618672305,-0.13232187,-0.16102001,0.03779580,-0.06195627,-0.00551634,0.01015991,0.96544867,0.09656402,0.23363473,0.06323819
1761618672316,-0.11981471,-0.14436542,0.09393587,-0.04067101,0.01844477,0.01477952,0.96544148,0.09635050,0.23373157,0.06331579
1761618672328,-0.23593242,0.21812455,-0.01292185,0.00925334,0.00171985,0.01483533,0.96542771,0.09640555,0.23374180,0.06340406
1761618672339,-0.26950608,0.17041557,0.02929097,0.01181323,0.02209217,0.01684240,0.96538647,0.09646935,0.23386110,0.06349500
1761618672351,0.03604211,0.16111012,0.03710586,0.04097754,0.06859380,0.07068270,0.96522645,0.09672750,0.23429324,0.06394031
1761618672362,-0.46182243,0.17360589,0.11602167,0.04669019,0.07262728,0.05521331,0.96508737,0.09697730,0.23468179,0.06423570
1761618672372,-0.26664002,0.09296527,0.04999768,0.05112162,0.07946476,0.05271584,0.96494456,0.09723802,0.23508706,0.06450455
1761618672383,0.07988393,-0.15011522,-0.04829441,0.02980305,0.10156564,0.05396375,0.96477816,0.09739597,0.23562536,0.06479056
1761618672395,0.08504749,-0.32405405,-0.07490710,-0.00493285,0.06421672,0.04390279,0.96466378,0.09736490,0.23602993,0.06506714
1761618672405,-0.12288338,-0.28149569,0.18456642,-0.04156447,0.09185616,0.07233545,0.96455011,0.09716123,0.23648002,0.06542159
1761618672416,0.22346311,0.14885379,-0.16318509,-0.00373552,0.07702149,0.05203279,0.96442656,0.09714031,0.23691134,0.06571297
1761618672467,0.20184616,0.05108920,-0.09436624,0.01409279,0.01828907,0.00674541,0.96426482,0.09749756,0.23737497,0.06588397
1761618672495,-0.82463362,-0.22741604,0.04591502,0.01127349,0.17208521,0.06363471,0.96360334,0.09765257,0.23974114,0.06675894
1761618672534,0.46746603,0.05591038,-0.10169723,-0.02577337,0.04846059,0.03427792,0.96336665,0.09713840,0.24070793,0.06744279
1761618672561,-0.70239065,-0.24567106,-0.15121027,-0.05721120,0.15243741,0.15589810,0.96278680,0.09637749,0.24273535,0.06951623
1761618672584,-0.19619771,-0.41060048,0.15840749,-0.11104594,0.14979581,0.16598555,0.96234796,0.09512822,0.24442055,0.07138357
1761618672605,0.30976632,0.77557389,-0.30706050,0.02932585,0.12062145,0.10915512,0.96189658,0.09544494,0.24572326,0.07256245
1761618672628,0.31667285,0.04181285,0.05271992,0.01319483,0.07418943,0.08817865,0.96159152,0.09559404,0.24656160,0.07355886
1761618672639,-0.44578617,0.23042010,-0.52922520,0.01036322,0.06644752,0.09098422,0.96144989,0.09565259,0.24693703,0.07407293
1761618672661,0.56824052,-0.15328971,0.40847806,0.01374169,0.02932539,0.01929991,0.96133763,0.09580100,0.24725375,0.07428136
1761618672672,-1.22219369,0.06165260,-0.37253783,-0.03876034,0.05239580,0.05335313,0.96126059,0.09558395,0.24754716,0.07458014
1761618672683,0.93938460,0.18525271,-0.26960594,-0.00311169,0.02817853,0.04635039,0.96120202,0.09556668,0.24770355,0.07483739
1761618672694,0.27437956,0.07754088,0.10105864,-0.00951132,0.03179025,0.02731774,0.96114762,0.09551151,0.24788794,0.07499583
1761618672706,-0.08310504,-0.00136718,-0.06819184,0.00744178,0.02083095,-0.01001379,0.96111749,0.09555356,0.24800563,0.07493925
1761618672716,0.22416600,-0.01136283,-0.21448965,0.00718553,0.02976580,-0.02314018,0.96108287,0.09559128,0.24816190,0.07481777
1761618672728,0.19432005,-0.14751610,0.10310623,-0.01211826,0.00384458,-0.03977161,0.96110203,0.09552099,0.24818420,0.07458709
1761618672740,0.12035114,-0.04013251,0.05099794,-0.05047710,-0.01604722,-0.04130062,0.96117614,0.09521813,0.24808792,0.07433929
1761618672750,0.02070377,-0.42609857,0.03178603,-0.05021447,-0.00505871,-0.06668971,0.96123380,0.09496455,0.24806237,0.07400250
1761618672762,0.03261404,0.21527363,0.18330710,-0.02079395,-0.03387649,-0.06421928,0.96132735,0.09484082,0.24786081,0.07362040
1761618672773,0.05549008,0.21394139,-0.13629682,0.00718921,-0.05359036,-0.06167056,0.96142353,0.09487965,0.24757142,0.07328738
1761618672783,0.22836148,0.37141281,-0.39406256,0.02324376,-0.04334979,-0.02756762,0.96148163,0.09500284,0.24734166,0.07314127
1761618672795,0.06142231,-0.00646867,0.11362660,-0.00453440,-0.05863670,-0.02323067,0.96158102,0.09497677,0.24700450,0.07300769
1761618672806,0.03480582,-0.15881363,-0.03891782,-0.00182969,-0.07862123,-0.03653904,0.96170938,0.09496661,0.24656815,0.07280490
1761618672817,0.11603614,-0.15194469,0.05807085,-0.02205728,-0.07184912,0.00237441,0.96182669,0.09483978,0.24615502,0.07281855
1761618672828,0.04971471,-0.01343081,-0.02084149,-0.06796167,-0.08557790,0.01185813,0.96196919,0.09448978,0.24571430,0.07287962
1761618672840,-0.04841451,0.00195847,0.20331347,-0.01960669,-0.05372717,0.00704554,0.96206284,0.09436822,0.24538119,0.07292331
1761618672851,-0.06828389,0.22238499,-0.12300462,0.00785263,-0.06595841,0.00143095,0.96214807,0.09441023,0.24502831,0.07293096
1761618672862,-0.14657262,0.16277510,0.11580145,0.00579761,-0.05123513,-0.04260726,0.96223675,0.09444298,0.24473883,0.07269023
1761618672872,-0.13134911,0.18245957,-0.08615404,0.02808279,-0.04819486,-0.02493619,0.96229533,0.09458761,0.24449063,0.07256181
1761618672883,-0.15920559,0.02469486,0.09209238,0.04164853,-0.02143430,-0.00231838,0.96230346,0.09481043,0.24437595,0.07254941
1761618672896,-0.01842912,-0.07079421,0.19933571,0.03444823,-0.02052002,-0.00641838,0.96231804,0.09502918,0.24424565,0.07250865
1761618672906,0.00363463,-0.10613362,-0.18194796,0.02886152,-0.00611283,0.00223257,0.96231062,0.09517493,0.24421478,0.07251992
1761618672917,0.03718496,-0.11201814,0.28838446,-0.00933509,-0.01430017,0.00107073,0.96233454,0.09512499,0.24413828,0.07252565
1761618672928,-0.01238752,-0.16977925,0.09636121,0.00791887,-0.01300246,0.00456471,0.96234692,0.09517012,0.24406416,0.07255167
1761618672940,0.01773325,0.05996955,0.06428849,0.00464201,0.00347482,-0.00303555,0.96234025,0.09519797,0.24408501,0.07253346
1761618672951,-0.13610403,-0.14585230,0.06764654,0.03440475,-0.01168229,0.00286110,0.96233678,0.09537860,0.24402368,0.07254848
1761618672962,0.05936389,0.14021315,0.04932208,0.02300447,0.00902765,0.00344648,0.96230973,0.09550742,0.24407423,0.07256778
1761618672973,-0.10515319,0.02655816,0.00512221,0.03762355,0.02356484,0.00385760,0.96225319,0.09572000,0.24420738,0.07258957
1761618672984,0.05272527,0.11710907,-0.06496983,0.02718274,0.04035078,-0.00154164,0.96218323,0.09586814,0.24442729,0.07258117
1761618672995,0.02816985,0.01063181,0.00246737,0.03863551,0.01567278,0.00623148,0.96213672,0.09608450,0.24451506,0.07261607
1761618673006,0.04352000,0.04512720,0.01681284,0.03125100,0.01314110,-0.00054539,0.96210043,0.09626107,0.24458930,0.07261299
1761618673017,0.11069075,0.01091669,-0.03005529,0.02932355,0.01924514,-0.00039592,0.96205948,0.09641502,0.24469034,0.07261091
1761618673028,0.01970995,0.08551232,0.07806580,-0.00104725,0.01712455,-0.01981403,0.96204418,0.09640921,0.24478538,0.07250094
1761618673040,0.15772259,-0.01219398,-0.06557807,0.02137691,-0.00167655,-0.01339182,0.96203996,0.09653640,0.24477541,0.07242126
1761618673079,0.00547549,-0.06577408,0.09183015,0.01255177,-0.00368348,-0.00502388,0.96204102,0.09678304,0.24470302,0.07232254
1761618673106,0.06064441,0.18487844,-0.27728849,0.03824129,-0.03844227,0.00566501,0.96211533,0.09730121,0.24418213,0.07239930
1761618673117,0.85540872,0.45474898,-1.59700131,0.07767112,-0.12346643,0.02241873,0.96223484,0.09772840,0.24350307,0.07252260
1761618673140,-0.28066496,-0.39950297,0.77783861,0.03044392,-0.04034194,-0.00383221,0.96231798,0.09807090,0.24304922,0.07247949
1761618673151,0.03203256,-0.51647785,-0.10912334,-0.00518723,-0.03567853,-0.03313884,0.96238234,0.09804315,0.24285834,0.07230220
1761618673164,-0.00578444,0.13131202,0.24310560,-0.00219917,-0.01385553,-0.00626673,0.96240978,0.09802874,0.24276759,0.07226115
1761618673175,0.04130683,0.25182211,-0.04028227,-0.00889734,-0.02339552,-0.01836848,0.96245725,0.09797714,0.24263189,0.07215461
1761618673186,0.06031459,0.14633033,0.03512650,0.00205030,-0.03383719,-0.03771860,0.96251519,0.09798780,0.24245594,0.07195848
1761618673195,0.14964841,-0.02094481,-0.28086440,0.03670790,-0.04870236,-0.04590191,0.96257254,0.09816400,0.24222217,0.07173815
1761618673207,-0.12420451,0.01263829,0.22043061,-0.01230778,-0.05009019,-0.02541929,0.96266306,0.09809323,0.24193415,0.07159199
1761618673218,0.29183359,0.01484494,-0.23301068,-0.00759440,-0.04213556,-0.01650929,0.96273228,0.09805146,0.24170240,0.07150119
1761618673229,-0.08701337,0.08621907,0.01068741,0.00501746,-0.05759067,-0.02811703,0.96282521,0.09808056,0.24136838,0.07133811
1761618673240,-0.09444338,-0.09695628,-0.10264773,0.04099717,-0.04154396,-0.05650332,0.96288244,0.09830604,0.24113989,0.07102734
1761618673251,-0.14425631,0.31013746,-0.12149619,0.00994625,-0.04021092,-0.06238247,0.96295542,0.09835925,0.24092476,0.07069359
1761618673262,-0.16213458,-0.02009648,0.06030211,0.01604651,-0.03889624,-0.02948039,0.96301179,0.09844751,0.24071083,0.07053145
1761618673273,0.03383714,-0.09164262,0.06064430,0.00467302,-0.02116241,-0.01938764,0.96304636,0.09847345,0.24059338,0.07042385
1761618673284,-0.05449786,-0.30309799,0.16532402,-0.00749156,-0.03746631,-0.02813266,0.96311272,0.09843262,0.24038918,0.07027053
1761618673295,0.07424869,-0.07738420,0.11413228,-0.01835222,-0.01792840,-0.01122676,0.96315178,0.09833260,0.24029148,0.07020934
1761618673307,-0.05360469,-0.06177346,0.03448457,0.00899143,-0.02206443,-0.01015447,0.96318373,0.09838655,0.24015909,0.07014841
1761618673318,0.02188999,-0.01395455,0.01295590,-0.00728597,-0.02792001,0.00899713,0.96322214,0.09834684,0.24000692,0.07019745
1761618673329,-0.05074935,-0.03046922,-0.00273903,-0.00185381,-0.00929559,-0.00654506,0.96323944,0.09833609,0.23995301,0.07015949
1761618673340,-0.11542243,0.03473694,0.01493613,-0.02098481,-0.02193639,-0.00078183,0.96327928,0.09822696,0.23983894,0.07015542
1761618673351,-0.16052175,-0.23955596,-0.06610320,0.00027547,0.00946367,-0.00480050,0.96326747,0.09822856,0.23989383,0.07012758
1761618673362,-0.13228868,-0.05111047,0.00044164,-0.00738715,-0.02313547,-0.00918156,0.96330697,0.09818793,0.23976659,0.07007708
1761618673374,0.07123243,-0.03152807,0.03583900,-0.01327898,-0.00710709,-0.00180820,0.96332535,0.09811291,0.23972643,0.07006686
1761618673385,0.17055197,0.24147435,0.16280989,-0.02103511,-0.00068103,-0.00253527,0.96333882,0.09799932,0.23972275,0.07005317
1761618673396,0.02866515,-0.01763451,-0.04194546,0.00767864,-0.00088349,-0.00807372,0.96333897,0.09804424,0.23971758,0.07000594
1761618673406,-0.02976148,-0.00813079,-0.02050693,0.00071171,-0.00780380,-0.01838184,0.96335531,0.09804787,0.23967778,0.06991219
1761618673418,0.05730556,0.01192493,0.09095118,-0.01112377,-0.00958277,0.00391959,0.96337357,0.09798502,0.23962364,0.06993434
1761618673429,0.03571273,0.10894547,0.03297265,-0.01420644,-0.00928753,0.00605001,0.96339263,0.09790333,0.23957024,0.06996913
1761618673440,-0.06682231,0.21009673,-0.03655951,0.00299220,-0.01169677,-0.01587894,0.96341329,0.09791979,0.23950591,0.06988179
1761618673451,-0.00285862,0.30626720,-0.24825527,0.03196447,-0.01514155,-0.03073111,0.96342794,0.09809080,0.23942490,0.06971738
1761618673462,-0.01796711,0.07917747,0.00062844,0.04959536,-0.03686650,-0.05615681,0.96347321,0.09836605,0.23922029,0.06940571
1761618673475,-0.03063442,0.01235481,0.07663074,0.04152741,-0.03661705,-0.02978705,0.96351686,0.09862560,0.23899143,0.06921954
1761618673485,0.10598770,-0.05487180,0.02574201,0.04394482,-0.04403731,-0.04176773,0.96356438,0.09884752,0.23876905,0.06900862
1761618673496,0.07641318,-0.18798461,0.04699741,0.05342537,-0.02398661,-0.03190262,0.96358011,0.09915471,0.23863112,0.06882518
1761618673507,0.01563191,0.25931627,0.18312806,0.02583596,-0.05895119,-0.02907255,0.96365782,0.09929810,0.23830394,0.06866382
1761618673518,0.10442316,0.03635754,-0.02149158,0.06957439,-0.07697129,-0.05190992,0.96374011,0.09966685,0.23789600,0.06838870
1761618673529,0.01531708,-0.07681661,-0.05574284,0.07306189,-0.07787588,-0.01532372,0.96381008,0.10006869,0.23746768,0.06830442
1761618673540,-0.08452613,0.08143783,0.12960604,0.05015901,-0.06550205,-0.01420767,0.96387860,0.10035710,0.23709104,0.06822273
1761618673551,-0.19401507,0.10787164,-0.11873684,0.04300498,-0.05525312,-0.03661487,0.96394229,0.10059148,0.23678991,0.06802317
1761618673562,-0.10163837,-0.23168487,-0.06537575,0.08265840,-0.03279275,-0.01788797,0.96394597,0.10104610,0.23660955,0.06792479
1761618673601,-0.01823786,-0.11376824,0.12080570,0.01039648,-0.01187100,-0.00075426,0.96398271,0.10124987,0.23637688,0.06791001
1761618673619,-0.02464913,0.36273706,0.02311482,0.07001010,-0.01390432,0.02493149,0.96393433,0.10184146,0.23625939,0.06812068
1761618673620,-3.94229275,6.18682401,2.14497226,0.19607290,-0.00983113,0.03948480,0.96391216,0.10204733,0.23624907,0.06816214
1761618673641,0.40335412,-0.90262024,-0.15608949,0.00935869,-0.00794161,-0.00958724,0.96392856,0.10214139,0.23616925,0.06806579
1761618673651,-0.20934298,-0.14321196,-0.03733775,0.01944877,0.00529479,-0.00533799,0.96391231,0.10224739,0.23619811,0.06803669
1761618673664,-0.05734584,0.02504119,0.06721505,0.01618882,-0.00013217,0.01812107,0.96389481,0.10234290,0.23619733,0.06814361
1761618673675,0.02440889,-0.01381745,-0.04577056,0.04110965,0.00863361,0.01564241,0.96385153,0.10257722,0.23624654,0.06823277
1761618673685,0.06587249,0.13408211,0.09172172,0.01404152,0.01187751,0.02975677,0.96381700,0.10265164,0.23630949,0.06839048
1761618673696,-0.03060297,-0.01273798,-0.01232218,0.05140606,0.00787784,0.01970164,0.96376941,0.10292924,0.23635203,0.06849687
1761618673707,0.03378636,-0.01634855,-0.07475806,0.05101911,-0.01036883,0.03319798,0.96373933,0.10322005,0.23629293,0.06868610
