UnixTime(ms),Ax,Ay,Az,Gx,Gy,Gz,QuatW,QuatX,QuatY,QuatZ
1761621733056,0.00000000,0.00000000,0.00000000,0.00000000,0.00000000,0.00000000,0.91750398,0.08753513,0.38796767,0.00226559
1761621733065,0.12540466,0.01083909,-0.13275517,0.02996945,-0.03728981,0.00254081,0.91756717,0.08768198,0.38778495,0.00227804
1761621733076,0.02795296,0.03636508,0.04022475,0.03772722,-0.03566807,-0.00867978,0.91763262,0.08789703,0.38758164,0.00222856
1761621733089,0.10994285,0.07333852,0.01316297,0.03711092,-0.03524691,-0.01574769,0.91770192,0.08812341,0.38736663,0.00213250
1761621733099,-0.00785682,0.03662145,0.08471250,0.02968774,-0.03007156,0.01102399,0.91775294,0.08827778,0.38721026,0.00218983
1761621733110,-0.04677476,-0.02064864,0.01512156,0.00773844,-0.02359217,0.02716050,0.91780275,0.08831996,0.38708168,0.00233785
1761621733124,-0.08712998,-0.06716398,-0.02889658,-0.03236564,-0.01363791,0.02559195,0.91786562,0.08808854,0.38698417,0.00252083
1761621733134,-0.13951354,-0.14323025,-0.11896845,-0.06548756,-0.02045989,0.04747012,0.91793722,0.08777093,0.38688494,0.00275106
1761621733142,-0.09509092,-0.16517024,-0.21885566,-0.04986631,-0.03989155,0.03774918,0.91802840,0.08755900,0.38671540,0.00291150
1761621733156,-0.03176000,0.00771877,0.05544109,-0.02141167,-0.01457352,0.01220554,0.91808537,0.08740911,0.38661339,0.00299694
1761621733165,-0.11275655,-0.15069859,-0.16688136,-0.00257861,-0.01561120,0.03102428,0.91811224,0.08739880,0.38655094,0.00312103
1761621733176,0.09470970,0.12191941,0.13133057,-0.01039802,-0.00916118,0.01297834,0.91813985,0.08733901,0.38649827,0.00319566
1761621733187,0.00267601,0.03065090,0.05867508,0.00436495,-0.00716025,0.02859007,0.91815420,0.08736411,0.38645709,0.00336005
1761621733199,0.02653135,0.04610201,0.06020415,0.02731685,0.00566668,0.00550335,0.91812466,0.08752528,0.38649053,0.00339252
1761621733211,0.00959331,0.05743887,0.10407864,0.01378605,0.00721036,0.01579009,0.91809886,0.08760593,0.38653271,0.00348489
1761621733222,-0.01248998,0.04529193,0.10645723,0.03372475,0.01389033,-0.00016106,0.91805125,0.08778298,0.38660563,0.00348405
1761621733234,0.05723687,0.05760128,0.04646411,0.05149463,0.01435923,-0.00673301,0.91798442,0.08809710,0.38669322,0.00344298
1761621733244,0.08976459,0.07881386,0.04920314,0.04481696,0.01601150,-0.02072092,0.91792515,0.08833911,0.38677969,0.00333108
1761621733255,0.03005405,0.06288991,0.08993896,0.01147752,0.00352198,-0.01796163,0.91791215,0.08839822,0.38679782,0.00323858
1761621733265,-0.01195287,-0.04761963,-0.08043804,-0.00423713,0.02352202,-0.00365211,0.91786136,0.08837555,0.38692367,0.00321904
1761621733277,-0.03092957,-0.04840592,-0.06027172,0.01088922,0.02024378,-0.00012810,0.91780529,0.08843925,0.38704209,0.00321829
1761621733288,-0.04424509,0.00140885,0.05702299,0.02995834,0.04554865,-0.00202029,0.91768265,0.08860552,0.38729489,0.00320708
1761621733300,-0.01845436,-0.01031506,0.00260672,0.03362038,0.04995423,-0.00735236,0.91753432,0.08881061,0.38759961,0.00316223
1761621733311,-0.09082197,0.02486702,0.16221596,0.04105713,0.08774206,0.00586330,0.91731859,0.08902616,0.38806025,0.00319301
1761621733322,-0.09153965,0.05156543,0.21776855,0.04945181,0.09773242,0.00257429,0.91706682,0.08929567,0.38859290,0.00320704
1761621733333,-0.05943512,-0.02514012,0.02403682,0.02001556,0.13002520,-0.00449703,0.91673853,0.08941076,0.38934054,0.00318118
1761621733345,-0.08294408,-0.01692133,0.06937401,0.00863427,0.13045353,-0.00977868,0.91642058,0.08945954,0.39007760,0.00312594
1761621733355,-0.17127859,-0.02313370,0.16887351,0.00269064,0.16369169,-0.01182660,0.91607766,0.08947273,0.39087969,0.00306799
1761621733368,0.06227439,-0.04941867,-0.17806015,-0.00019367,0.12661574,-0.02144854,0.91572394,0.08947146,0.39170903,0.00292750
1761621733379,-0.10434573,0.01852695,0.17166904,0.03699661,0.13987244,-0.03217308,0.91535607,0.08968604,0.39252029,0.00274089
1761621733390,0.06328420,0.03880081,0.00268947,0.04162031,0.16644656,-0.01937512,0.91495971,0.08990455,0.39339413,0.00263917
1761621733399,-0.10867073,0.13707853,0.42440715,0.08191163,0.18973465,-0.04320757,0.91455637,0.09027315,0.39424794,0.00244474
1761621733412,0.15573046,-0.01249226,-0.21952372,0.05567958,0.13605124,-0.00722534,0.91414217,0.09063228,0.39512547,0.00239814
1761621733424,-0.05207271,0.01344555,0.09814512,0.01871256,0.14556311,-0.00140698,0.91374980,0.09074549,0.39600612,0.00238962
1761621733435,-0.07602879,-0.02985526,0.03848686,0.00477313,0.14241082,-0.01595616,0.91340133,0.09077222,0.39680362,0.00230027
1761621733451,0.10102794,-0.06675344,-0.26661819,0.00020500,0.09083400,-0.01789181,0.91308944,0.09077384,0.39752121,0.00215892
1761621733456,-1.67145948,0.28167250,2.74910108,-0.01769653,0.27623204,-0.07850976,0.91279333,0.09072960,0.39821179,0.00196265
1761621733465,0.74185179,-0.17007783,-1.31019705,0.00169468,0.13881573,-0.04694095,0.91250200,0.09073773,0.39887811,0.00173733
1761621733476,0.08517714,0.00365615,-0.09918131,0.00316081,0.10053136,-0.04318041,0.91226765,0.09075449,0.39941093,0.00150848
1761621733487,0.11073285,0.03233340,-0.07392375,0.04038416,0.09362052,-0.05302503,0.91202034,0.09097660,0.39992584,0.00121684
1761621733498,0.09948840,0.05761209,-0.00584888,0.04990609,0.08697765,-0.03689438,0.91178108,0.09125358,0.40040856,0.00101208
1761621733510,0.07284708,0.05989608,0.03288339,0.04902053,0.05046923,-0.02247875,0.91162140,0.09154280,0.40070633,0.00087945
1761621733521,0.06080546,0.01362068,-0.04832686,0.02866788,0.05186933,-0.02200105,0.91147764,0.09170334,0.40099680,0.00075625
1761621733532,0.01130741,-0.02817243,-0.07402040,0.01633334,0.03284460,0.00279278,0.91138506,0.09179726,0.40118566,0.00077230
1761621733543,0.01582746,-0.02235124,-0.06712617,0.00458629,0.02570959,-0.01125098,0.91132032,0.09182248,0.40132706,0.00071042
1761621733555,-0.04124201,-0.07299090,-0.10177968,-0.00164385,0.03222985,-0.00259078,0.91124035,0.09181311,0.40151077,0.00069566
1761621733566,0.01484842,-0.02530931,-0.07289484,0.00923833,0.01789590,-0.02677237,0.91119019,0.09186577,0.40161278,0.00054305
1761621733577,0.07172374,0.02196823,-0.04759500,0.03489791,0.01668496,-0.05185724,0.91113212,0.09205247,0.40170204,0.00026562
1761621733588,0.10358048,0.05436628,-0.01867692,0.05120144,0.01160148,-0.04427888,0.91107347,0.09234432,0.40176817,0.00001323
1761621733599,0.11291783,0.06912184,-0.00103705,0.03927554,0.02227224,-0.03162078,0.91099750,0.09256034,0.40189067,-0.00016069
1761621733613,-0.03532623,-0.01158568,0.02298372,0.00489447,0.02899991,-0.01899798,0.91091039,0.09259240,0.40208062,-0.00028512
1761621733622,-0.03789459,-0.01474997,0.01788464,0.00068237,0.03221963,-0.00817896,0.91084248,0.09259564,0.40223366,-0.00032397
1761621733633,-0.10581429,-0.08267484,-0.03811620,-0.01985572,0.03709035,0.00743441,0.91076276,0.09248544,0.40243951,-0.00028271
1761621733644,-0.08649975,-0.11883534,-0.14192484,-0.04994865,0.02735895,0.00386605,0.91072447,0.09221322,0.40258862,-0.00026164
1761621733656,-0.15235906,-0.10932717,-0.03523535,-0.05095190,0.02637572,0.02840298,0.91068674,0.09191770,0.40274160,-0.00009691
1761621733667,-0.10740758,-0.10397676,-0.08189906,-0.05068142,0.02395063,0.02707607,0.91065657,0.09163895,0.40287332,0.00005201
1761621733678,-0.06948592,-0.07539794,-0.07086781,-0.05787662,0.02735865,0.01960823,0.91062163,0.09131773,0.40302517,0.00016084
1761621733689,0.01034047,-0.01176909,-0.03747664,-0.02770269,0.00989131,-0.00960052,0.91061275,0.09116398,0.40308006,0.00010756
1761621733700,0.09103518,0.05864942,0.00573154,0.00304093,0.02476897,-0.00138401,0.91054738,0.09118162,0.40322372,0.00009953
1761621733711,0.03463401,0.07959195,0.12560939,0.01208642,0.03315956,0.00391721,0.91045914,0.09124870,0.40340776,0.00012127
1761621733723,0.02119494,0.06403457,0.11087281,0.01571369,0.04726056,0.00879634,0.91033412,0.09133591,0.40367005,0.00017009
1761621733734,-0.03645497,0.02708686,0.10681277,-0.00468132,0.04487550,0.02391695,0.91022524,0.09130970,0.40392136,0.00030402
1761621733745,0.00463023,-0.00951260,-0.02728932,-0.03058853,0.03755992,0.02399156,0.91014558,0.09113075,0.40414108,0.00044437
1761621733757,-0.12964428,-0.07858724,0.00325960,-0.04576853,0.03325490,0.04290216,0.91008886,0.09087674,0.40432565,0.00068248
1761621733768,-0.07147623,-0.07485880,-0.06508147,-0.04785773,0.03417486,0.03587213,0.91003088,0.09061113,0.40451532,0.00088157
1761621733779,-0.01477095,-0.04109089,-0.06780372,-0.03219755,0.02235918,0.02598348,0.90999232,0.09042760,0.40464276,0.00102968
1761621733790,-0.01233024,-0.01227702,-0.01021683,-0.00667891,0.03643860,0.01200882,0.90990908,0.09039187,0.40483771,0.00109392
1761621733801,0.14148244,0.09424291,0.01520780,0.03004648,0.01885703,-0.00734614,0.90984427,0.09056313,0.40494520,0.00105205
1761621733813,0.08565072,0.10784810,0.11903099,0.02858583,0.03662682,-0.01117920,0.90973516,0.09072607,0.40515397,0.00098833
1761621733823,0.06985760,0.09020790,0.10017971,0.02511854,0.03110610,0.00025382,0.90964680,0.09086171,0.40532194,0.00098970
1761621733835,0.03212165,0.02881404,0.01988201,0.00259467,0.03766542,0.01291463,0.90955039,0.09087637,0.40553475,0.00106267
1761621733846,0.00967326,-0.02444897,-0.06509608,-0.02745887,0.02435758,0.00720993,0.90950406,0.09071986,0.40567359,0.00110377
1761621733857,-0.06822515,-0.05947711,-0.03740522,-0.02208913,0.02361371,0.00761926,0.90945817,0.09059837,0.40580347,0.00114567
1761621733868,-0.01195507,-0.04091053,-0.07234832,-0.01615922,0.01223186,0.00980682,0.90943771,0.09051272,0.40586829,0.00119765
1761621733879,0.01457510,-0.02475907,-0.07241961,-0.01954791,0.00166321,0.00563979,0.90944457,0.09040032,0.40587786,0.00123008
1761621733890,0.00410622,-0.02099629,-0.05045955,-0.01276104,0.00112182,0.01911624,0.90944868,0.09032950,0.40588408,0.00133617
1761621733902,0.01461832,-0.00515126,-0.03075666,0.00442741,-0.00192225,0.02379364,0.90945086,0.09035474,0.40587313,0.00147179
1761621733913,0.02051305,0.04415795,0.06784004,0.00982533,0.00166324,0.00416948,0.90944128,0.09040927,0.40588236,0.00149494
1761621733924,0.05668787,0.04751810,0.02554726,0.01326506,-0.00302675,0.00386156,0.90944142,0.09048222,0.40586571,0.00151617
1761621733935,0.03122865,0.01478142,-0.00938571,-0.00453730,-0.00454788,0.00735426,0.90945574,0.09045591,0.40583933,0.00155883
1761621733946,0.02662258,-0.01736658,-0.07290367,-0.01841691,0.00194789,-0.00385726,0.90946101,0.09035554,0.40584995,0.00153781
1761621733957,-0.02065154,0.00152473,0.03080477,0.00377485,-0.00012384,0.00677132,0.90945917,0.09037649,0.40584926,0.00157539
1761621733968,0.01220295,0.01003065,0.00498023,-0.00156520,0.00591408,-0.00121996,0.90944552,0.09036788,0.40588179,0.00156868
1761621733980,-0.01913784,-0.02101774,-0.01965995,-0.02517768,0.01063856,0.00496924,0.90943300,0.09022814,0.40594083,0.00159626
1761621733991,-0.04005694,-0.02570223,-0.00171815,-0.00514178,0.00978361,0.01330013,0.90941068,0.09019858,0.40599709,0.00167273
1761621734002,0.01320622,0.01788964,0.02193272,0.00872020,0.01340275,0.00128534,0.90937231,0.09024741,0.40607214,0.00167993
1761621734013,-0.00459559,0.04288561,0.09790048,0.02045438,0.02076021,0.00375503,0.90931010,0.09035991,0.40618633,0.00170058
1761621734025,0.00783129,0.02130431,0.03597530,0.01678092,0.00255522,0.01744779,0.90929276,0.09046227,0.40620191,0.00180701
1761621734036,0.00412110,0.00351976,0.00143016,0.01163721,-0.00189696,0.01882852,0.90929087,0.09052511,0.40619167,0.00190869
1761621734046,0.01090701,-0.00763520,-0.02962078,0.00215217,-0.00349809,0.01616717,0.90929757,0.09053609,0.40617383,0.00199114
1761621734057,-0.03946921,-0.03620287,-0.02629180,-0.00898093,0.00212954,0.02294086,0.90929698,0.09048714,0.40618543,0.00211617
1761621734069,-0.02411814,-0.03395257,-0.04106359,-0.02010126,0.00614067,0.01135372,0.90929266,0.09037458,0.40621982,0.00217975
1761621734080,-0.00833893,-0.02672803,-0.04495475,-0.01741619,0.00959261,0.00497410,0.90927802,0.09027530,0.40627450,0.00220810
1761621734092,0.02270702,-0.00177557,-0.03563809,-0.01718658,0.00107225,-0.00486742,0.90928520,0.09017562,0.40628072,0.00217987
1761621734104,0.05386376,0.00891004,-0.05344227,-0.00439639,-0.00278482,-0.01648375,0.90929586,0.09014836,0.40626345,0.00207767
1761621734116,0.08112276,0.07457243,0.05181054,0.02488720,-0.01010946,-0.02050269,0.90930904,0.09030515,0.40619976,0.00194851
1761621734124,0.11496646,0.09750110,0.05642964,0.07348373,-0.02601400,-0.03776599,0.90932637,0.09059541,0.40609701,0.00179933
1761621734137,0.09891886,0.08232706,0.04335997,0.02641007,-0.02598411,-0.01424877,0.90938170,0.09075784,0.40593721,0.00171170
1761621734150,0.02622337,0.00394626,-0.02567351,0.01092088,-0.01930854,-0.01080326,0.90943188,0.09083046,0.40580880,0.00163986
1761621734160,-0.03890979,-0.03000115,-0.01393826,0.00597675,-0.02793216,-0.00869551,0.90949069,0.09086004,0.40567054,0.00159682
1761621734173,-0.05637384,-0.05748095,-0.04670408,-0.02236349,-0.02989445,-0.00732939,0.90959271,0.09071356,0.40547473,0.00154881
1761621734235,-0.01710658,-0.01366833,-0.00660869,-0.01444829,-0.01412610,-0.00375402,0.90983253,0.09026567,0.40503682,0.00143243
1761621734245,0.98526454,-0.47726972,-2.34780574,-0.08190660,-0.19850795,-0.02170604,0.91029517,0.08987251,0.40408398,0.00132824
1761621734268,-0.32881872,0.16992469,0.80744614,-0.01181254,-0.06794853,-0.02412420,0.91066635,0.08973254,0.40327879,0.00104237
1761621734293,0.01219184,0.02276323,0.03331230,0.00731409,-0.05649139,-0.00305805,0.91096370,0.08982213,0.40258677,0.00100491
1761621734307,0.17352772,0.05714512,-0.10696287,0.03278256,-0.09093249,-0.00114051,0.91122763,0.09005653,0.40193661,0.00099676
1761621734323,-0.08526130,0.00889362,0.13217255,0.02362548,-0.08141536,0.00269851,0.91148923,0.09024081,0.40130157,0.00101781
1761621734335,0.03055854,0.00528784,-0.02795033,-0.00220430,-0.11540916,0.02578091,0.91181017,0.09022692,0.40057449,0.00118022
1761621734347,0.02023200,-0.02978552,-0.08967867,-0.01549933,-0.12848381,0.00710353,0.91214602,0.09013702,0.39982928,0.00122143
1761621734358,0.00280224,-0.01875148,-0.04143511,0.01350340,-0.13160216,0.00138560,0.91246685,0.09021399,0.39907915,0.00122932
1761621734373,0.02358685,-0.00320335,-0.03719973,-0.00013082,-0.12516181,-0.00925443,0.91286883,0.09021303,0.39815921,0.00116130
1761621734392,-0.04861985,-0.00099916,0.06241385,0.01957485,-0.10591726,-0.00444229,0.91327988,0.09039508,0.39717418,0.00111999
1761621734394,16.12354738,2.65755590,-15.31258855,0.24778709,-0.92724030,0.08407168,0.91371452,0.09068003,0.39610785,0.00121667
1761621734405,-3.04474724,-0.46401787,2.97555761,0.02113382,-0.17368420,0.03233414,0.91411261,0.09079521,0.39516128,0.00139289
1761621734416,0.03255652,0.00059713,-0.03828807,0.01595955,-0.18822379,0.02560161,0.91457433,0.09088778,0.39406958,0.00154138
1761621734435,-0.15421460,-0.04222921,0.11146674,-0.00217146,-0.10915234,0.03234199,0.91501485,0.09086748,0.39304900,0.00184378
1761621734439,4.35674430,0.00523125,-5.55645863,-0.12422097,-0.54969654,0.16491666,0.91548550,0.09063146,0.39200458,0.00215712
1761621734537,-0.21564054,-0.00811148,0.25889300,-0.00350387,-0.01924834,0.00541495,0.91590466,0.09045994,0.39106237,0.00242218
1761621734559,0.86471364,-0.27773085,-1.65739072,-0.08154977,-0.53139615,0.15876406,0.91847161,0.08955882,0.38519045,0.00417653
1761621734602,-0.40046940,0.09631576,0.70396553,-0.01224069,-0.07904791,0.01957951,0.91920951,0.08929442,0.38348301,0.00459944
1761621734616,0.03161299,-0.07275059,-0.18247084,-0.06140337,-0.11132066,0.07232032,0.91958356,0.08885231,0.38268150,0.00512015
1761621734655,-0.08326826,0.03629606,0.17547032,-0.01095151,-0.03058610,0.02282456,0.91984955,0.08863876,0.38208507,0.00556523
1761621734668,0.03564290,-0.13267526,-0.30944683,0.00789659,-0.10143880,0.01290403,0.92010327,0.08868732,0.38146123,0.00564459
1761621734721,0.01047621,0.05994318,0.10789417,0.00522194,-0.02217360,-0.00815641,0.92033462,0.08882570,0.38087362,0.00542844
1761621734730,1.38375577,-0.03227474,-1.73466196,-0.14338723,-0.32552305,-0.03813001,0.92101728,0.08816612,0.37937622,0.00525305
1761621734765,-0.31844731,-0.00616357,0.37269439,-0.01759157,-0.05791375,0.00230885,0.92146199,0.08785915,0.37836562,0.00529334
1761621734796,0.01683665,0.00343028,-0.01269058,0.00376696,-0.05636887,-0.00390541,0.92181960,0.08791829,0.37748063,0.00523202
1761621734803,1.89723835,-0.10945214,-2.46990880,-0.04638872,-0.21765446,0.00070422,0.92210930,0.08777449,0.37680590,0.00523420
1761621734829,-0.44760689,0.03606480,0.60444032,-0.00183329,-0.05153994,-0.00975857,0.92239003,0.08775029,0.37612558,0.00510539
1761621734838,0.33814944,0.05276598,-0.29394113,0.05789907,-0.08189368,-0.03421155,0.92252324,0.08802531,0.37573658,0.00494289
1761621734866,-0.11657937,0.01617118,0.16970501,0.02174937,-0.03086490,0.00033912,0.92267052,0.08833089,0.37530293,0.00494765
1761621734871,2.41934533,0.95445208,-0.96019307,0.08420876,-0.13675434,-0.01928196,0.92277531,0.08851615,0.37500207,0.00490523
1761621734889,-0.58245813,-0.20132710,0.28757799,0.01989017,-0.02688545,-0.00344459,0.92285659,0.08869516,0.37476010,0.00487423
1761621734923,-0.04477243,-0.01996297,0.01339206,-0.00950713,-0.01041995,-0.00548593,0.92294554,0.08853163,0.37458088,0.00477987
1761621734944,0.16913262,-0.00370526,-0.20444660,-0.03174339,-0.05378628,-0.01620969,0.92320482,0.08820150,0.37402150,0.00461129
1761621734967,-0.11700535,-0.01405301,0.10906123,0.01045367,-0.02148573,-0.00493109,0.92329484,0.08832329,0.37377119,0.00455384
1761621734978,0.05520703,0.02219977,-0.01945604,-0.01751667,-0.01610669,0.01636982,0.92333702,0.08823220,0.37368744,0.00463897
1761621735010,-0.06942048,-0.01472188,0.05162215,-0.00760360,-0.00474815,0.00920351,0.92337915,0.08810902,0.37361052,0.00478806
1761621735050,-0.01477451,-0.01090609,-0.00411281,-0.00921967,-0.00151292,0.00190188,0.92340870,0.08792509,0.37358033,0.00482601
1761621735078,0.04389438,0.04246434,0.03206683,0.05699259,-0.00512927,-0.03624335,0.92336426,0.08871729,0.37350904,0.00432222
1761621735089,0.12269368,0.10126315,0.05670703,-0.08178114,0.00252112,0.05204333,0.92340201,0.08824705,0.37352353,0.00462147
1761621735123,-0.09638555,-0.09231058,-0.06909643,-0.04657996,-0.01354896,-0.00483976,0.92356741,0.08747149,0.37329794,0.00454089
1761621735145,0.02165035,0.00802711,-0.00934392,0.00094528,-0.01034511,0.00428079,0.92361300,0.08748208,0.37318208,0.00458884
1761621735157,0.08423850,0.00721573,-0.08252183,0.01256796,-0.02844720,-0.00466476,0.92367493,0.08755748,0.37301140,0.00456085
1761621735177,-0.01657927,0.04436926,0.10539998,0.00970289,-0.00643829,-0.00407875,0.92369218,0.08765597,0.37294605,0.00451945
1761621735190,0.03876079,0.01397645,-0.01705738,0.00072733,-0.01585572,-0.00724744,0.92373166,0.08766048,0.37284774,0.00447451
1761621735249,-0.01321682,-0.00146099,0.01236388,-0.00182250,-0.00473494,-0.00095133,0.92379389,0.08760617,0.37270664,0.00444616
1761621735281,0.08136005,-0.02640401,-0.14485299,-0.03080190,-0.05814808,-0.01861046,0.92421272,0.08711796,0.37178499,0.00415119
1761621735293,0.20201108,0.10143528,-0.03395216,0.04015981,-0.02198683,-0.03172712,0.92424413,0.08736092,0.37165197,0.00395924
1761621735346,-0.08615435,-0.00651783,0.08622864,-0.01669004,-0.00303623,0.00850985,0.92431704,0.08691947,0.37157166,0.00418432
1761621735370,-0.05963842,-0.05117746,-0.03095844,-0.00674487,-0.00333444,0.00256478,0.92434020,0.08683988,0.37153232,0.00421459
1761621735380,0.04724732,-0.00565467,-0.06538822,-0.00703379,0.00203926,-0.00962563,0.92433963,0.08680507,0.37154241,0.00416694
1761621735403,0.02803718,0.04862887,0.06237781,0.00285654,-0.00780397,-0.02320667,0.92437467,0.08683877,0.37145033,0.00389310
1761621735435,0.01102645,0.00007243,-0.01237967,-0.01897183,-0.00724003,-0.00924912,0.92445076,0.08653333,0.37133376,0.00374419
1761621735444,0.07017280,-0.11945746,-0.31216955,-0.04395173,-0.02796060,-0.00619486,0.92451912,0.08633774,0.37120934,0.00371663
1761621735469,-0.02855048,0.02488568,0.08118085,-0.00494977,-0.01360302,-0.02197985,0.92459272,0.08627711,0.37104270,0.00344737
1761621735480,0.14954033,0.04109919,-0.09028891,0.03477937,-0.02745819,-0.03805922,0.92463738,0.08647361,0.37088756,0.00323234
1761621735503,-0.03587975,0.02004797,0.07928474,0.00474169,-0.00677198,-0.01662872,0.92466416,0.08652814,0.37080968,0.00304111
1761621735513,0.35125762,0.13746868,-0.13252963,-0.00010369,0.00394776,-0.03844132,0.92465691,0.08652762,0.37082942,0.00284890
1761621735525,-0.17909576,-0.04619251,0.11382259,0.01048365,0.00674803,-0.01934100,0.92463477,0.08659157,0.37087058,0.00273092
1761621735548,-0.06709801,-0.01728313,0.04273769,0.02638367,-0.00132511,-0.01049549,0.92461439,0.08687256,0.37085647,0.00261914
1761621735557,0.14410589,0.15286000,0.13164889,0.07031591,0.00772269,-0.01330567,0.92456308,0.08724523,0.37089740,0.00254862
1761621735581,-0.09028332,-0.06370791,-0.02039215,-0.00039196,0.00348856,0.01561899,0.92454634,0.08724057,0.37093892,0.00273449
1761621735612,-0.02256464,-0.00929807,0.00742436,0.00195288,0.00713253,0.00340955,0.92449819,0.08727133,0.37105125,0.00278819
1761621735664,0.00455346,-0.00319991,-0.01125500,-0.00115933,-0.00806600,-0.01020482,0.92458476,0.08724159,0.37084436,0.00252644
1761621735699,0.03335795,-0.04820549,-0.13069961,-0.05596533,-0.05489384,-0.01069537,0.92506047,0.08626499,0.36988646,0.00233980
1761621735718,0.04260735,-0.05049015,-0.14402578,-0.02509823,-0.03626890,0.01017198,0.92522516,0.08601903,0.36953103,0.00243949
1761621735752,-0.06762407,0.01538732,0.10586765,-0.03647336,-0.01254155,0.01220497,0.92536756,0.08539716,0.36931719,0.00264758
1761621735769,-0.02333685,-0.06228370,-0.09238250,-0.04496887,-0.04173940,-0.00173681,0.92554431,0.08501493,0.36896241,0.00263282
1761621735793,0.03509770,0.05588210,0.06776915,-0.00933389,-0.03002227,-0.01342311,0.92569921,0.08490245,0.36860064,0.00247107
1761621735806,0.06085242,-0.00530777,-0.07735371,-0.03977119,-0.04005108,-0.01088914,0.92582277,0.08465189,0.36834832,0.00240247
1761621735827,-0.02505612,0.02515221,0.07593345,-0.02955084,-0.01502240,0.00673589,0.92591407,0.08434013,0.36818983,0.00247353
1761621735831,0.35531475,-1.08021239,-2.44607539,-0.08725072,-0.08993869,0.01553920,0.92600356,0.08416127,0.36800546,0.00250539
1761621735850,-0.09562634,0.21560815,0.51604126,-0.01109493,0.00232283,0.00034962,0.92600436,0.08405476,0.36802776,0.00250874
1761621735865,-0.01060289,-0.01432195,-0.01529544,0.00355528,0.00926808,0.00223622,0.92597587,0.08408000,0.36809356,0.00252462
1761621735869,-0.09557054,-0.36290909,-0.57553875,0.05055058,0.03717985,0.01658353,0.92593412,0.08418868,0.36817350,0.00256028
1761621735878,-0.04218860,0.28472264,0.58303561,0.02915720,0.04189568,-0.00359382,0.92584820,0.08431843,0.36835993,0.00254428
1761621735895,0.01227929,0.03267958,0.04838096,0.01653325,0.01895009,0.00318435,0.92577166,0.08445814,0.36852006,0.00257119
1761621735919,0.00313475,0.00206522,0.00041199,0.00508272,0.01988153,-0.00524776,0.92566959,0.08452015,0.36876262,0.00250717
1761621735922,-2.72887630,0.15976837,3.32788391,-0.21897850,0.09736181,-0.06335771,0.92564439,0.08422453,0.36889406,0.00242164
1761621735944,0.32144832,-0.04019580,-0.43231533,-0.00620313,0.00583984,-0.00653679,0.92562492,0.08415536,0.36895917,0.00234875
1761621735971,0.01305484,0.00670447,-0.00194504,0.00436629,0.00660963,-0.00702189,0.92558452,0.08421387,0.36904774,0.00225466
1761621735993,0.02250890,0.05301361,0.07554598,0.06479511,0.04112272,-0.02207162,0.92533945,0.08492662,0.36950009,0.00201187
1761621735995,0.78047654,7.59650323,13.53712051,0.31078467,0.47287098,-0.14071061,0.92507870,0.08529956,0.37006753,0.00184302
1761621736038,-0.05406654,-0.43616226,-0.76683855,-0.00740584,0.02482289,-0.01609857,0.92488402,0.08514329,0.37059130,0.00150334
1761621736049,0.00342077,0.35703488,0.67691170,0.09294202,0.12546480,-0.10820283,0.92456078,0.08565448,0.37128135,0.00090822
1761621736079,0.00277828,-0.11778689,-0.22731282,-0.01260827,0.02713147,0.00152939,0.92441181,0.08546157,0.37169646,0.00093162
1761621736090,-0.13085761,-0.04436113,0.06187711,-0.00799517,0.02456431,-0.00752025,0.92436340,0.08541919,0.37182666,0.00089176
1761621736103,0.07445716,-0.01856706,-0.11909142,-0.02558614,0.01255727,-0.06754363,0.92434531,0.08524393,0.37191267,0.00042909
1761621736125,0.02760172,-0.02244385,-0.07370259,-0.03272257,-0.00073743,-0.00739973,0.92438024,0.08489871,0.37190489,0.00035102
1761621736136,0.00231909,-0.06965384,-0.13614529,-0.03951179,-0.00167392,-0.00684586,0.92440411,0.08467942,0.37189560,0.00031303
1761621736148,-0.02651106,-0.02581452,-0.01964090,-0.04536692,0.00625339,-0.00859039,0.92441425,0.08439814,0.37193437,0.00025977
1761621736158,-0.04194107,-0.10377514,-0.15061363,-0.05353053,0.02536532,-0.02464733,0.92438870,0.08414119,0.37205613,0.00014146
1761621736170,0.00679736,0.02788875,0.04580943,-0.05759868,0.01620421,-0.02366186,0.92438097,0.08379560,0.37215335,-0.00000051
1761621736181,0.00877353,-0.00989341,-0.02873978,-0.04472027,0.00134024,-0.05186000,0.92440040,0.08354741,0.37216079,-0.00028833
1761621736191,0.03368364,-0.02923083,-0.09292795,-0.04978072,0.00147457,-0.05260396,0.92442093,0.08328357,0.37216861,-0.00056713
1761621736202,0.07434421,0.04245747,-0.00112683,-0.02415785,0.01498410,-0.08115737,0.92439893,0.08314828,0.37225252,-0.00102162
1761621736225,-0.00205122,0.05591591,0.10849606,-0.00668218,0.01593444,-0.05703389,0.92433403,0.08307478,0.37242780,-0.00164899
1761621736237,0.42989178,0.10560741,-0.27728426,0.01998311,0.06906513,-0.18970606,0.92415193,0.08319568,0.37284564,-0.00279671
1761621736247,-0.07797316,0.09861706,0.27544239,-0.01362203,0.06079473,-0.12310469,0.92403092,0.08312621,0.37315569,-0.00342454
1761621736260,-0.07345268,-0.02547213,0.03330479,-0.05621525,0.04158486,-0.05289413,0.92395258,0.08275800,0.37342807,-0.00377100
1761621736269,-0.04665407,-0.06311230,-0.06699327,-0.06924797,0.07134106,-0.06700875,0.92384245,0.08242560,0.37377051,-0.00409264
1761621736281,-0.17015299,-0.08026833,0.03621081,-0.04386843,0.06168673,-0.02809873,0.92372061,0.08217336,0.37412521,-0.00425421
1761621736291,-0.08357907,-0.01485680,0.06431041,0.02798295,0.06287620,-0.01987651,0.92357608,0.08231747,0.37444902,-0.00435657
1761621736302,-0.08218943,0.00396468,0.09806557,-0.01564584,0.04777883,-0.01872267,0.92347758,0.08223220,0.37470942,-0.00445861
1761621736314,-0.06576098,-0.00542425,0.06236169,-0.01945912,0.05585927,0.00864886,0.92335425,0.08211740,0.37503899,-0.00440758
1761621736336,-0.00712049,-0.00133348,0.00524751,-0.00103170,0.03003131,0.01344646,0.92322110,0.08210599,0.37537083,-0.00425900
1761621736347,-0.45426182,-0.11790775,0.27945911,-0.01026214,0.10392793,0.02988212,0.92298806,0.08204801,0.37595802,-0.00409017
1761621736359,0.15470275,0.06101161,-0.05540229,-0.00870788,0.05100418,0.01332906,0.92287733,0.08199968,0.37624110,-0.00401619
1761621736370,0.03808474,-0.01056566,-0.06213510,-0.03480797,0.01883100,0.03316082,0.92285086,0.08179258,0.37635314,-0.00381888
1761621736380,-0.09201097,-0.08809874,-0.06331968,-0.04321095,0.02113772,0.02508659,0.92282832,0.08158516,0.37645460,-0.00369847
1761621736417,0.09144802,0.03178846,-0.04131676,-0.02111509,0.00018309,0.00951408,0.92286163,0.08119981,0.37645795,-0.00352484
1761621736436,-0.21644505,-0.16306727,-0.06808808,-0.00624914,-0.01200650,0.00538053,0.92291465,0.08113920,0.37634148,-0.00347265
1761621736458,0.23005076,0.12047754,-0.02760803,-0.02926715,-0.06999670,-0.00170094,0.92326262,0.08081141,0.37555752,-0.00349170
1761621736468,0.15534526,-0.11985676,-0.39868184,-0.07905983,-0.11973308,0.02609098,0.92354369,0.08041215,0.37495287,-0.00335994
1761621736482,0.06934742,-0.02158717,-0.11677325,-0.04269249,-0.14137921,0.00752832,0.92396797,0.08011544,0.37397028,-0.00330761
1761621736503,-0.03214055,0.07034593,0.16839167,-0.01464348,-0.07370369,0.00310476,0.92428338,0.07996681,0.37322219,-0.00327610
1761621736513,0.21928102,-0.11641329,-0.45835964,-0.03257558,-0.13527093,0.05906507,0.92459140,0.07979253,0.37249849,-0.00296010
1761621736525,-0.07577629,0.05045789,0.17911376,-0.01630027,-0.10863047,0.03146256,0.92486726,0.07969310,0.37183584,-0.00276818
1761621736537,0.07160118,-0.03727634,-0.14687314,-0.01593125,-0.13789996,0.02004011,0.92517970,0.07960548,0.37107739,-0.00265796
1761621736547,-0.01821839,0.04945973,0.11427420,-0.00010681,-0.12637713,0.03932648,0.92545122,0.07960491,0.37040128,-0.00244756
1761621736559,0.02495602,0.01476435,0.00133037,-0.01214247,-0.11733293,0.03159499,0.92572743,0.07953509,0.36972661,-0.00226589
1761621736570,-0.02904177,0.02333060,0.07625226,-0.01171011,-0.11197514,0.03396693,0.92599056,0.07946775,0.36908275,-0.00207058
1761621736581,0.03322020,-0.00922257,-0.05159022,0.00038690,-0.10928573,0.02991993,0.92623443,0.07946992,0.36847075,-0.00190303
1761621736593,0.00396543,0.03892430,0.06887825,0.03017628,-0.10773251,0.01932652,0.92646996,0.07964645,0.36784052,-0.00178997
1761621736603,0.16752128,0.04043820,-0.10478859,0.03833823,-0.12062470,0.02294616,0.92669737,0.07984198,0.36722533,-0.00167295
1761621736614,-0.07596677,0.06924373,0.21165348,0.04347273,-0.09130578,0.00429268,0.92687401,0.08007890,0.36672772,-0.00164955
1761621736625,-0.03718844,0.04995185,0.13224710,0.06079726,-0.08555218,0.02409924,0.92703418,0.08041937,0.36624862,-0.00151460
1761621736637,0.00727721,0.04955726,0.08429304,0.05681565,-0.07739545,0.01630242,0.92717907,0.08074038,0.36581134,-0.00142249
1761621736648,0.08757708,0.08092619,0.05609996,0.06517405,-0.09478803,0.00986485,0.92735181,0.08109557,0.36529475,-0.00136872
1761621736659,-0.05732901,0.00429111,0.07004110,0.04462806,-0.08004231,0.01694726,0.92750926,0.08134995,0.36483850,-0.00127212
1761621736671,0.03340552,0.02215621,0.00572334,0.01161266,-0.07996583,0.04675445,0.92768903,0.08141847,0.36436671,-0.00099627
1761621736681,0.05879839,0.00550716,-0.05152572,0.04222463,-0.09604757,0.06552050,0.92785416,0.08162326,0.36390088,-0.00067850
1761621736691,-0.20872862,-0.07998345,0.07572080,0.05990457,-0.06010041,0.04321549,0.92795483,0.08195273,0.36357032,-0.00044081
1761621736703,-0.04924541,0.02664512,0.10185450,0.11522417,-0.03556277,0.02114957,0.92797568,0.08259799,0.36337117,-0.00032238
1761621736714,-0.02121871,0.03648361,0.09035274,0.08995606,-0.04614708,0.01276022,0.92803238,0.08310624,0.36311044,-0.00025028
1761621736717,3.99885053,4.50878150,4.07120170,0.44056424,-0.14526265,0.04631593,0.92805650,0.08372303,0.36290707,-0.00018544
1761621736727,-0.96494966,-1.00087753,-0.82052399,0.10372123,-0.02801850,0.00098589,0.92806458,0.08425719,0.36276278,-0.00018036
1761621736749,-0.08458745,-0.10104283,-0.09620626,0.05205110,-0.02417786,-0.00761754,0.92811632,0.08482976,0.36249682,-0.00026415
1761621736759,0.48757615,0.55214136,0.50539997,0.07452041,-0.03180601,-0.05225686,0.92814417,0.08520236,0.36233779,-0.00052544
1761621736771,-0.20115792,-0.29258576,-0.32660353,0.00175215,-0.03606600,-0.01575091,0.92822482,0.08521252,0.36212861,-0.00061679
1761621736784,-0.07136203,-0.09905052,-0.10710313,0.03819909,-0.02067138,-0.01538434,0.92825478,0.08546463,0.36199218,-0.00071833
1761621736794,0.24123474,0.20912384,0.13268701,0.08532982,-0.02914756,-0.01216063,0.92827149,0.08587422,0.36185227,-0.00077670
1761621736805,-0.15816813,-0.13473035,-0.08091033,0.05533351,-0.02999492,0.00686961,0.92830728,0.08617579,0.36168880,-0.00073926
1761621736816,-0.02994704,-0.03387815,-0.03097713,0.03234813,-0.03442258,-0.02069846,0.92836698,0.08636179,0.36149087,-0.00085828
1761621736827,0.06274165,0.02165555,-0.02544642,-0.00153078,-0.05275402,0.00527519,0.92848175,0.08635329,0.36119808,-0.00082900
1761621736847,-0.12816484,-0.11774338,-0.08351568,-0.01185431,-0.02628106,0.00438471,0.92859500,0.08623475,0.36093527,-0.00078515
1761621736858,0.28529983,0.03214932,-0.24350225,-0.07541627,-0.09248011,0.01584649,0.92882889,0.08582373,0.36043125,-0.00069879
1761621736870,-0.23303627,-0.15527555,-0.04240690,-0.00495805,-0.05403835,-0.00992158,0.92895841,0.08579373,0.36010432,-0.00075882
1761621736873,2.95808233,-0.04390750,-3.21199900,0.07111387,-0.21505177,-0.11622663,0.92907338,0.08590040,0.35978175,-0.00093316
1761621736893,-0.46412771,0.02889079,0.54550978,0.02092856,-0.02669730,-0.01876912,0.92915714,0.08610969,0.35951477,-0.00112085
1761621736904,0.18826676,0.07012688,-0.06801463,0.03740630,-0.04267778,-0.03257110,0.92923056,0.08632104,0.35927364,-0.00130487
1761621736917,0.03071933,0.03744401,0.03831908,0.00782078,-0.01535174,-0.01380508,0.92926272,0.08636952,0.35917846,-0.00139046
1761621736928,-0.02640787,-0.01115653,0.00762503,-0.02452598,-0.00797415,0.00098649,0.92929167,0.08623708,0.35913540,-0.00138514
1761621736949,-0.10841355,-0.04666321,0.02714070,-0.01741436,-0.00008130,-0.00552152,0.92930886,0.08605423,0.35913455,-0.00144311
1761621736955,0.99186086,0.14963485,-0.76173649,-0.01985816,0.00553287,-0.16548549,0.92930683,0.08598771,0.35915308,-0.00199749
1761621736989,-0.22450109,-0.03915446,0.16274228,-0.00863559,-0.00081389,-0.01226982,0.92932533,0.08584047,0.35913921,-0.00220669
1761621737018,0.04741170,0.00780143,-0.03510235,0.00879439,0.00852959,-0.02478788,0.92926607,0.08596535,0.35926033,-0.00255868
1761621737027,0.21097577,0.24702582,0.23960444,0.03438903,0.08055172,-0.01106208,0.92910966,0.08612182,0.35962684,-0.00260901
1761621737040,-0.33684431,-0.16012866,0.05430955,-0.02575008,0.02172057,0.01268144,0.92907193,0.08595960,0.35976368,-0.00252912
1761621737060,-0.03534591,-0.04063969,-0.03880074,-0.01244025,0.00704695,0.01426541,0.92905644,0.08583457,0.35983450,-0.00238575
1761621737070,-0.12895882,-0.06606556,0.01163846,-0.00997657,0.02219598,0.01366932,0.92901632,0.08578220,0.35995103,-0.00231399
1761621737082,0.07270599,0.04170440,0.00195134,0.01274257,0.00771753,-0.00360231,0.92899126,0.08585865,0.35999733,-0.00233560
1761621737094,0.03770048,0.02095199,-0.00078072,-0.00636805,-0.00558247,-0.00002195,0.92900722,0.08582172,0.35996495,-0.00233573
1761621737105,0.03802560,0.01158711,-0.01746571,0.00531471,-0.00334864,-0.00160068,0.92901183,0.08585228,0.35994570,-0.00234493
1761621737116,0.02408120,0.00228677,-0.02159134,-0.00096271,-0.01323652,-0.00069478,0.92904025,0.08584703,0.35987356,-0.00234872
1761621737127,0.03346232,0.01188810,-0.01270356,-0.00353572,-0.01322604,-0.01132685,0.92906952,0.08582794,0.35980214,-0.00240988
1761621737138,0.01195505,-0.00290064,-0.01833313,0.00476410,-0.01831619,0.00017200,0.92910511,0.08585342,0.35970415,-0.00240896
1761621737149,0.01507020,-0.00429295,-0.02298383,-0.01077618,-0.01575869,-0.00665737,0.92914617,0.08579092,0.35961275,-0.00244758
1761621737160,0.01833647,-0.02365611,-0.06398006,-0.01927247,-0.03057575,0.00260301,0.92922037,0.08568589,0.35944611,-0.00243339
1761621737172,-0.00214502,-0.02897644,-0.05143004,-0.04622245,-0.03560053,-0.00442744,0.92932663,0.08541317,0.35923607,-0.00245951
1761621737195,-0.00699022,0.00005769,0.00742796,-0.01878791,-0.02411441,0.00197604,0.92945367,0.08519711,0.35895875,-0.00243679
1761621737206,0.04401277,-0.17725707,-0.37457372,-0.03670278,-0.02939548,0.03655185,0.92953508,0.08499525,0.35879708,-0.00223575
1761621737227,-0.04062850,0.07735715,0.18604857,-0.01347012,-0.00664678,0.00360729,0.92957617,0.08484977,0.35872529,-0.00219679
1761621737238,0.00573816,-0.10452136,-0.19977635,0.02438895,-0.02166447,0.01422855,0.92960915,0.08498025,0.35860939,-0.00212067
1761621737249,-0.00291602,0.13178405,0.24794878,0.00415959,-0.01337253,-0.00032821,0.92963518,0.08500292,0.35853651,-0.00212246
1761621737260,0.01336547,0.02950036,0.04033782,0.01187042,-0.00640233,0.00394695,0.92964312,0.08507058,0.35850001,-0.00209996
1761621737271,0.01210197,0.02748881,0.03816218,0.02098223,-0.01185137,-0.00688967,0.92965681,0.08517969,0.35843838,-0.00213579
1761621737282,0.04009984,0.05430949,0.05932182,0.03672282,-0.00133642,-0.00550857,0.92964133,0.08537799,0.35843117,-0.00216553
1761621737293,0.01291964,0.03545634,0.05225600,0.04556894,0.00671825,-0.01655168,0.92960313,0.08563318,0.35846879,-0.00225822
1761621737305,0.00844431,0.02616790,0.03946242,0.04895232,-0.00275806,-0.00270440,0.92958220,0.08592934,0.35845210,-0.00227458
1761621737327,-0.01923224,-0.01675274,-0.01093451,0.01933060,0.00045211,0.00376111,0.92956080,0.08614101,0.35845705,-0.00223340
1761621737339,0.07722592,0.22020489,0.32836190,0.10876574,0.00564508,0.02236265,0.92948611,0.08680448,0.35849149,-0.00209699
1761621737361,-0.03635960,-0.08160578,-0.11329848,0.04400695,-0.00447244,-0.00293282,0.92946004,0.08728196,0.35844296,-0.00212881
1761621737372,0.19830215,0.38927805,0.51913964,0.17065360,-0.02262785,0.01705843,0.92941962,0.08822055,0.35831851,-0.00203499
1761621737406,-0.06143062,-0.12690122,-0.17220443,0.04296467,-0.00756480,-0.00047917,0.92939926,0.08896169,0.35818802,-0.00204325
1761621737427,0.21964661,0.33326132,0.39658930,0.07082246,-0.03762613,-0.01458039,0.92947923,0.08970179,0.35779482,-0.00219562
1761621737449,-0.12849681,-0.27037392,-0.37228203,0.01147828,-0.02182344,-0.00486483,0.92955964,0.08982862,0.35755368,-0.00224938
1761621737460,0.08720730,-0.00234506,-0.09490811,0.00992159,-0.04249270,-0.03302765,0.92964607,0.08988468,0.35731359,-0.00243598
1761621737483,-0.05638081,-0.06522264,-0.06402175,0.00643350,-0.01779881,-0.02862010,0.92971602,0.08995802,0.35711069,-0.00276225
1761621737494,0.18774610,0.07391765,-0.05661353,0.00647173,-0.01922894,-0.00481789,0.92975311,0.08999362,0.35700493,-0.00278875
1761621737506,-0.12052432,-0.06852001,-0.00248792,-0.00034568,-0.00396188,0.00302971,0.92976195,0.08999166,0.35698254,-0.00277163
1761621737527,-0.09219812,-0.04375047,0.01355589,-0.00668531,-0.00952906,0.00703571,0.92980758,0.08992113,0.35688201,-0.00269740
1761621737538,0.01308368,-0.03715354,-0.08449952,-0.02740637,-0.01452232,0.01137601,0.92985216,0.08977314,0.35680359,-0.00263597
1761621737550,-0.07965867,-0.05802418,-0.02570722,-0.03840424,-0.00088910,0.00986165,0.92987801,0.08952927,0.35679794,-0.00257335
1761621737562,-0.04843014,-0.03881667,-0.02366355,-0.06035496,0.01391414,-0.01226323,0.92988044,0.08918525,0.35687725,-0.00264325
1761621737573,-0.02600047,-0.04945810,-0.06551948,-0.02160748,0.01090554,-0.00890864,0.92986877,0.08906749,0.35693669,-0.00269181
1761621737584,0.00714895,0.03208011,0.05367980,0.00224462,0.01109354,-0.01298946,0.92984418,0.08907972,0.35699715,-0.00276260
1761621737594,0.03010488,0.02262965,0.01112898,-0.02977342,0.00404471,-0.04456146,0.92985027,0.08892341,0.35701838,-0.00299655
1761621737605,0.02844353,0.02418882,0.01601315,-0.00811312,0.02905350,-0.02691420,0.92979006,0.08887676,0.35718544,-0.00315130
1761621737644,-0.00327394,0.01775690,0.03675353,-0.00496058,0.00898891,0.00326756,0.92973320,0.08878176,0.35735758,-0.00308873
1761621737662,-0.15907114,-0.10043552,-0.02308535,-0.01945430,0.06809499,0.01143706,0.92951445,0.08860668,0.35797043,-0.00298579
1761621737684,0.06234683,0.06117385,0.04997679,-0.01584839,0.00602877,0.00121146,0.92950527,0.08842680,0.35803886,-0.00297204
1761621737706,-0.00871642,0.00194318,0.01287001,0.01624978,0.02190105,0.02014000,0.92940056,0.08859823,0.35826992,-0.00275957
1761621737716,-0.04398830,0.03952428,0.12015828,0.01063668,0.02642366,-0.01539238,0.92934151,0.08865407,0.35840864,-0.00284038
1761621737739,0.05510521,0.01656878,-0.02620498,0.01038307,0.02160159,-0.00311712,0.92923275,0.08877504,0.35866030,-0.00287669
1761621737751,-0.02308002,0.01247026,0.04769353,-0.01639340,0.03530670,-0.01733404,0.92916427,0.08868241,0.35885978,-0.00297463
1761621737773,0.01119571,-0.02173910,-0.05252866,-0.02310853,0.02881636,-0.00307981,0.92906322,0.08842129,0.35918541,-0.00300943
1761621737784,-0.29231352,-0.08830401,0.13929818,0.01302547,0.07645234,0.01364966,0.92890474,0.08848837,0.35957914,-0.00293914
1761621737796,0.13096248,0.07456639,0.00396593,0.03527710,0.01737942,-0.01102276,0.92884042,0.08871238,0.35968950,-0.00300913
1761621737818,0.05628637,0.01508606,-0.03064992,-0.00641026,0.01421246,-0.01631813,0.92878624,0.08864219,0.35984512,-0.00318781
1761621737829,-0.01992106,-0.04059010,-0.05509552,-0.08741971,0.01020083,-0.00121836,0.92880959,0.08817449,0.35989970,-0.00319433
1761621737840,-0.06684748,-0.13017404,-0.17599878,-0.10561371,0.01642530,0.04243997,0.92883088,0.08757777,0.35999250,-0.00295455
1761621737852,-0.10063771,-0.12566340,-0.13068012,-0.08417297,0.03611922,0.01773731,0.92879528,0.08708115,0.36020560,-0.00284990
1761621737861,-0.14275239,-0.14252379,-0.11766007,-0.06990035,0.01060229,0.04741046,0.92880723,0.08675612,0.36025490,-0.00262944
1761621737873,0.02209230,0.02549226,0.02550367,-0.03677363,0.00709379,0.00199521,0.92881123,0.08654099,0.36029640,-0.00261777
1761621737883,0.07549783,0.06194516,0.03880852,-0.02256526,0.01131597,-0.00937790,0.92879908,0.08642252,0.36035581,-0.00266700
1761621737895,0.08725506,0.09118725,0.07937435,-0.00762070,0.00487305,0.00715520,0.92879228,0.08637794,0.36038432,-0.00262514
1761621737908,0.02905775,0.03746629,0.04025199,-0.00687131,0.01668604,0.01270777,0.92875457,0.08633328,0.36049278,-0.00254254
1761621737918,-0.11560228,-0.08855403,-0.04445661,-0.03777352,0.00692218,0.02921116,0.92875884,0.08615385,0.36052566,-0.00240379
1761621737929,0.08013839,0.07935508,0.06484346,-0.02934204,0.01918267,0.00622440,0.92873151,0.08598367,0.36063692,-0.00236769
1761621737950,0.04566135,0.04269902,0.03205502,-0.00891834,0.00821937,0.00814597,0.92870699,0.08589047,0.36072281,-0.00228256
1761621737961,-0.25876549,-0.18361406,-0.07140737,0.00275643,0.02845262,-0.01694005,0.92864399,0.08590577,0.36088072,-0.00237658
1761621737974,0.21169295,0.17194410,0.09926564,-0.01482795,0.00771947,0.01374753,0.92863410,0.08581384,0.36092858,-0.00229134
1761621737996,0.02878604,0.02326270,0.01323204,0.00847606,0.01080540,-0.00077648,0.92857776,0.08590962,0.36105068,-0.00230012
1761621738006,-0.11622181,0.07738719,0.26687902,0.09006073,0.05497766,-0.02815103,0.92843018,0.08635542,0.36132282,-0.00243947
1761621738018,0.10759236,0.06190883,0.00261793,0.04394540,0.02607499,0.01176077,0.92834419,0.08662129,0.36148058,-0.00236831
1761621738030,0.03365550,0.04750889,0.05337531,0.04917100,0.00776693,-0.01333954,0.92829749,0.08692123,0.36152796,-0.00244968
1761621738040,0.04417278,0.05393976,0.05511109,0.01378482,0.00681206,-0.02569777,0.92827742,0.08699016,0.36156202,-0.00257817
1761621738063,-0.00151645,-0.06838735,-0.12624625,-0.01702023,0.00813518,-0.00855944,0.92825966,0.08680123,0.36165232,-0.00267318
1761621738075,0.00324005,0.02188057,0.03706202,-0.00234477,0.00353943,0.00155891,0.92825273,0.08678716,0.36167355,-0.00266383
1761621738106,-0.00641343,-0.02872429,-0.04698944,-0.00606144,-0.00140658,0.00172951,0.92827036,0.08669170,0.36165140,-0.00263659
1761621738119,-0.13802045,-0.06684146,0.01996972,-0.00933763,-0.00106647,0.05441099,0.92827945,0.08663240,0.36164463,-0.00229108
1761621738143,0.02139050,-0.00641102,-0.03448744,-0.03342512,-0.00394863,0.02060878,0.92833747,0.08621960,0.36159586,-0.00203656
1761621738155,-0.07758096,-0.10438784,-0.11359295,-0.03762623,-0.00250911,0.00646614,0.92836257,0.08600889,0.36158181,-0.00200035
1761621738175,0.02639763,0.02148131,0.01249499,-0.02751336,-0.00062377,0.01642579,0.92839093,0.08573238,0.36157554,-0.00183527
1761621738185,-0.11989819,-0.11813814,-0.09439117,-0.03897071,0.01602199,0.01223589,0.92837716,0.08552779,0.36165966,-0.00177103
1761621738208,0.05352935,0.05517654,0.04703678,-0.02671983,0.00501969,0.01191892,0.92838300,0.08522986,0.36171563,-0.00163814
1761621738230,0.01164301,0.00777259,0.00218935,-0.02845742,-0.00016401,0.00912138,0.92841336,0.08490829,0.36171377,-0.00153507
1761621738242,-0.17466960,-0.20838352,-0.20416662,-0.01753613,0.00270087,-0.01458041,0.92841654,0.08480220,0.36173011,-0.00162328
1761621738263,0.13081945,0.14045078,0.12418242,-0.01712870,0.00391215,-0.01026645,0.92841675,0.08462321,0.36177100,-0.00173056
1761621738275,-0.01318140,-0.08317491,-0.14097859,-0.01937472,-0.01770300,0.00261605,0.92846659,0.08451180,0.36166920,-0.00171552
1761621738296,0.03307048,0.06596048,0.08812507,-0.00114802,0.00032546,0.00152318,0.92846638,0.08449963,0.36167265,-0.00169937
1761621738326,0.00046735,0.01232913,0.02226661,0.01432733,-0.00269642,0.00653398,0.92846276,0.08471239,0.36163261,-0.00160234
1761621738354,-0.00141789,0.01931174,0.03749644,0.01844395,-0.00426694,0.01834746,0.92846284,0.08497522,0.36157181,-0.00134089
1761621738396,-0.00342870,0.00155924,0.00658023,0.01852467,0.00335894,0.00517479,0.92840013,0.08536238,0.36164201,-0.00123274
1761621738407,0.25405500,0.40290854,0.48345704,0.10952928,-0.00728563,-0.04176491,0.92835945,0.08597027,0.36160157,-0.00146454
1761621738430,-0.05623356,-0.13814315,-0.19834164,0.01103478,-0.00113695,-0.00429978,0.92835276,0.08609607,0.36158861,-0.00151355
1761621738462,-0.02565043,-0.04019019,-0.04793822,-0.01744182,-0.00490066,0.00287942,0.92840921,0.08581700,0.36151020,-0.00146748
1761621738473,-0.00201581,-0.06255115,-0.11445673,-0.02427213,-0.02460919,-0.00224877,0.92847717,0.08567743,0.36136870,-0.00148041
1761621738497,-0.00198315,-0.00022307,0.00149415,-0.00739056,-0.01224062,-0.00520477,0.92854023,0.08559170,0.36122671,-0.00154079
1761621738507,0.04946308,-0.02125099,-0.09206880,-0.00031680,-0.03042071,0.01923426,0.92860028,0.08559010,0.36107308,-0.00144365
1761621738518,-0.00341314,0.01554534,0.03257929,-0.01022997,-0.01905274,-0.00972463,0.92864820,0.08553128,0.36096353,-0.00149957
1761621738530,-0.00886553,-0.02110670,-0.02898738,-0.04614388,-0.02977160,0.01328559,0.92874082,0.08526134,0.36078937,-0.00142185
1761621738541,-0.02058522,-0.03217469,-0.03897911,-0.02973276,-0.01523978,0.00597764,0.92878972,0.08509335,0.36070326,-0.00138808
1761621738552,-0.02863938,-0.02654477,-0.01904176,-0.02148817,-0.02025061,0.00607829,0.92884286,0.08497731,0.36059391,-0.00135525
1761621738563,-0.01205775,-0.01741942,-0.02005589,-0.03646970,-0.00345092,-0.00029459,0.92886832,0.08477855,0.36057510,-0.00135686
1761621738574,-0.01964329,-0.00902713,0.00462519,-0.01569219,-0.00339175,0.00984356,0.92888351,0.08469225,0.36055645,-0.00130272
1761621738585,-0.00702177,0.02124082,0.04706110,-0.00776020,-0.02015290,0.01551447,0.92893181,0.08464840,0.36044258,-0.00121506
1761621738596,-0.00105235,0.00071719,0.00298794,-0.00290102,-0.00368796,-0.00064423,0.92894122,0.08463230,0.36042211,-0.00121864
1761621738607,-0.00206942,0.00174754,0.00442730,-0.00493440,-0.01654219,0.00681097,0.92897903,0.08460516,0.36033113,-0.00118118
1761621738618,-0.00002594,0.01526879,0.02971230,-0.02384873,-0.00121299,0.00318408,0.92899345,0.08447519,0.36032452,-0.00116383
1761621738629,0.00624478,0.01977152,0.02970064,-0.01620323,0.00174832,0.00206640,0.92899783,0.08438607,0.36033414,-0.00115246
1761621738640,-0.02576187,-0.01601129,-0.00234032,-0.03339902,-0.01382291,0.03395216,0.92904546,0.08419736,0.36025604,-0.00096063
1761621738652,-0.04038321,-0.04049921,-0.03304286,0.00607636,-0.00801422,0.00624251,0.92905981,0.08423139,0.36021116,-0.00092567
1761621738663,0.06579361,0.06462568,0.05100478,0.01976511,-0.01356755,-0.02368065,0.92907891,0.08434109,0.36013586,-0.00105710
1761621738666,1.15825433,0.53767173,-0.22215442,0.18937686,-0.07259294,-0.07459351,0.92909407,0.08460622,0.36003423,-0.00116153
1761621738687,-0.11119319,-0.01451995,0.09006826,0.01628338,-0.00887525,-0.00142057,0.92911467,0.08477801,0.35994059,-0.00117652
1761621738697,0.11382535,0.09297693,0.05286651,0.03991341,-0.00664396,-0.00536240,0.92910895,0.08498955,0.35990538,-0.00120494
1761621738709,-0.00425101,0.00542954,0.01493389,0.01206436,-0.00905773,-0.00905584,0.92912318,0.08506133,0.35985149,-0.00125882
1761621738722,-0.03948802,-0.04834263,-0.04847607,-0.01118212,-0.02170887,-0.01236351,0.92918530,0.08498753,0.35970821,-0.00134042
1761621738775,-0.01647961,-0.01302339,-0.00680642,-0.01157801,-0.00599276,-0.00673884,0.92927332,0.08468476,0.35955150,-0.00151664
1761621738789,0.23263618,-0.18659413,-0.58939740,-0.07137347,-0.08543899,0.01454323,0.92955597,0.08417444,0.35894061,-0.00141266
1761621738820,-0.09116703,0.04646727,0.18189334,-0.01761809,-0.01514612,0.00189640,0.92967095,0.08390224,0.35870660,-0.00138336
1761621738868,-0.01879689,0.01486008,0.04708861,0.00094199,0.00580778,0.00518408,0.92961494,0.08392499,0.35884686,-0.00125816
1761621738897,-0.03676827,0.00246633,0.04298009,-0.00018555,0.03088163,0.01000425,0.92944359,0.08392232,0.35929156,-0.00111410
1761621738909,-0.18470246,0.00780639,0.20767568,0.02024260,0.07363850,-0.06819765,0.92925654,0.08404681,0.35974443,-0.00153352
1761621738941,0.10814501,0.02300427,-0.07074331,0.01576986,0.00381484,-0.01357279,0.92920953,0.08429992,0.35980566,-0.00175136
1761621738964,0.03989912,0.03583147,0.02457232,0.02975264,-0.00225706,-0.01347691,0.92918817,0.08464207,0.35977970,-0.00190634
1761621738975,0.07779385,0.09722416,0.09905271,0.02991173,0.00013620,0.01402162,0.92917344,0.08480210,0.35978043,-0.00183133
1761621738989,-0.07307835,-0.04728287,-0.01089114,0.02233573,-0.00265807,0.03040886,0.92916695,0.08495398,0.35976236,-0.00162455
1761621739009,-0.03707047,-0.04815838,-0.05041249,0.00965834,0.00045049,0.00397301,0.92915644,0.08505057,0.35976686,-0.00158482
1761621739020,0.01504750,0.04305150,0.06412611,0.03381419,0.00584009,-0.02978143,0.92912640,0.08523824,0.35979928,-0.00175010
1761621739031,0.03993133,0.01605907,-0.01202569,0.01977225,0.01079214,-0.01694266,0.92909174,0.08535193,0.35986133,-0.00184752
1761621739043,0.00163378,0.00355980,0.00484499,0.03517676,-0.00118283,0.00204927,0.92907579,0.08555419,0.35985453,-0.00183574
1761621739054,0.01549149,0.01201198,0.00670997,-0.00672024,0.01598435,-0.01992898,0.92904548,0.08551790,0.35994084,-0.00194336
1761621739068,-0.03146786,-0.04415374,-0.04886909,0.00192256,0.02380541,0.00192500,0.92897969,0.08553136,0.36010748,-0.00192988
1761621739070,0.00556207,1.39828545,2.58782945,0.02025777,0.03622443,0.02332287,0.92896066,0.08555567,0.36015095,-0.00190190
1761621739099,-0.02244882,-0.14248615,-0.24093736,-0.00216805,0.00435053,0.00294609,0.92893918,0.08552423,0.36021403,-0.00185918
1761621739109,-0.04662848,0.02354035,0.09203387,-0.02402356,0.00598088,-0.02135552,0.92893840,0.08540171,0.36024454,-0.00196809
1761621739121,0.05132973,-0.03457200,-0.11706989,-0.00109133,0.00137919,-0.01331804,0.92893566,0.08539528,0.36025267,-0.00204667
1761621739142,0.00085978,-0.00557675,-0.01153079,-0.01007894,-0.00020757,-0.00298642,0.92894611,0.08528995,0.36025051,-0.00207788
1761621739153,0.00516216,-0.01926352,-0.04145058,-0.01418909,-0.00448434,-0.00622976,0.92896306,0.08521049,0.36022539,-0.00211276
1761621739165,-0.01111503,-0.02124883,-0.02752858,-0.02076217,-0.00292483,0.00616010,0.92898168,0.08508384,0.36020755,-0.00207519
1761621739176,-0.02498822,-0.01664575,-0.00524411,-0.00199292,-0.00167579,0.01602310,0.92898632,0.08507318,0.36019859,-0.00198946
1761621739187,-0.03198187,0.00711723,0.04676905,-0.00050456,-0.00535949,0.02154877,0.92899835,0.08507038,0.36016884,-0.00186987
1761621739198,-0.00311442,0.00947382,0.02179966,0.00530958,-0.01016917,0.01240189,0.92901715,0.08509905,0.36011393,-0.00180290
1761621739209,0.03589601,0.01631215,-0.00754413,0.00373457,-0.01448806,-0.00465291,0.92904636,0.08511978,0.36003352,-0.00182872
1761621739221,0.02290610,0.01421763,0.00169874,-0.01084473,0.00297736,-0.00779015,0.92904535,0.08505742,0.36005064,-0.00187351
1761621739232,0.01342864,0.02018981,0.02377552,0.02299395,0.01420735,-0.00772328,0.92900034,0.08519309,0.36013446,-0.00191908
1761621739243,0.01234544,0.03486724,0.05169672,0.00785767,0.00465967,-0.00296892,0.92898691,0.08523473,0.36015916,-0.00193482
1761621739254,-0.00692274,-0.00826509,-0.00814670,0.00404920,0.00531730,-0.00987978,0.92897329,0.08525720,0.36018867,-0.00198965
1761621739266,0.02344796,0.00331212,-0.01784045,0.00489300,-0.01191131,-0.01350145,0.92899750,0.08528583,0.36011899,-0.00206863
1761621739287,-0.00227713,-0.00512780,-0.00731724,0.00160017,0.00190297,-0.01011604,0.92898761,0.08530327,0.36013973,-0.00217890
1761621739299,0.09948366,0.05723248,0.00169199,0.00805242,-0.02730681,0.00192572,0.92904325,0.08534877,0.35998545,-0.00216802
1761621739310,-0.05053088,-0.03711328,-0.01547238,0.01085576,-0.01088863,0.00051976,0.92906178,0.08541119,0.35992284,-0.00216503
1761621739342,-0.01122877,-0.00479060,0.00281893,0.01084178,-0.01357308,-0.00669556,0.92912988,0.08558520,0.35970499,-0.00227249
1761621739354,0.35545493,0.24927430,0.09136093,0.06590390,-0.00268666,0.00008428,0.92910113,0.08596085,0.35968968,-0.00227201
1761621739377,-0.15418601,-0.08782785,-0.00167630,0.02354566,-0.00568371,-0.01328097,0.92910095,0.08623751,0.35962289,-0.00242806
1761621739388,0.13855815,0.12362639,0.08449003,0.02724461,-0.03126007,-0.02202245,0.92915181,0.08638327,0.35945565,-0.00254588
1761621739401,0.06057545,0.00353679,-0.05574080,0.04130009,-0.03244127,-0.03316103,0.92920603,0.08664346,0.35925127,-0.00275480
1761621739432,-0.05895680,-0.04631427,-0.02456375,0.01773819,-0.00411039,-0.01941841,0.92920403,0.08691929,0.35918735,-0.00305675
1761621739443,0.51493457,0.30525820,0.03180332,-0.00157381,-0.03751479,-0.07579100,0.92928239,0.08691071,0.35898290,-0.00346981
1761621739454,-0.20863865,-0.15720505,-0.07505273,0.01220665,-0.02051301,0.00643045,0.92932118,0.08698029,0.35886597,-0.00343316
1761621739466,-0.15346122,-0.10261275,-0.03064387,-0.01883853,-0.00636165,0.00749170,0.92934581,0.08687103,0.35882908,-0.00338971
1761621739487,-0.09437124,-0.06023217,-0.01423458,-0.02124720,-0.01111779,0.00890975,0.92941424,0.08664049,0.35870845,-0.00329304
1761621739498,-0.00239927,-0.07537010,-0.13780830,-0.06179032,-0.03079667,0.01708349,0.92950535,0.08632227,0.35854985,-0.00320506
1761621739510,-0.04599217,-0.02204603,0.00632705,0.00111634,-0.01299007,0.01982150,0.92953594,0.08632914,0.35846996,-0.00308316
1761621739521,-0.01168200,-0.01051936,-0.00658440,-0.00700715,-0.01545068,-0.00266377,0.92957455,0.08628815,0.35837957,-0.00309874
1761621739533,0.00079195,0.02015909,0.03642709,-0.01252663,-0.01242750,0.00324750,0.92960824,0.08621737,0.35830935,-0.00308039
1761621739539,0.07676308,-0.17361442,-0.40347697,-0.00342381,-0.03501769,0.00622701,0.92964767,0.08620761,0.35820955,-0.00306264
1761621739575,-0.01279003,0.04738645,0.10160950,-0.00136611,-0.00064691,-0.00064455,0.92965447,0.08618275,0.35819778,-0.00307437
1761621739605,-0.01390486,-0.01907441,-0.02105842,-0.02509400,-0.00236450,0.01905236,0.92970320,0.08581136,0.35816279,-0.00279240
1761621739635,-0.03142450,-0.04506988,-0.05095185,-0.02824154,-0.00370699,0.00377619,0.92976379,0.08538774,0.35810718,-0.00273576
1761621739646,0.13869668,-0.03355303,-0.20557958,-0.00580946,-0.02151774,-0.06754174,0.92981241,0.08535491,0.35798561,-0.00311737
1761621739687,0.00086590,0.05591686,0.10278375,-0.00582641,-0.00128258,0.00186714,0.92983367,0.08523518,0.35795925,-0.00307900
1761621739698,-0.00715731,-0.08991134,-0.15890841,-0.02956671,-0.01431538,0.01549786,0.92987998,0.08506961,0.35787908,-0.00299221
1761621739721,-0.02677257,0.01698085,0.05917350,-0.01295601,-0.00492572,0.00845670,0.92991570,0.08492061,0.35782244,-0.00289496
1761621739743,0.00339714,0.00059351,-0.00247021,-0.00383597,-0.00116546,0.00037187,0.92992454,0.08487823,0.35780956,-0.00289085
1761621739753,0.01149122,0.00386371,-0.00443085,-0.00187657,-0.01016791,-0.00024787,0.92994516,0.08486875,0.35775821,-0.00289210
1761621739777,0.00568479,0.01755183,0.02651379,-0.00418243,0.00075433,-0.00166144,0.92994618,0.08481919,0.35776715,-0.00291179
1761621739787,0.04191462,-0.00887415,-0.05952038,-0.01029126,-0.01234373,-0.02177671,0.92997398,0.08476825,0.35770605,-0.00301958
1761621739798,0.00497987,0.00518085,0.00386064,-0.02306164,-0.00303817,-0.01409727,0.92999235,0.08463679,0.35768873,-0.00309994
1761621739809,0.02440532,-0.01948661,-0.06042430,-0.01651363,-0.02284189,-0.02014175,0.93004855,0.08454597,0.35756310,-0.00321072
1761621739821,0.03113030,0.00904601,-0.01536131,-0.01385938,-0.00549205,-0.02921693,0.93006684,0.08446836,0.35753234,-0.00337433
1761621739832,0.02171623,0.01122428,-0.00205573,0.00676935,-0.02000443,0.00045517,0.93010611,0.08450593,0.35742132,-0.00337181
1761621739842,-0.00075336,0.01770853,0.03398886,-0.01115891,-0.01058878,-0.01362485,0.93013303,0.08444623,0.35736467,-0.00344470
1761621739854,-0.01604228,0.01357204,0.04126640,0.00584219,-0.00721451,-0.01088040,0.93014580,0.08448011,0.35732283,-0.00350780
1761621739865,-0.02293192,-0.01223380,0.00172039,-0.00804809,-0.00733081,0.01695794,0.93016637,0.08443424,0.35728104,-0.00341114
1761621739877,-0.01758371,-0.00946800,-0.00001777,-0.00326082,-0.00418766,0.00282936,0.93017777,0.08441484,0.35725612,-0.00339431
1761621739889,-0.02615116,-0.00683926,0.01452528,-0.00872047,-0.00577430,0.01179500,0.93019607,0.08436251,0.35722148,-0.00332354
1761621739901,-0.02514864,-0.01276505,0.00233916,-0.00312833,-0.00389468,0.00902998,0.93020649,0.08434452,0.35719908,-0.00327162
1761621739911,-0.00559973,-0.00057906,0.00445516,-0.00216541,-0.00254332,0.00119005,0.93021273,0.08433305,0.35718560,-0.00326531
1761621739933,0.00063311,0.01621418,0.02954140,0.00377108,0.00360582,-0.00061492,0.93019423,0.08437340,0.35722419,-0.00327189
1761621739944,-0.01666739,-0.00770349,0.00192372,-0.00360199,0.01391040,-0.00892511,0.93016495,0.08435251,0.35730487,-0.00332366
1761621739955,0.02256967,0.02663101,0.02700830,-0.00403030,0.02000810,-0.02209539,0.93012461,0.08433054,0.35741391,-0.00344408
1761621739967,0.01912153,0.01207935,0.00164734,0.01561064,0.00958665,-0.01699242,0.93009492,0.08442030,0.35746903,-0.00354178
1761621739979,0.01077331,0.01419185,0.01590088,0.00393697,0.01007717,-0.01316243,0.93006902,0.08444412,0.35753000,-0.00362141
1761621740000,-0.00390928,-0.00653305,-0.00833798,0.00264837,0.00032042,-0.00892061,0.93006487,0.08447166,0.35753333,-0.00371419
1761621740022,0.00991967,0.00430023,-0.00216369,-0.01086040,0.00654702,-0.01048735,0.93004763,0.08435274,0.35760502,-0.00382903
1761621740033,-0.04571250,-0.05853343,-0.06092491,-0.02267108,0.01907842,0.01313932,0.93001652,0.08421785,0.35771854,-0.00375085
1761621740056,-0.01408560,0.00079985,0.01598482,-0.01016772,0.00198006,0.00710905,0.93001859,0.08410550,0.35774042,-0.00367229
1761621740066,-0.09979959,-0.07895111,-0.04235559,-0.00720069,-0.00137952,0.00325032,0.93002498,0.08406697,0.35773304,-0.00365490
1761621740078,0.06426730,0.05093457,0.02738287,0.00147285,0.00728801,0.00568371,0.93000749,0.08407581,0.35777677,-0.00362080
1761621740101,0.01420971,0.02198502,0.02581131,0.01477079,0.00278757,-0.00021816,0.92998062,0.08424050,0.35780785,-0.00362323
1761621740112,0.02384805,0.06471532,0.09478072,0.03341426,0.01413032,-0.00973687,0.92993341,0.08442595,0.35788627,-0.00367727
1761621740124,-0.02398720,-0.00445910,0.01611889,-0.00570799,0.02504649,0.01179998,0.92987940,0.08439199,0.35803530,-0.00360706
1761621740134,-0.04028212,-0.02088468,0.00332487,0.01451753,0.01583331,-0.00132564,0.92984156,0.08446603,0.35811605,-0.00361382
1761621740145,0.02190517,0.02979300,0.03207926,0.01968011,0.02253924,-0.00580730,0.92978437,0.08457329,0.35823889,-0.00364547
1761621740155,0.03561761,0.00948365,-0.01846673,0.01331660,0.01090233,-0.02642105,0.92975484,0.08464453,0.35829721,-0.00378683
1761621740166,0.01669206,-0.00865514,-0.03393727,-0.01491398,0.01187546,-0.00989113,0.92973740,0.08456474,0.35836075,-0.00383974
1761621740177,-0.00761672,-0.03724681,-0.06055356,-0.00794261,0.00890855,0.00067123,0.92972210,0.08451987,0.35841108,-0.00383595
1761621740189,-0.02689888,-0.02842871,-0.02403978,-0.01588791,0.00736659,0.00535044,0.92971433,0.08443010,0.35845270,-0.00380572
1761621740199,-0.02844255,-0.03619099,-0.03739468,-0.03479416,0.00608997,0.02250918,0.92971909,0.08424569,0.35848498,-0.00368642
1761621740210,-0.06716743,-0.04964727,-0.02269695,-0.03436320,0.01797804,0.02750348,0.92969828,0.08405326,0.35858566,-0.00353240
1761621740222,-0.02775120,-0.02491195,-0.01778383,-0.03043433,0.00036181,0.02265207,0.92971444,0.08387065,0.35858783,-0.00339649
1761621740234,-0.04279956,-0.05401417,-0.05443608,-0.04851948,-0.00227083,0.00887737,0.92974453,0.08359409,0.35857488,-0.00334589
1761621740245,0.03115947,-0.01229885,-0.05467271,-0.02906524,-0.00700316,-0.01545125,0.92977317,0.08343568,0.35853672,-0.00343010
1761621740256,0.04012417,0.01289312,-0.01734984,-0.03039620,-0.01389537,0.00307406,0.92982011,0.08325939,0.35845612,-0.00341227
1761621740280,0.03102867,0.03264601,0.02811162,0.00222567,0.00204888,-0.00099234,0.92980854,0.08328531,0.35847999,-0.00342383
1761621740289,-0.11525198,-0.13780417,-0.13427571,0.01094317,0.00894928,0.02395934,0.92978813,0.08333675,0.35852205,-0.00331122
1761621740300,0.08091485,0.17238491,0.23320042,0.00843487,0.01754808,0.00051872,0.92974676,0.08338314,0.35861857,-0.00330837
1761621740311,0.01098623,0.01971299,0.02482776,0.00071183,0.01645826,0.00288186,0.92971186,0.08338702,0.35870827,-0.00329266
1761621740322,-0.05916274,-0.03841879,-0.00985005,-0.05124129,0.02877381,0.04574872,0.92967752,0.08311032,0.35886365,-0.00304562
1761621740333,-0.04242624,-0.03790521,-0.02509448,-0.02834563,0.01154709,0.00524457,0.92966635,0.08294449,0.35893120,-0.00301494
1761621740345,-0.02390912,-0.02625634,-0.02366288,-0.02146432,0.01106626,0.02228120,0.92965342,0.08282322,0.35899372,-0.00288905
1761621740356,0.02130183,0.01282859,0.00205880,-0.00908687,0.00252088,-0.00873747,0.92965233,0.08277143,0.35900809,-0.00293885
1761621740367,-0.00135581,-0.03476740,-0.06301274,-0.04708887,0.00661700,-0.02386318,0.92966095,0.08251008,0.35904481,-0.00307129
1761621740378,0.06107529,-0.00651004,-0.07431835,-0.03028536,-0.02930214,-0.01541468,0.92973835,0.08234200,0.35888219,-0.00315684
1761621740389,0.06413232,0.02887383,-0.01319185,-0.02055260,-0.00955389,-0.00771394,0.92976822,0.08222999,0.35883012,-0.00319889
1761621740401,0.03574364,0.02719008,0.01308382,0.00785815,0.00246576,0.00476582,0.92975868,0.08227596,0.35884454,-0.00317101
1761621740412,0.01629636,0.04733783,0.06986812,0.04192340,-0.00317839,-0.00378152,0.92974442,0.08251492,0.35882643,-0.00319256
1761621740424,0.06131348,0.08089714,0.08427209,0.04065496,-0.00327063,-0.02652332,0.92973025,0.08275072,0.35880746,-0.00334640
1761621740445,-0.00111898,0.01005495,0.01971205,0.01973979,-0.00570419,-0.00881689,0.92973459,0.08295996,0.35874699,-0.00343985
1761621740456,0.17891146,0.15448336,0.09819599,-0.00347204,-0.00466203,0.00343180,0.92974605,0.08294121,0.35872182,-0.00342132
1761621740467,-0.17233405,-0.17775019,-0.14729442,-0.03397857,-0.01694888,0.01460597,0.92979991,0.08275093,0.35862690,-0.00333953
1761621740479,-0.04021133,-0.04938805,-0.04939336,-0.02310900,-0.01260566,-0.00150318,0.92984138,0.08261228,0.35855127,-0.00334855
1761621740491,-0.01299744,-0.01866152,-0.02044332,-0.00672989,-0.00036198,0.00436665,0.92984571,0.08257358,0.35854919,-0.00332344
1761621740501,0.01038944,0.00595004,0.00054457,-0.00013517,-0.00751257,-0.01214819,0.92986032,0.08257289,0.35851087,-0.00338540
1761621740512,0.02963236,0.03979798,0.04154952,0.01777590,-0.00740213,-0.01050253,0.92986718,0.08267155,0.35846979,-0.00344368
1761621740523,0.05893799,0.04095382,0.01536782,0.01709855,-0.01010268,-0.03208724,0.92987900,0.08276132,0.35841675,-0.00361214
1761621740534,0.01785035,0.02681054,0.02956118,0.02109622,-0.00736306,-0.01318674,0.92988408,0.08287945,0.35837552,-0.00368599
1761621740545,0.01565073,0.01511060,0.01253247,0.01366215,-0.00683536,-0.01951002,0.92989157,0.08295596,0.35833724,-0.00379524
1761621740555,0.02194087,0.00611706,-0.01203010,-0.00854041,-0.00843080,-0.01061801,0.92991279,0.08291027,0.35829214,-0.00385205
1761621740567,-0.02677208,-0.04628041,-0.05675164,-0.02918907,-0.02021364,-0.00421611,0.92997034,0.08274827,0.35817995,-0.00387545
1761621740578,-0.04366764,-0.05339866,-0.05244640,-0.03668470,-0.01404619,0.00832442,0.93001951,0.08254100,0.35810059,-0.00382842
1761621740589,-0.04218631,-0.05622288,-0.05995357,-0.06618288,-0.01589581,0.01409073,0.93008752,0.08216707,0.35801078,-0.00374880
1761621740601,-0.02798683,-0.04635121,-0.05522280,-0.03771074,-0.01936743,0.01189157,0.93014924,0.08195212,0.35790038,-0.00368102
1761621740611,-0.04050793,-0.03739078,-0.02677779,-0.02091015,-0.00532103,0.01420029,0.93017054,0.08183920,0.35787165,-0.00360434
1761621740623,-0.01022044,0.00199608,0.01434898,-0.01905007,-0.02396160,0.01549710,0.93023187,0.08173252,0.35773747,-0.00351756
1761621740634,0.00136555,0.02238459,0.03950793,0.01091871,-0.00847586,-0.00806621,0.93024514,0.08179640,0.35768788,-0.00356474
1761621740646,0.03401719,0.03950076,0.03731005,-0.00422568,-0.01039304,-0.00443170,0.93027059,0.08177168,0.35762708,-0.00359067
1761621740656,0.06118807,0.04442640,0.01829661,0.02468282,-0.01438383,-0.01918754,0.93028668,0.08189262,0.35755660,-0.00368469
1761621740668,0.01075831,0.04567543,0.07225617,0.00340143,-0.00713362,-0.01379637,0.93030124,0.08191337,0.35751309,-0.00376885
1761621740679,0.03378925,-0.00118487,-0.03689010,-0.02266867,-0.00758970,-0.00751314,0.93032735,0.08179209,0.35747248,-0.00380904
1761621740689,-0.03663793,-0.03422198,-0.02469644,-0.03851560,-0.00628215,0.00064473,0.93035837,0.08158604,0.35743887,-0.00380559
1761621740701,-0.04470933,-0.04748373,-0.04057094,-0.05501095,-0.00442568,0.00186506,0.93039717,0.08125872,0.35741254,-0.00379450
1761621740713,-0.00896883,-0.00774235,-0.00434393,0.00929769,-0.00623510,-0.01195629,0.93040584,0.08131125,0.35737731,-0.00386205
1761621740724,0.04142701,0.02362268,0.00010106,0.00921345,-0.01201714,-0.02514898,0.93042732,0.08136469,0.35730761,-0.00400791
1761621740735,0.05066085,0.05052476,0.04043451,0.00974163,-0.01408208,-0.01419828,0.93045158,0.08141730,0.35723157,-0.00408458
1761621740756,-0.01770813,0.01633232,0.04766220,0.01231590,-0.01460041,-0.00468798,0.93049956,0.08154846,0.35707607,-0.00413451
1761621740759,5.47012109,2.47013686,-1.09306798,0.26936644,-0.28250156,0.00976980,0.93060971,0.08189864,0.35670882,-0.00412181
1761621740781,-0.61940801,-0.26895488,0.14335777,-0.00053517,-0.01950790,-0.01651958,0.93069126,0.08189278,0.35649521,-0.00430270
1761621740790,0.21531796,0.07056322,-0.09042481,-0.00792128,-0.02760565,-0.02654807,0.93074475,0.08185475,0.35636270,-0.00443013
1761621740803,-0.09771723,-0.05379816,0.00155622,-0.00760543,-0.01383522,0.03820862,0.93078222,0.08180836,0.35627831,-0.00419706
1761621740813,-0.06123339,-0.02713607,0.01332310,0.00951686,0.00369381,0.02802841,0.93077159,0.08185595,0.35629678,-0.00405692
1761621740853,-0.03376378,-0.00729867,0.02098461,0.00565675,-0.00473782,-0.00589101,0.93079744,0.08196936,0.35620178,-0.00417503
1761621740904,0.00520918,0.01428632,0.02063790,0.03084780,0.01089450,-0.00431957,0.93061889,0.08276524,0.35648286,-0.00428648
1761621740925,0.05987954,0.07923467,0.08319249,-0.03968458,0.01227517,-0.01079111,0.93060613,0.08235450,0.35660991,-0.00439816
1761621740957,-0.07973529,-0.09082851,-0.08410513,0.00410409,-0.00315897,0.01051119,0.93062028,0.08241935,0.35656000,-0.00423209
1761621740989,0.01696054,0.00578912,-0.00658405,-0.00133570,-0.01567124,0.00734302,0.93072150,0.08239737,0.35630221,-0.00411129
1761621741013,-0.00748470,-0.00539046,-0.00234087,-0.00492105,-0.00627848,0.01640485,0.93075496,0.08234078,0.35623000,-0.00392264
1761621741034,-0.01260670,-0.01192679,-0.00853794,-0.00972681,-0.00251284,0.00390746,0.93077499,0.08223476,0.35620261,-0.00388005
1761621741045,-0.01587278,-0.04775056,-0.07165811,-0.04472382,-0.00638975,0.01483626,0.93080983,0.08199325,0.35616811,-0.00379993
1761621741057,-0.04338432,-0.03944808,-0.02663049,-0.03731743,0.00509619,0.01610313,0.93081780,0.08178054,0.35619716,-0.00370814
1761621741068,0.00261467,0.01273944,0.02008876,0.00156466,-0.00597263,0.01044682,0.93083061,0.08178969,0.35616222,-0.00364703
1761621741080,0.05607485,0.03051579,-0.00092058,-0.01988200,-0.00900919,-0.02707444,0.93086010,0.08167438,0.35610996,-0.00380406
1761621741092,0.04574533,0.01353999,-0.02214076,-0.03093573,-0.01277438,-0.02043685,0.93090705,0.08148103,0.35603012,-0.00393179
1761621741102,0.02262446,-0.01768003,-0.05447637,-0.00008542,-0.02136273,0.00861388,0.93094852,0.08148060,0.35592224,-0.00388829
1761621741124,-0.00398165,0.03023629,0.05873318,-0.00634300,-0.01013771,0.00002978,0.93099725,0.08141083,0.35581073,-0.00388796
1761621741157,0.00797739,0.00229784,-0.00395534,0.00417900,-0.00758457,-0.00399801,0.93103876,0.08147978,0.35568558,-0.00395393
1761621741185,0.03425262,0.01890415,-0.00045637,0.01997733,-0.03151695,0.00625000,0.93118255,0.08175846,0.35524592,-0.00386674
1761621741215,0.00302290,0.00538474,0.00679655,-0.00124318,-0.02884946,0.00428172,0.93134609,0.08174019,0.35482183,-0.00380380
1761621741236,0.03336307,0.01293918,-0.01021412,0.02392023,-0.02925242,-0.00427841,0.93144169,0.08199374,0.35451176,-0.00384915
1761621741258,-0.03139672,-0.00028598,0.03118547,0.00287216,-0.01355058,0.00197898,0.93149596,0.08202548,0.35436202,-0.00382729
1761621741280,-0.04366040,-0.03252127,-0.01473065,-0.03270140,-0.00058020,0.00712684,0.93153031,0.08166576,0.35435564,-0.00374889
1761621741290,-0.09315230,-0.12104696,-0.12517309,-0.03061565,0.01354552,0.00814347,0.93151763,0.08150656,0.35442608,-0.00370654
1761621741313,-0.01520451,0.01051120,0.03474089,-0.02240239,0.00968623,0.01202290,0.93149829,0.08124894,0.35453747,-0.00356828
1761621741324,-0.03296674,-0.02426542,-0.01109756,-0.00727333,-0.00383164,0.00337853,0.93150987,0.08120893,0.35451640,-0.00354970
1761621741336,0.00884491,0.01763878,0.02342579,-0.00392670,0.00674231,-0.00741239,0.93149714,0.08118675,0.35455449,-0.00359158
1761621741346,0.00832358,0.01883782,0.02541986,-0.00083077,0.00214958,0.01314574,0.93149349,0.08118239,0.35456578,-0.00352256
1761621741357,0.01700846,0.02979735,0.03633077,0.00103832,-0.00558079,0.00606358,0.93150470,0.08118804,0.35453536,-0.00348952
1761621741369,0.02874535,0.02148254,0.01011642,0.01307045,-0.01470304,0.01186886,0.93153237,0.08126843,0.35444494,-0.00341652
1761621741382,0.02693366,0.01229494,-0.00528302,-0.00014538,-0.02130143,0.00115484,0.93158190,0.08126754,0.35431500,-0.00340948
1761621741403,0.00881623,0.00348020,-0.00241895,-0.00593341,-0.01222577,-0.00278794,0.93163656,0.08120465,0.35418541,-0.00343903
1761621741414,0.12345005,0.01677213,-0.09385963,0.01876860,-0.00672612,-0.02065451,0.93164115,0.08130694,0.35414875,-0.00355160
1761621741425,-0.09959961,0.01112521,0.11967562,-0.00229744,0.02706610,0.01161274,0.93158589,0.08129430,0.35429761,-0.00348773
1761621741437,-0.03872058,-0.00573324,0.02885270,0.00633446,0.01326108,0.00394368,0.93155268,0.08133199,0.35437652,-0.00346426
1761621741448,-0.00137235,0.00859134,0.01674503,0.01060081,0.00676316,-0.00985569,0.93153199,0.08139400,0.35441608,-0.00352192
1761621741459,0.02058869,0.02278712,0.02010045,0.01393901,0.00491040,-0.00981629,0.93151450,0.08147206,0.35444358,-0.00357689
1761621741471,0.01037205,0.01143532,0.01054334,0.01259672,-0.00327286,-0.00061876,0.93151528,0.08154197,0.35442541,-0.00358032
1761621741503,-0.00096448,-0.00923306,-0.01566874,0.00891825,-0.00115685,-0.00530671,0.93150942,0.08168645,0.35440667,-0.00366629
1761621741514,0.08107070,0.16996056,0.22457489,0.01079135,0.00677534,0.03660983,0.93149012,0.08174796,0.35444529,-0.00345762
1761621741526,-0.20360568,-0.19516897,-0.14680756,0.00249277,0.01476644,0.02208482,0.93145759,0.08176204,0.35452872,-0.00333284
1761621741547,0.04150634,0.01438524,-0.01585441,0.02174607,0.00212124,-0.00756096,0.93142876,0.08199038,0.35455100,-0.00341223
1761621741558,0.06195312,0.07508144,0.07332454,0.01992981,-0.00831315,-0.00890476,0.93143618,0.08209800,0.35450610,-0.00346031
1761621741569,0.03352154,0.00217659,-0.02992642,0.02708088,-0.00626736,-0.01066429,0.93143592,0.08225913,0.35446881,-0.00352377
1761621741580,0.03104516,0.04343071,0.04702516,0.04547733,0.01888781,-0.01977959,0.93137440,0.08250698,0.35457175,-0.00363157
1761621741591,0.02976791,0.00415041,-0.02181979,-0.01148873,-0.01307642,-0.03696421,0.93140510,0.08244667,0.35450310,-0.00382563
1761621741602,-0.01242057,-0.06072784,-0.09748649,-0.02926919,0.01020670,-0.00927589,0.93139776,0.08228569,0.35455924,-0.00387664
1761621741613,-0.03845263,-0.06750448,-0.08267468,-0.03400830,-0.00844301,0.00107029,0.93143352,0.08209014,0.35451069,-0.00387049
1761621741625,-0.04887243,-0.04141128,-0.02612633,-0.02277392,0.00126025,0.00117068,0.93144232,0.08195919,0.35451794,-0.00386376
1761621741636,-0.03801962,-0.03751010,-0.02937886,-0.02198575,0.01551888,0.01096032,0.93142032,0.08183607,0.35460484,-0.00380238
1761621741643,-0.10105723,-0.08272762,-0.04780634,-0.01683574,0.02942848,0.01279349,0.93138500,0.08177462,0.35471226,-0.00375569
1761621741677,0.02008254,0.03170351,0.03708457,0.00142983,0.00080228,0.00352212,0.93137806,0.08179842,0.35472561,-0.00369704
1761621741706,-0.01929489,-0.01731788,-0.01182233,-0.01396716,-0.00250800,0.00432727,0.93140992,0.08159590,0.35468925,-0.00363430
1761621741716,-0.18776221,-0.19874989,-0.16926309,-0.02109831,-0.01267476,0.03888305,0.93144368,0.08149146,0.35462651,-0.00344183
1761621741748,0.07177747,0.07330566,0.05995424,0.00425495,0.00179185,-0.00200655,0.93142664,0.08155976,0.35465527,-0.00347403
1761621741758,0.05176236,0.08744266,0.10538917,0.04554474,0.01020555,-0.02336345,0.93138320,0.08180797,0.35471089,-0.00360136
1761621741781,0.00413270,-0.00695142,-0.01668356,-0.00106128,0.00156412,-0.00961792,0.93137713,0.08179603,0.35472848,-0.00370956
1761621741791,0.08589174,0.04399846,-0.00690967,-0.00471529,-0.00477160,-0.03072036,0.93138787,0.08177199,0.35470415,-0.00386624
1761621741814,-0.00758996,-0.03335517,-0.05249862,-0.01604509,-0.01684354,-0.01549619,0.93147510,0.08159148,0.35451466,-0.00404057
1761621741824,0.04679518,-0.01018402,-0.06607720,0.00788504,-0.02302408,-0.00298460,0.93151821,0.08163366,0.35439148,-0.00405654
1761621741836,0.02889406,0.03361014,0.03263593,0.02394657,-0.02459411,-0.00238474,0.93156022,0.08177255,0.35424883,-0.00407037
1761621741848,-0.00408662,0.03686807,0.06997577,0.02891318,-0.00797750,-0.00043858,0.93156304,0.08193881,0.35420296,-0.00407289
1761621741858,0.00350128,0.02188295,0.03594593,0.03072943,-0.03505109,0.00295058,0.93162045,0.08210474,0.35401369,-0.00405696
1761621741870,-0.03390607,-0.01860209,0.00119341,-0.00760601,-0.00452906,0.00292546,0.93163391,0.08206215,0.35398833,-0.00404057
1761621741881,-0.03078372,-0.03168570,-0.02652913,-0.00335055,-0.01562078,0.00750669,0.93167023,0.08204272,0.35389772,-0.00399704
1761621741892,-0.02772024,-0.02699637,-0.02070351,-0.01042639,-0.01120710,0.00320859,0.93169799,0.08198694,0.35383777,-0.00397987
1761621741903,-0.01308673,-0.01642365,-0.01659657,-0.00668445,-0.01390721,0.00126396,0.93173147,0.08194884,0.35375850,-0.00397266
1761621741914,-0.00694046,-0.01707484,-0.02431953,-0.01059738,-0.00850252,0.01127700,0.93175440,0.08189108,0.35371216,-0.00391121
1761621741925,-0.00996590,0.00213151,0.01461227,0.00770301,-0.00503460,-0.00479925,0.93176126,0.08193460,0.35368371,-0.00393832
1761621741937,-0.00140103,0.00134617,0.00388143,-0.01016752,-0.01061194,0.00139266,0.93178934,0.08187665,0.35362322,-0.00393038
1761621741947,0.00267159,0.00608299,0.00758405,0.01415871,-0.00320020,0.00521965,0.93178930,0.08195169,0.35360626,-0.00390272
1761621741959,0.02267191,0.02604660,0.02443512,0.01447711,-0.01580082,-0.02231511,0.93181613,0.08203566,0.35351462,-0.00403215
1761621741970,0.02683585,0.01692698,0.00430604,0.00724278,-0.01053199,-0.00752167,0.93183425,0.08207513,0.35345722,-0.00407314
1761621741981,-0.00330708,0.00313553,0.00837709,0.01004968,-0.01107775,0.00850487,0.93185303,0.08213141,0.35339518,-0.00402551
1761621741992,-0.01463010,-0.01849647,-0.01856973,-0.01642761,-0.00647087,0.00220565,0.93187473,0.08204023,0.35335927,-0.00401327
1761621742003,-0.03908305,-0.03059936,-0.01606677,-0.01586779,0.00136126,0.01715139,0.93187993,0.08195375,0.35336669,-0.00391980
1761621742014,-0.02157226,-0.01755097,-0.00967302,-0.00510956,-0.00836912,0.00737892,0.93189984,0.08192591,0.35332108,-0.00387958
1761621742025,-0.02910547,-0.01616702,-0.00048361,-0.01750153,-0.00266839,0.00611156,0.93191426,0.08182790,0.35330613,-0.00384536
1761621742037,-0.00213528,0.00177136,0.00545489,0.00973873,-0.00299720,0.00831793,0.93191607,0.08188390,0.35328890,-0.00379753
1761621742047,-0.00763348,-0.00383584,0.00103058,-0.01327687,-0.01080574,0.00981976,0.93194390,0.08181419,0.35323217,-0.00374597
1761621742059,0.00107533,-0.00556147,-0.01072455,-0.01257839,-0.01401476,0.00926441,0.93198165,0.08174061,0.35315018,-0.00369178
1761621742070,-0.03462639,-0.01771463,0.00199049,-0.00582367,-0.00377633,0.02361616,0.93199293,0.08170829,0.35312922,-0.00356071
1761621742082,0.01902609,0.00918974,-0.00224219,-0.00549187,-0.00690834,0.00001148,0.93201106,0.08167616,0.35308881,-0.00356064
1761621742092,0.01088498,0.01014877,0.00750365,0.00993538,0.00179026,0.00126604,0.93200280,0.08172931,0.35309839,-0.00355387
1761621742103,0.01413613,0.03309332,0.04502479,0.01768236,0.00341407,-0.00174925,0.93198726,0.08182568,0.35311700,-0.00356340
1761621742115,0.00421701,0.02191429,0.03593906,0.01174787,0.00447574,0.00590096,0.93197170,0.08189323,0.35314273,-0.00352947
1761621742126,-0.00619215,0.00617122,0.01642409,0.00111211,0.00329399,-0.00278312,0.93196438,0.08189924,0.35316052,-0.00354450
1761621742138,-0.01129660,0.00642979,0.02271249,0.01144073,0.00758590,0.01080578,0.93194134,0.08196788,0.35320603,-0.00347966
1761621742149,-0.00737776,0.00438554,0.01684269,0.02004915,0.00999640,0.01412108,0.93191163,0.08207615,0.35326001,-0.00340341
1761621742159,0.00873468,0.01303306,0.01322660,0.01766148,0.00467408,-0.00734476,0.93189368,0.08217064,0.35328502,-0.00344270
1761621742170,-0.01307211,0.00463798,0.02163218,0.01047142,0.00527462,0.00599383,0.93187787,0.08222771,0.35331377,-0.00341004
1761621742201,0.01180917,-0.00922722,-0.02822833,0.00130334,0.00344084,-0.00117886,0.93185572,0.08224797,0.35336727,-0.00342837
1761621742229,0.00025415,0.02079898,0.03706322,0.02319898,0.00143823,-0.00269650,0.93181883,0.08257624,0.35338762,-0.00346653
1761621742250,0.04861485,0.05704176,0.05440070,0.04141837,-0.02994180,-0.00115723,0.93189779,0.08300285,0.35307922,-0.00347844
1761621742270,0.00256003,-0.04491417,-0.08354410,0.00214362,-0.01961658,0.02273626,0.93197210,0.08302461,0.35288011,-0.00324767
1761621742282,0.04347674,0.02781949,0.00628372,0.04562493,-0.01502879,-0.01797102,0.93198089,0.08328239,0.35279520,-0.00334921
1761621742304,-0.02707392,-0.02699233,-0.02148336,0.00065080,-0.00621042,0.00162833,0.93200686,0.08328974,0.35272502,-0.00333081
1761621742315,0.02846514,0.02030462,0.00871168,0.01604877,-0.00455307,-0.00709007,0.93200825,0.08337480,0.35270089,-0.00336839
1761621742327,0.00305405,0.01690456,0.02750434,0.04700546,0.00411033,-0.02652232,0.93197364,0.08365213,0.35272514,-0.00352487
1761621742337,0.07601555,0.04412911,0.00431172,-0.02452018,-0.00287793,-0.03923348,0.93198995,0.08352463,0.35271018,-0.00372888
1761621742348,-0.02279135,-0.06145844,-0.08956017,-0.01325571,-0.01050571,-0.01353276,0.93201906,0.08344907,0.35265030,-0.00380602
1761621742360,-0.03948072,-0.05767242,-0.06437485,-0.03315143,-0.00091014,-0.00182023,0.93203821,0.08325679,0.35264502,-0.00381658
1761621742371,-0.08101698,-0.06061968,-0.02788789,-0.03954456,0.00957528,0.01608204,0.93203805,0.08304720,0.35269577,-0.00373134
1761621742381,-0.07071951,-0.05103376,-0.02226355,-0.02387458,0.00061727,0.02651076,0.93204863,0.08292067,0.35269904,-0.00359083
1761621742393,-0.03124862,-0.00376158,0.02502796,-0.02357008,0.00767362,0.02569824,0.93204440,0.08278043,0.35274470,-0.00343793
1761621742405,-0.04008128,-0.03036900,-0.01518196,-0.00696424,-0.00656822,0.02768354,0.93206314,0.08273969,0.35270627,-0.00327598
1761621742416,-0.00821207,0.00234099,0.01274670,-0.01510634,-0.00997940,0.00214408,0.93209183,0.08265509,0.35265039,-0.00326397
1761621742427,0.00820397,-0.00385671,-0.01459742,-0.01979077,-0.00669602,0.00414657,0.93211485,0.08254921,0.35261456,-0.00324179
1761621742437,0.03432222,0.02296579,0.00695605,0.00577690,-0.00823274,0.00132982,0.93212853,0.08257954,0.35257134,-0.00323481
1761621742462,0.01843034,0.03064154,0.03677125,0.00425927,0.00164866,0.01086054,0.93211668,0.08263193,0.35259162,-0.00310122
1761621742472,-0.22594760,-0.09584332,0.05303988,0.01119217,0.01502073,0.03217375,0.93208415,0.08268733,0.35266597,-0.00294196
1761621742483,0.14920557,0.08389814,0.00227606,0.00888354,0.00503888,-0.00551663,0.93206828,0.08273930,0.35269545,-0.00297424
1761621742494,0.04400182,0.01993818,-0.00759167,0.00348356,-0.01790796,-0.00865569,0.93210337,0.08275828,0.35259785,-0.00302141
1761621742505,0.01745076,-0.00522356,-0.02766612,-0.01687502,-0.00179501,0.00321119,0.93211551,0.08266463,0.35258789,-0.00300359
1761621742516,0.01658059,-0.00862425,-0.03133563,-0.00025765,-0.01730030,-0.00403972,0.93214991,0.08266327,0.35249706,-0.00302480
1761621742526,0.05206959,0.03930984,0.01795911,0.02734602,-0.00154215,-0.02766137,0.93213975,0.08280684,0.35248897,-0.00317002
1761621742538,0.03456030,0.03029521,0.02013510,0.01539911,-0.01763011,-0.00980887,0.93216922,0.08289308,0.35239024,-0.00322495
1761621742549,0.02260369,0.00184450,-0.01936545,-0.00962791,-0.01694772,-0.02689656,0.93221150,0.08283627,0.35229025,-0.00338364
1761621742560,0.11129578,0.00708677,-0.09810175,-0.02141108,-0.03032291,-0.04585903,0.93227875,0.08272707,0.35213560,-0.00361752
1761621742571,-0.03136855,-0.00855994,0.01621331,0.02279270,-0.01762739,-0.00738575,0.93230384,0.08285130,0.35203953,-0.00365777
1761621742582,0.02718768,0.02832832,0.02348440,0.03197390,-0.01715045,-0.01701883,0.93232486,0.08303994,0.35193834,-0.00375818
1761621742593,0.05017903,0.04915765,0.03913220,0.03619728,-0.02663271,-0.00676332,0.93236122,0.08323360,0.35179586,-0.00379436
1761621742604,-0.05086128,-0.00271770,0.04582895,0.02600903,-0.00149204,0.02730352,0.93235213,0.08337665,0.35178765,-0.00364420
1761621742616,-0.03966352,-0.00432162,0.03198482,0.01851571,-0.02541618,-0.00557408,0.93239959,0.08348774,0.35163515,-0.00367764
1761621742627,0.00548582,0.01448424,0.02088192,0.02393481,-0.00212825,-0.00569954,0.93239215,0.08361819,0.35162356,-0.00370870
1761621742638,-0.00904923,0.01270141,0.03181197,0.04132516,-0.00560841,0.00435634,0.93238339,0.08384754,0.35159243,-0.00368452
1761621742649,-0.03095124,-0.00216938,0.02716697,0.01503167,0.00727903,0.00390596,0.93236032,0.08393247,0.35163356,-0.00366246
1761621742660,-0.01992131,0.00323457,0.02619259,0.03120801,0.01115888,-0.01195048,0.93232109,0.08410567,0.35169549,-0.00372878
1761621742672,-0.02240943,0.00588092,0.03252549,0.02589770,0.02024768,0.01193251,0.93226647,0.08424811,0.35180685,-0.00366315
1761621742682,-0.03954921,-0.00925072,0.02299351,0.00741086,0.02331479,0.00326981,0.93221588,0.08428776,0.35193158,-0.00364566
1761621742694,-0.02046877,-0.02213205,-0.01900380,0.01126424,0.00570268,-0.01294149,0.93219718,0.08435309,0.35196466,-0.00372072
1761621742705,-0.01334203,-0.01285704,-0.01034852,-0.00272441,0.02889032,-0.00894736,0.93213619,0.08433756,0.35212933,-0.00377172
1761621742746,-0.00496793,-0.02297293,-0.03654888,0.00352952,0.00217511,0.00299743,0.93211321,0.08440939,0.35217360,-0.00371072
1761621742774,-0.05544946,-0.01029792,0.03662549,-0.02787562,0.02117315,0.01969839,0.93203694,0.08401634,0.35247214,-0.00343297
1761621742796,-0.05935093,-0.07431153,-0.07510049,-0.02381711,0.00703547,0.02151557,0.93203220,0.08376031,0.35254777,-0.00320168
1761621742816,0.09042081,0.05020889,0.00036128,0.01681142,-0.00308779,-0.01290695,0.93202821,0.08393262,0.35251612,-0.00333398
1761621742838,0.06397985,0.04435304,0.01655897,0.01786468,-0.01149330,-0.01981854,0.93205789,0.08413182,0.35238797,-0.00355496
1761621742850,0.08349130,0.06251551,0.02955407,0.02595877,-0.00751369,-0.00229569,0.93206074,0.08428367,0.35234401,-0.00356839
1761621742873,-0.02353068,-0.01555409,-0.00459547,0.01158924,-0.00332326,-0.00580464,0.93206286,0.08441637,0.35230596,-0.00363485
1761621742883,0.07396127,0.06506868,0.04448401,0.02661587,-0.01523354,-0.00599653,0.93207996,0.08455344,0.35222751,-0.00366573
1761621742894,-0.00883111,-0.01379836,-0.01705400,0.02962251,-0.01209455,-0.01541110,0.93208979,0.08471340,0.35216220,-0.00374895
1761621742905,0.02337326,0.02230902,0.01785442,0.01114380,-0.00173005,-0.00272410,0.93208771,0.08477581,0.35215251,-0.00376421
1761621742917,-0.04515533,-0.02786530,-0.00533359,0.00663015,0.01592382,-0.00568351,0.93205018,0.08481327,0.35224248,-0.00379632
1761621742927,-0.05575653,-0.01759577,0.02395440,0.01540407,0.00645120,0.00140932,0.93202966,0.08489568,0.35227700,-0.00378878
1761621742939,-0.01391183,-0.01624443,-0.01552338,0.01395898,0.00864084,-0.00400204,0.93200324,0.08497664,0.35232711,-0.00381199
1761621742950,0.01149120,0.01895900,0.02267513,0.01150001,0.01133562,-0.01225205,0.93197416,0.08503874,0.35238832,-0.00387815
1761621742961,-0.00919390,-0.01785959,-0.02340063,0.00793207,0.00547051,-0.00904187,0.93195789,0.08508435,0.35241978,-0.00393014
1761621742972,0.03446429,0.02756101,0.01652004,0.00951336,0.00613589,-0.02083403,0.93193969,0.08513715,0.35245383,-0.00404577
1761621743016,-0.01643724,-0.02049376,-0.02097174,0.00509857,-0.00164443,-0.00093178,0.93194298,0.08524754,0.35241823,-0.00406594
1761621743043,0.05151996,0.06823884,0.07290447,0.04876079,-0.01626514,0.01174197,0.93196630,0.08590825,0.35219784,-0.00390684
1761621743075,0.01226643,0.01914130,0.02288563,0.06445192,0.00338929,-0.02101717,0.93184907,0.08693625,0.35225190,-0.00424206
1761621743095,0.02506386,0.05487437,0.07624120,0.03260750,0.01463697,-0.01307670,0.93176048,0.08727048,0.35240193,-0.00437610
1761621743127,-0.04864062,-0.08273398,-0.10287091,-0.01373604,0.00086882,-0.01562440,0.93177475,0.08704796,0.35241600,-0.00462921
1761621743140,0.09068137,0.01823344,-0.05701723,-0.01062062,-0.00716290,-0.00674245,0.93179694,0.08698370,0.35237267,-0.00467001
1761621743161,-0.05886191,-0.04739419,-0.02819547,-0.00058526,-0.01218189,0.00651338,0.93184785,0.08697735,0.35224049,-0.00459934
1761621743185,-0.02605147,-0.03038293,-0.02969591,-0.04719431,-0.02005219,0.02611237,0.93199416,0.08640630,0.35199786,-0.00428338
1761621743196,-0.10367558,-0.17189759,-0.21193291,-0.03885259,-0.01805429,0.01606478,0.93205184,0.08619261,0.35189856,-0.00419502
1761621743219,0.01674851,0.04395062,0.06403335,0.00251678,-0.00746651,0.00898973,0.93208178,0.08622130,0.35181345,-0.00409254
1761621743229,-0.01957332,-0.01971803,-0.01625939,0.00491961,-0.01854000,0.02418404,0.93211534,0.08624615,0.35171982,-0.00397041
1761621743261,0.02161601,0.03540203,0.04328332,-0.00243160,-0.00491673,-0.00077015,0.93214857,0.08620724,0.35164115,-0.00398273
1761621743273,-0.02382201,-0.13829596,-0.22978294,-0.07455459,-0.01640103,0.00739773,0.93222779,0.08575619,0.35154192,-0.00393797
1761621743285,-0.02835551,0.01995095,0.06592666,0.00224668,0.00585919,-0.00820428,0.93221381,0.08576899,0.35157532,-0.00398474
1761621743306,0.03285140,0.05909648,0.07500301,0.00055604,0.00103438,-0.01465492,0.93220854,0.08577480,0.35158613,-0.00413788
1761621743318,0.05264070,0.01841156,-0.01873201,-0.00791020,0.00225673,-0.02271936,0.93220715,0.08572616,0.35160001,-0.00427761
1761621743329,0.02161325,0.02735311,0.02861609,0.01924692,-0.00629673,-0.00817187,0.93221017,0.08582913,0.35156632,-0.00432133
1761621743340,0.02189286,0.03645035,0.04462633,0.01588404,-0.00692318,-0.00822651,0.93221644,0.08591887,0.35152721,-0.00436781
1761621743351,0.01872169,0.01034510,-0.00054104,-0.00539413,-0.01459371,-0.00712040,0.93224806,0.08589028,0.35144986,-0.00440554
1761621743362,-0.00216326,-0.00482820,-0.00613514,0.01542125,-0.02537021,-0.00698592,0.93229265,0.08597510,0.35131032,-0.00444397
1761621743373,-0.02838610,-0.01631739,-0.00141623,-0.00918640,-0.01045408,0.00694537,0.93231916,0.08592457,0.35125283,-0.00440577
1761621743384,-0.00145789,-0.00731453,-0.01163937,0.00031301,-0.02004628,0.01318814,0.93236163,0.08592633,0.35114057,-0.00433191
1761621743396,-0.01026672,-0.00570862,-0.00025131,-0.00664534,-0.01151182,-0.00176090,0.93239126,0.08588645,0.35107150,-0.00434248
1761621743407,0.00223013,0.00402151,0.00512528,0.00857328,-0.00332978,-0.00324080,0.93239382,0.08593532,0.35105252,-0.00436095
1761621743418,0.00662156,0.00937327,0.01006468,0.00572156,-0.00042393,-0.00273551,0.93239169,0.08596736,0.35105014,-0.00437627
1761621743429,-0.01259699,0.00637999,0.02449404,0.00436444,0.00429290,-0.01030057,0.93238104,0.08598984,0.35107225,-0.00442932
1761621743440,-0.02360715,-0.00906725,0.00742445,-0.00406990,0.01066908,0.00558642,0.93236079,0.08596705,0.35113200,-0.00439803
1761621743451,-0.05067980,-0.02372104,0.00662207,-0.01615097,0.01044355,0.01626282,0.93234788,0.08587903,0.35118891,-0.00430940
1761621743462,-0.04572145,-0.02933304,-0.00734805,-0.01933349,0.01143354,0.00966136,0.93233422,0.08577269,0.35125180,-0.00425626
1761621743474,-0.03235914,-0.04297991,-0.04669437,-0.04493698,0.01776540,-0.01138473,0.93231864,0.08550532,0.35135750,-0.00432400
1761621743484,-0.00043330,-0.01963355,-0.03537162,-0.02945443,0.01487668,-0.00877650,0.93230316,0.08535068,0.35143561,-0.00437008
1761621743495,0.01616605,0.00368756,-0.00887213,-0.00484448,0.01417211,-0.01631303,0.93227604,0.08532428,0.35151284,-0.00445899
1761621743507,0.02066397,0.02271889,0.02037910,-0.00342738,0.00360032,-0.01299092,0.93226956,0.08530423,0.35153391,-0.00453498
1761621743519,0.05414835,0.04916312,0.03591307,0.02371722,0.00512743,-0.02661374,0.93224350,0.08545009,0.35156544,-0.00469866
1761621743531,0.04935606,0.05161159,0.04510387,0.02382195,0.00438052,-0.02379084,0.93222094,0.08558587,0.35159041,-0.00483427
1761621743542,0.09303161,0.06801339,0.03145186,0.04340313,-0.02430217,-0.03319409,0.93224867,0.08582676,0.35145553,-0.00501849
1761621743553,-0.01546406,-0.00637799,0.00331420,0.02174562,-0.01012604,-0.00498405,0.93225877,0.08594962,0.35139832,-0.00504665
1761621743564,0.01019633,0.00582535,0.00117175,-0.00480399,-0.00319100,-0.00638473,0.93226779,0.08592272,0.35138045,-0.00508241
1761621743575,-0.00926977,-0.01009579,-0.00995152,-0.01256131,0.00265051,0.01479844,0.93226905,0.08585615,0.35139450,-0.00500397
1761621743598,-0.05750341,-0.03958105,-0.01471314,-0.00721819,-0.00361373,0.01000441,0.93229276,0.08577386,0.35135330,-0.00488992
1761621743635,-0.01112114,-0.00869171,-0.00479916,-0.00827212,0.00066576,0.00994126,0.93230336,0.08561752,0.35136588,-0.00470203
1761621743664,-0.01645752,-0.02174792,-0.02330702,-0.00734480,-0.00496675,0.00698585,0.93234052,0.08551175,0.35129436,-0.00460144
1761621743675,-0.05578735,0.04586002,0.13917343,0.04585954,0.01565182,0.02812115,0.93228765,0.08575481,0.35137732,-0.00445240
1761621743697,0.05885905,0.04700689,0.02716451,0.03259502,0.00228859,-0.01475648,0.93224354,0.08611987,0.35140295,-0.00461767
1761621743719,0.04668357,0.03437540,0.01633681,0.02325104,0.01017580,-0.03847504,0.93217610,0.08637331,0.35151387,-0.00503705
1761621743730,0.07460053,0.08540892,0.08164079,0.04621012,0.02224046,-0.01167381,0.93210348,0.08663671,0.35164064,-0.00510359
1761621743752,-0.05053137,-0.05201744,-0.04447649,0.00046692,0.02324655,-0.00143563,0.93200641,0.08664184,0.35189635,-0.00511938
1761621743762,-0.05782444,0.02108884,0.09685758,-0.02860995,0.03030706,0.00395952,0.93196389,0.08650308,0.35204334,-0.00510018
1761621743774,-0.08446054,-0.11207564,-0.12154503,-0.02646558,0.00937850,0.02070244,0.93195818,0.08634826,0.35209820,-0.00497907
1761621743785,-0.06245394,-0.06501556,-0.05616714,-0.01036658,0.00606275,0.00702611,0.93195094,0.08629021,0.35213215,-0.00493972
1761621743796,0.04904245,0.02266945,-0.00807417,0.00255035,0.01026074,-0.01525955,0.93192765,0.08630436,0.35218910,-0.00502441
1761621743807,0.04486917,0.02585873,0.00332588,0.00667328,-0.00337230,-0.00214187,0.93193123,0.08634140,0.35217038,-0.00503630
1761621743819,0.00822668,-0.01186541,-0.03048970,-0.01601448,-0.00492770,-0.00509206,0.93194997,0.08625092,0.35214254,-0.00506507
1761621743829,-0.00241641,-0.02376381,-0.04078189,-0.01918717,-0.00310994,0.00735777,0.93196642,0.08614539,0.35212544,-0.00502460
1761621743841,0.01101708,-0.00376961,-0.01837263,-0.00098858,-0.00430809,-0.00494250,0.93197598,0.08613980,0.35210110,-0.00505253
1761621743852,0.01669791,0.00700131,-0.00319424,-0.01196632,-0.00144906,-0.01423870,0.93198472,0.08607339,0.35209305,-0.00513155
1761621743863,0.00215845,-0.01770116,-0.03489072,-0.03853131,0.00129627,-0.00642110,0.93200138,0.08586147,0.35210018,-0.00516687
1761621743874,-0.02545079,-0.03421730,-0.03724090,-0.04876338,0.00595248,0.01821394,0.93201505,0.08557620,0.35213501,-0.00506032
1761621743886,-0.05396798,-0.03553256,-0.01099910,-0.02451850,0.02438645,0.00343982,0.93197614,0.08543890,0.35227157,-0.00504105
1761621743897,-0.05018201,-0.02509812,0.00412058,-0.00370503,0.01903536,0.02184985,0.93193907,0.08541852,0.35237626,-0.00492088
1761621743908,0.00623294,0.03190721,0.05241492,-0.01710579,-0.00048806,0.00753356,0.93194955,0.08531845,0.35237341,-0.00487681
1761621743920,-0.01421162,-0.01329722,-0.00986697,-0.02171254,-0.00464262,0.00169104,0.93197130,0.08519252,0.35234648,-0.00486700
1761621743931,0.00139477,-0.02191044,-0.04166292,-0.02724903,-0.00782799,-0.00005058,0.93200181,0.08503992,0.35230265,-0.00486728
1761621743941,0.02911532,0.00731360,-0.01499100,-0.03134968,-0.00441922,0.00904835,0.93202491,0.08488161,0.35228033,-0.00482159
1761621743953,0.01617278,0.01181841,0.00511348,-0.00358933,-0.00098594,0.00718089,0.93202907,0.08486133,0.35227476,-0.00478102
1761621743963,0.01805089,0.02486401,0.02776870,-0.00042727,-0.00473296,0.00299920,0.93203893,0.08485904,0.35224944,-0.00476497
1761621743974,0.00300100,0.02707572,0.04623533,0.01407341,0.00631266,0.00960568,0.93201921,0.08493574,0.35228384,-0.00471262
1761621743986,0.01982123,0.03143184,0.03750912,0.00922762,-0.00836849,0.00360276,0.93203231,0.08498742,0.35223698,-0.00469244
1761621743997,0.04491399,0.02664634,0.00345492,0.00149612,-0.02166936,-0.00795994,0.93207677,0.08499572,0.35211671,-0.00473662
1761621744007,0.04172506,0.02617290,0.00647778,0.01146160,-0.00582919,-0.00377451,0.93208297,0.08505819,0.35208494,-0.00475719
1761621744019,-0.01634032,-0.01738257,-0.01544516,-0.02627670,-0.00259737,0.01655427,0.93210235,0.08491104,0.35207040,-0.00466449
1761621744030,-0.06104019,-0.06123264,-0.05074845,-0.04444449,0.00274903,0.01596708,0.93211947,0.08466437,0.35208566,-0.00457587
1761621744041,-0.02872559,-0.03000473,-0.02604846,-0.01431906,-0.00881193,0.01663450,0.93214536,0.08458561,0.35203719,-0.00448438
1761621744053,0.00666040,0.01384774,0.01912612,-0.00695767,0.00083763,-0.00651630,0.93214709,0.08454317,0.35204230,-0.00452413
1761621744063,0.03174025,-0.01269044,-0.05514174,-0.03128471,-0.00310157,-0.01975944,0.93216703,0.08438362,0.35202648,-0.00462490
1761621744075,0.02119477,0.00262810,-0.01606421,-0.04315483,-0.00997375,-0.01161079,0.93221192,0.08412901,0.35196764,-0.00469341
1761621744086,0.00210035,-0.01294823,-0.02596156,0.00002841,-0.00635963,-0.00777819,0.93222466,0.08412916,0.35193329,-0.00473541
1761621744098,0.02517991,0.03394007,0.03705839,-0.00292776,0.00036593,-0.00290835,0.93222532,0.08411189,0.35193545,-0.00475257
1761621744108,0.00793123,0.02155186,0.03114271,0.01290537,-0.00400234,-0.00604524,0.93222703,0.08418222,0.35191364,-0.00478552
1761621744120,0.00619425,0.03810297,0.06312905,0.02072083,0.00737335,-0.00050003,0.93220048,0.08430033,0.35195567,-0.00478837
1761621744131,0.01487438,0.03170136,0.04233808,0.01794450,-0.01076094,-0.00272257,0.93221369,0.08439813,0.35189702,-0.00480320
1761621744137,0.11188369,0.09323124,0.05877438,0.02509405,-0.00691176,-0.00496656,0.93221461,0.08447215,0.35187663,-0.00481786
1761621744166,-0.02627589,-0.01662162,-0.00407782,0.01032742,-0.00331523,-0.00502579,0.93221876,0.08462087,0.35182889,-0.00489023
1761621744175,0.33556580,0.31151580,0.23114423,0.08327982,-0.00796496,-0.02691083,0.93219661,0.08501228,0.35179146,-0.00501671
1761621744187,-0.17043258,-0.13846220,-0.08098461,0.00695461,-0.00689588,-0.00066861,0.93220839,0.08505401,0.35175008,-0.00502072
1761621744198,-0.04461780,-0.03293035,-0.01574094,0.01145583,0.00312041,0.00455391,0.93219575,0.08511988,0.35176802,-0.00499453
1761621744209,-0.03023146,-0.02127614,-0.00857073,-0.00831139,0.00100492,0.01543096,0.93219824,0.08507500,0.35177345,-0.00491121
1761621744220,-0.04466471,-0.03922334,-0.02685556,-0.00250494,-0.00186460,0.01082098,0.93220368,0.08506122,0.35176320,-0.00485169
1761621744231,-0.01193333,-0.02637230,-0.03590104,-0.00777520,-0.00155869,0.00037169,0.93221070,0.08501924,0.35175478,-0.00484968
1761621744243,-0.01538407,-0.02587726,-0.03185037,-0.01458838,-0.00173395,0.00283248,0.93222269,0.08493171,0.35174437,-0.00483269
1761621744253,0.00562634,-0.01363638,-0.03032451,-0.01579830,-0.01118953,0.00360580,0.93225137,0.08485193,0.35168787,-0.00481448
1761621744264,-0.00048137,-0.01033946,-0.01810316,-0.00230090,-0.00783326,-0.00193360,0.93226888,0.08483916,0.35164439,-0.00482521
1761621744275,0.01688335,0.00448356,-0.00902543,-0.00101196,-0.01670787,-0.00017880,0.93230499,0.08483344,0.35154999,-0.00482622
1761621744286,-0.00668426,-0.00831714,-0.00823234,-0.01156662,-0.00711114,0.01066573,0.93232469,0.08477329,0.35151302,-0.00477076
1761621744297,0.00927235,0.00299586,-0.00371923,-0.00486204,-0.01153760,0.00254476,0.93235136,0.08474631,0.35144898,-0.00475664
1761621744308,-0.01332918,-0.00754395,-0.00076272,-0.00110065,-0.00529663,0.01570505,0.93236376,0.08474003,0.35141879,-0.00466712
1761621744319,-0.04066895,-0.01438376,0.01475989,-0.01104637,0.00371436,0.02902852,0.93236240,0.08468094,0.35143866,-0.00451182
1761621744331,-0.01616323,-0.00072725,0.01461538,-0.01099666,-0.00586382,0.01709424,0.93238214,0.08461496,0.35140348,-0.00440925
1761621744342,-0.03968512,-0.02780194,-0.01152993,-0.01826523,0.00343822,0.02219312,0.93238470,0.08451450,0.35142239,-0.00428719
1761621744353,0.00277317,-0.00577550,-0.01258985,-0.01325466,-0.00290282,0.00501966,0.93239779,0.08443961,0.35140599,-0.00425883
1761621744365,0.00131589,-0.00255798,-0.00596832,-0.01739300,-0.00252724,0.00629057,0.93241261,0.08433873,0.35139133,-0.00422234
1761621744376,0.01769260,0.00600203,-0.00642982,-0.00945617,-0.00706655,0.00092360,0.93243216,0.08428625,0.35135211,-0.00421722
1761621744386,0.00019052,-0.00652567,-0.01223512,-0.00183677,0.00484314,0.00160759,0.93242357,0.08427670,0.35137730,-0.00420886
1761621744397,0.02628805,0.03471945,0.03696203,-0.00321005,0.00112131,0.00966878,0.93242310,0.08425968,0.35138324,-0.00415761
1761621744409,-0.00934942,0.00379446,0.01557791,0.00025211,0.00313638,0.00380698,0.93241609,0.08426117,0.35140174,-0.00413515
1761621744421,0.00532529,0.01586710,0.02450992,0.00253529,0.00764205,0.00400395,0.93239754,0.08427638,0.35144760,-0.00411113
1761621744432,0.00369179,0.01319238,0.01952600,0.00851731,0.00624924,0.00150709,0.93237992,0.08432451,0.35148290,-0.00410261
1761621744443,-0.00027747,-0.00260363,-0.00446840,-0.00561104,-0.00512475,-0.00261007,0.93239339,0.08429336,0.35145446,-0.00411710
1761621744455,0.02299948,0.00365888,-0.01571191,0.00119133,-0.01052766,0.00131117,0.93241524,0.08430010,0.35139498,-0.00410969
1761621744466,0.02882439,0.01245021,-0.00660802,0.00288132,-0.01008428,0.00065557,0.93243525,0.08431637,0.35133800,-0.00410599
1761621744477,0.02106167,0.01850449,0.01291850,0.01048503,-0.01231675,0.00187519,0.93245505,0.08437247,0.35127211,-0.00409595
1761621744487,-0.00545074,0.00283560,0.01038463,0.01184504,-0.00141694,0.00474166,0.93245230,0.08443525,0.35126460,-0.00407082
1761621744498,-0.00050525,-0.00015138,-0.00011253,-0.00593956,-0.00998075,0.00255312,0.93247492,0.08440407,0.35121220,-0.00405742
1761621744508,0.00862880,-0.00397631,-0.01539952,0.00043699,-0.00511582,-0.00202016,0.93248497,0.08440640,0.35118483,-0.00406823
1761621744520,-0.01765715,-0.01697057,-0.01303946,-0.01491543,-0.00284248,0.01807010,0.93249958,0.08431915,0.35116820,-0.00396252
1761621744531,-0.01872546,-0.01523068,-0.00928948,0.00585039,-0.01353725,0.00146187,0.93252383,0.08435016,0.35109646,-0.00395477
1761621744542,0.02716617,0.02682401,0.02187886,0.01463129,0.00285470,-0.01472035,0.93250967,0.08443429,0.35111287,-0.00403941
1761621744553,0.02649199,0.03770928,0.04202965,0.02254060,0.00370269,-0.00153964,0.93249073,0.08455826,0.35113323,-0.00404788
1761621744565,-0.00965029,0.00419543,0.01655734,0.00219015,0.00587858,-0.00174348,0.93247682,0.08457085,0.35116704,-0.00405790
1761621744576,0.00512668,0.01257550,0.01832364,0.02917506,0.00748907,-0.00527046,0.93244524,0.08473861,0.35121010,-0.00408821
1761621744587,0.03124173,0.05488254,0.06806372,0.07351125,-0.00214194,-0.02365998,0.93241196,0.08514660,0.35119821,-0.00421952
1761621744598,0.05183482,0.03430668,0.01085843,-0.01150253,0.00171169,-0.02626463,0.93241353,0.08508333,0.35120763,-0.00436398
1761621744609,-0.00843578,-0.04282544,-0.06862539,-0.01815988,-0.00806538,0.00909727,0.93243958,0.08498345,0.35116327,-0.00431394
1761621744621,-0.04121387,-0.06411175,-0.07597710,-0.02855398,-0.00986707,0.00274280,0.93247565,0.08482069,0.35110702,-0.00429831
1761621744631,-0.02089867,-0.03710090,-0.04654781,-0.01550924,0.00431156,0.00180461,0.93247456,0.08473850,0.35112987,-0.00428874
1761621744642,-0.04012378,-0.01552943,0.01171391,0.00012064,0.01044991,0.00625688,0.93245321,0.08473915,0.35118683,-0.00425464
1761621744654,-0.03582703,0.00155163,0.03893216,0.01365431,0.00738990,0.01779657,0.93243053,0.08481767,0.35122932,-0.00415231
1761621744665,0.00161299,0.01183541,0.01933034,0.00697666,-0.00581559,-0.00436966,0.93243905,0.08485639,0.35119704,-0.00417656
1761621744703,0.00906874,0.00282848,-0.00382235,0.00682952,-0.00335374,0.00055503,0.93245131,0.08498649,0.35113315,-0.00416599
1761621744732,0.00878483,0.03296307,0.05123019,0.02034489,0.01282751,0.00478246,0.93235329,0.08528556,0.35132172,-0.00409569
1761621744743,-0.11501528,-0.01931841,0.07909228,0.01375997,0.03243885,-0.00393470,0.93227767,0.08536261,0.35150338,-0.00411772
1761621744765,0.02701961,-0.01400252,-0.05210691,0.00262250,0.01961963,0.00110547,0.93219482,0.08539107,0.35171625,-0.00410573
1761621744787,-0.00986024,-0.01072368,-0.00965750,0.01436235,0.00983103,-0.00621489,0.93213897,0.08554977,0.35182488,-0.00417440
1761621744798,0.07059988,0.05750362,0.03401523,0.01007563,0.00414579,-0.03267733,0.93212459,0.08560468,0.35184748,-0.00435250
1761621744809,0.08495855,0.01276802,-0.06088169,0.00783207,-0.00946335,-0.03022669,0.93213976,0.08564854,0.35179448,-0.00452176
1761621744821,0.02286051,0.00083883,-0.02184688,0.01161368,-0.01097679,-0.01033764,0.93215775,0.08571765,0.35172917,-0.00458327
1761621744833,0.00534910,-0.00199008,-0.00849007,0.04658250,-0.02183312,-0.02259242,0.93217922,0.08597851,0.35160690,-0.00470979
1761621744843,0.05054669,0.03163458,0.00697213,0.00384583,-0.01314684,0.00035817,0.93220317,0.08599851,0.35153854,-0.00470793
1761621744854,-0.04494505,-0.02859547,-0.00644229,0.01450838,-0.01056605,0.00393864,0.93221783,0.08607830,0.35148043,-0.00468627
1761621744866,-0.03197124,-0.02204719,-0.00897070,0.00430138,-0.00423718,-0.00581835,0.93222479,0.08610390,0.35145522,-0.00472089
1761621744876,0.01229815,0.00352097,-0.00613445,0.00980307,-0.01144618,-0.00197648,0.93224315,0.08615683,0.35139341,-0.00473156
1761621744888,0.00162371,0.00587373,0.01000007,0.00909851,-0.01085393,0.00903210,0.93226275,0.08621097,0.35132883,-0.00467782
1761621744899,-0.01462944,-0.01253669,-0.00866002,0.01296862,-0.00341780,-0.00190577,0.93226316,0.08627711,0.35131139,-0.00468754
1761621744910,-0.02532117,-0.01712110,-0.00552628,0.00165128,-0.00584352,0.00712812,0.93227493,0.08628644,0.35127838,-0.00464726
1761621744922,-0.01222745,-0.00131862,0.00920035,0.00718518,-0.00169808,-0.00713703,0.93227458,0.08632811,0.35126853,-0.00468866
1761621744932,-0.01003513,-0.00868736,-0.00615862,-0.00745849,0.01244322,-0.00317438,0.93225431,0.08629045,0.35133137,-0.00470469
1761621744943,-0.01165911,-0.00813069,-0.00263942,0.01483860,0.00225576,-0.00970523,0.93224089,0.08637799,0.35134468,-0.00476195
1761621744954,0.01523854,0.01896795,0.01886828,0.00668274,0.01385267,-0.01805986,0.93220855,0.08641441,0.35142017,-0.00486038
1761621744965,0.00250840,0.00381551,0.00500113,0.00793059,0.01210189,-0.01617462,0.93217922,0.08645764,0.35148613,-0.00494853
1761621744976,0.00429564,0.00055459,-0.00280627,-0.00401261,0.01327636,-0.01421964,0.93215354,0.08643577,0.35155849,-0.00502602
1761621744987,-0.00396016,-0.00720442,-0.00977779,0.00527923,0.00636480,-0.01060377,0.93213704,0.08646533,0.35159413,-0.00508541
1761621744999,-0.01287450,-0.01188087,-0.00900404,-0.00166475,-0.00218357,-0.00237906,0.93214263,0.08645568,0.35158146,-0.00509920
1761621745010,0.02093015,0.00285469,-0.01504762,0.00019096,-0.00844439,-0.00908695,0.93215931,0.08645670,0.35153629,-0.00514782
1761621745021,0.00393191,0.00330668,0.00132501,0.02375011,-0.01481306,-0.00377558,0.93217846,0.08659207,0.35145185,-0.00516934
1761621745032,0.03131779,0.02125899,0.00820059,0.02614529,-0.02322158,-0.00691205,0.93221397,0.08673979,0.35132065,-0.00520839
1761621745043,0.03962453,0.03276131,0.02109939,0.03275013,-0.03495073,-0.00326427,0.93226800,0.08691501,0.35113366,-0.00522586
1761621745054,0.00434482,-0.00059095,-0.00617954,0.01795739,-0.02361129,0.02021291,0.93230940,0.08701647,0.35100026,-0.00511165
1761621745065,0.01191450,0.01288158,0.01212361,0.03358339,-0.01277093,-0.01251295,0.93231821,0.08720118,0.35093002,-0.00518048
1761621745077,-0.01140570,-0.00645300,-0.00001985,0.00508616,-0.01728432,0.00175181,0.93235293,0.08723042,0.35083063,-0.00517040
1761621745089,0.00889627,0.01005864,0.00908525,0.03273763,-0.00528606,-0.00092664,0.93234665,0.08742030,0.35079998,-0.00517578
1761621745100,-0.00987523,0.00424002,0.01815678,0.02357496,-0.00550935,-0.00853794,0.93234553,0.08756175,0.35076692,-0.00522700
1761621745123,-0.02793275,-0.02189718,-0.01245625,0.02323194,-0.00618654,-0.00597075,0.93234674,0.08782078,0.35069794,-0.00529358
1761621745168,-0.00073653,-0.00084564,-0.00076994,0.00028707,-0.00218242,-0.00323113,0.93236415,0.08782723,0.35064894,-0.00536612
1761621745180,0.51108988,0.47531175,0.36645299,0.14057397,-0.00232416,-0.05322324,0.93228766,0.08867067,0.35063500,-0.00568546
1761621745227,-0.12657118,-0.11221249,-0.08049771,0.01421688,-0.00429619,-0.00432964,0.93229321,0.08900761,0.35053318,-0.00578807
1761621745237,0.24973215,0.39329547,0.47846713,0.07542358,-0.00663126,0.03273957,0.93227151,0.08936965,0.35050135,-0.00563092
1761621745266,-0.08394687,-0.12317501,-0.14390080,0.01128567,-0.01195499,0.00197993,0.93232216,0.08953667,0.35032442,-0.00560162
1761621745288,0.00535212,-0.01356098,-0.03028342,-0.00385211,-0.00789395,-0.00937766,0.93235790,0.08949469,0.35023837,-0.00570383
1761621745299,0.05791487,-0.02632737,-0.10642739,-0.03410209,-0.01360809,-0.03314121,0.93240327,0.08930542,0.35016285,-0.00588777
1761621745321,-0.03712833,-0.04132428,-0.03948808,-0.04464576,-0.00882434,-0.00036779,0.93248773,0.08880762,0.35006446,-0.00589187
1761621745332,-0.07496635,-0.11442408,-0.13744186,-0.03035005,0.00868929,0.03689991,0.93248694,0.08864221,0.35011181,-0.00569076
1761621745343,-0.08853559,-0.02665151,0.03923501,-0.02430398,0.01175477,0.02880111,0.93247622,0.08850732,0.35017705,-0.00553092
1761621745355,-0.05812872,-0.01650459,0.02748943,-0.02750478,-0.01247371,0.02013573,0.93251920,0.08834780,0.35010470,-0.00541413
1761621745366,-0.01184780,-0.02282600,-0.03093487,-0.06136574,-0.01213512,0.00610273,0.93257688,0.08800722,0.35003735,-0.00538026
1761621745378,-0.03265784,-0.05399027,-0.06629804,-0.07874464,-0.00374714,0.04116267,0.93262847,0.08755837,0.35001599,-0.00514563
1761621745388,-0.00875325,-0.01322917,-0.01564453,-0.06749241,0.00448996,0.01775084,0.93265333,0.08720404,0.35003957,-0.00505244
1761621745399,-0.00483700,0.00398570,0.01333450,-0.02587816,0.00462778,0.01100069,0.93265755,0.08705653,0.35006595,-0.00498974
1761621745410,-0.04948689,-0.04411249,-0.03188507,-0.01447634,0.04206173,-0.01075063,0.93257779,0.08697691,0.35029728,-0.00504886
1761621745422,0.03596132,0.05857888,0.07234840,-0.01032059,0.03237746,-0.03127378,0.93251409,0.08691912,0.35047860,-0.00522400
1761621745433,0.05537790,0.06909135,0.07212882,-0.00634856,0.02794610,-0.02273703,0.93245483,0.08688166,0.35064348,-0.00535815
1761621745445,0.04336612,0.05560811,0.05932613,0.00865723,0.04276434,-0.04676680,0.93235954,0.08692971,0.35088082,-0.00561770
1761621745456,0.05675146,0.06130144,0.05640839,0.00430934,0.01975039,-0.03994275,0.93231267,0.08695470,0.35099537,-0.00584937
1761621745467,0.03639137,0.02289452,0.00549460,-0.04085898,0.01426317,-0.00113304,0.93230426,0.08673611,0.35107168,-0.00585543
1761621745478,-0.00556736,-0.02551379,-0.04133297,-0.03604136,0.00233270,-0.01179549,0.93231744,0.08653788,0.35108451,-0.00592031
1761621745489,-0.01145147,-0.01293484,-0.01191691,-0.00010023,-0.00498264,0.02963941,0.93232904,0.08653732,0.35105661,-0.00575433
1761621745501,-0.00643022,0.00107945,0.00792552,-0.00875830,-0.00335127,0.00003371,0.93234118,0.08648608,0.35103701,-0.00575413
1761621745511,0.00757533,-0.02494938,-0.05293461,-0.02704614,-0.03259265,0.00511519,0.93241669,0.08634815,0.35087078,-0.00572804
1761621745522,0.02321404,-0.00591578,-0.03358732,-0.01612913,-0.05706223,0.01821301,0.93254009,0.08626186,0.35056550,-0.00563060
1761621745533,0.03415551,0.02032064,0.00331103,0.02406754,-0.04067107,0.01246051,0.93261362,0.08639663,0.35033774,-0.00556082
1761621745545,0.01380384,0.01845630,0.02001122,-0.00491126,-0.04708381,0.02394610,0.93272510,0.08636668,0.35005053,-0.00541475
1761621745556,0.02779161,-0.00248537,-0.03144934,0.00688969,-0.02546668,0.00004081,0.93277325,0.08640388,0.34991301,-0.00541453
1761621745567,0.01469021,-0.00748921,-0.02856056,-0.03897841,-0.04975262,0.00083171,0.93289571,0.08618950,0.34963937,-0.00540996
1761621745578,0.02846452,0.00170148,-0.02516293,-0.00817032,-0.03924315,-0.00603165,0.93298208,0.08614374,0.34941961,-0.00544373
1761621745589,0.02924725,-0.00631098,-0.03973417,-0.02230011,-0.04766450,-0.01298001,0.93309210,0.08601998,0.34915507,-0.00551577
1761621745600,0.03842787,0.00886803,-0.02169410,-0.00120434,-0.05222943,-0.01674647,0.93320156,0.08601323,0.34886259,-0.00560955
1761621745611,0.05138987,0.01209530,-0.02818763,-0.02431753,-0.03339663,-0.02463925,0.93328170,0.08587949,0.34867890,-0.00574507
1761621745622,0.04085504,0.00775076,-0.02623097,-0.00646840,-0.05733405,-0.02869152,0.93340174,0.08584391,0.34836357,-0.00590287
1761621745633,0.06292970,0.00574380,-0.04981421,-0.00655466,-0.05790707,-0.01100188,0.93352347,0.08580786,0.34804508,-0.00596338
1761621745645,-0.04739227,0.00399135,0.05307318,-0.03860503,-0.04954110,0.00631397,0.93364693,0.08559167,0.34776765,-0.00592802
1761621745656,0.00659843,-0.04122446,-0.07951483,-0.05359742,-0.07263418,0.01149749,0.93382301,0.08529689,0.34736816,-0.00586479
1761621745667,-0.01246895,-0.06922767,-0.11305178,-0.07050876,-0.07155004,0.00819754,0.93400491,0.08490909,0.34697464,-0.00581970
1761621745678,-0.04181016,-0.03976601,-0.03054660,-0.04897979,-0.06929636,-0.01088380,0.93417349,0.08463480,0.34658658,-0.00588065
1761621745690,0.01032340,0.00613955,0.00205627,-0.01161153,-0.06541753,-0.01628311,0.93432219,0.08456629,0.34620061,-0.00597672
1761621745701,0.03794672,0.01370005,-0.01019968,-0.00733555,-0.07857507,0.00064318,0.93448886,0.08452522,0.34576059,-0.00597312
1761621745712,0.02880295,0.01664115,0.00211884,-0.02395756,-0.06966911,0.00971665,0.93464139,0.08439465,0.34538090,-0.00592016
1761621745723,-0.01499239,-0.00838540,0.00048300,-0.06033757,-0.06268911,0.01764819,0.93479924,0.08406279,0.34503611,-0.00582310
1761621745751,-0.07713908,0.02958193,0.12809107,-0.02522210,-0.02882528,0.00402467,0.93498271,0.08370464,0.34462679,-0.00576595
1761621745786,0.02885799,-0.03218506,-0.08513360,-0.02458987,-0.06499645,-0.00103232,0.93543426,0.08327923,0.34350235,-0.00578381
1761621745813,0.09744377,-0.05752484,-0.19390698,-0.05788449,-0.13426646,0.02882533,0.93617753,0.08248911,0.34166961,-0.00539034
1761621745824,0.10642364,-0.09636314,-0.26504952,-0.05135913,-0.15054813,0.02954348,0.93651696,0.08219636,0.34081149,-0.00522194
1761621745846,-0.13100424,0.11174958,0.32264175,-0.02058459,-0.08935878,0.00271523,0.93688896,0.08197302,0.33984194,-0.00519248
1761621745870,0.01199426,0.03359693,0.04893701,0.01053400,-0.08291572,0.00125510,0.93723248,0.08209732,0.33886354,-0.00517767
1761621745891,-0.00782470,0.04457501,0.08609510,0.00193616,-0.03937120,0.00379700,0.93738028,0.08211765,0.33845014,-0.00513781
1761621745902,0.17876995,-0.02635632,-0.21223379,-0.01434301,-0.04725010,0.04568831,0.93748232,0.08203876,0.33819026,-0.00488652
1761621745913,-0.18551803,0.00686751,0.18632567,0.00959727,-0.02320519,0.03078612,0.93752691,0.08209443,0.33805567,-0.00470796
1761621745935,-0.08937724,0.02209952,0.12180938,0.01527259,-0.00551698,-0.00547162,0.93753376,0.08226243,0.33799499,-0.00476815
1761621745974,-0.01674985,0.00696976,0.02771308,0.00202031,-0.00069002,-0.00430189,0.93753471,0.08230152,0.33798164,-0.00485139
1761621746010,0.03166643,0.02932978,0.02178077,0.05122438,0.00489550,-0.02735885,0.93741951,0.08321843,0.33806927,-0.00534111
1761621746035,0.03847344,0.08343475,0.11028429,0.03248877,0.02736225,-0.01496131,0.93725629,0.08363104,0.33841677,-0.00553112
1761621746048,-0.13004115,-0.00189200,0.11806696,-0.03680492,0.05466543,0.02286939,0.93714764,0.08338629,0.33878029,-0.00537904
1761621746099,-0.02862276,-0.06146284,-0.08101407,0.00316449,0.01088622,0.00943436,0.93704183,0.08346667,0.33905680,-0.00513941
1761621746103,-4.41444439,1.28459342,6.37421321,0.24616735,0.45455604,0.10530517,0.93672544,0.08388515,0.33982955,-0.00496039
1761621746142,0.32052366,-0.09939348,-0.47322562,0.01385514,0.06796305,0.02232069,0.93621378,0.08415948,0.34117521,-0.00451844
1761621746188,0.00516014,-0.01200058,-0.02566764,-0.00844123,0.04048949,0.01912392,0.93589544,0.08396660,0.34210040,-0.00408146
1761621746220,-0.11916306,-0.03414703,0.05288495,-0.03855177,0.06076714,0.01866594,0.93559400,0.08334592,0.34307875,-0.00378094
1761621746231,-0.94363812,-0.48576338,0.04181707,-0.02946432,0.12074221,0.08709396,0.93536231,0.08318092,0.34375491,-0.00329321
1761621746279,0.30706875,0.12523041,-0.07047985,0.01835644,0.02384197,0.01272273,0.93511667,0.08361597,0.34431996,-0.00299168
1761621746291,-1.09351675,-0.15939032,0.76990376,-0.08052604,0.16866188,0.04931123,0.93478192,0.08312476,0.34534880,-0.00269088
1761621746318,0.42881609,0.03911810,-0.34242045,-0.01958171,0.02876033,0.01451785,0.93466019,0.08285551,0.34574425,-0.00249126
1761621746341,0.01478153,0.00700517,-0.00155562,0.00844410,0.01219075,0.00897558,0.93460154,0.08295008,0.34588079,-0.00239074
1761621746378,0.06955623,0.02377440,-0.02504438,-0.00686226,-0.00075327,0.00949909,0.93461830,0.08282382,0.34586693,-0.00221595
1761621746409,-0.01628205,-0.02115831,-0.02180524,-0.01916550,-0.02440815,0.00448354,0.93478466,0.08252675,0.34548860,-0.00214646
1761621746446,0.05056806,0.01126256,-0.02905137,0.01131653,-0.04983738,0.01812453,0.93510972,0.08273780,0.34455914,-0.00180843
1761621746487,0.01239476,0.00614826,-0.00113015,-0.01728093,-0.02103327,0.01055526,0.93530108,0.08238182,0.34412585,-0.00159100
1761621746509,-0.06074537,-0.12615035,-0.16424311,-0.09308414,-0.01316396,0.03003451,0.93544511,0.08135324,0.34398039,-0.00125912
1761621746532,-0.05191494,0.01744609,0.08169997,-0.01866998,0.01058901,0.02142767,0.93541972,0.08114227,0.34410005,-0.00101698
1761621746577,0.01847518,0.03977462,0.05236263,-0.00203281,0.00341466,0.00252743,0.93539532,0.08109622,0.34417739,-0.00095974
1761621746611,-0.00207499,-0.00609618,-0.00858517,-0.01835606,-0.01715084,0.00468735,0.93552608,0.08079243,0.34389354,-0.00088216
1761621746643,0.00668370,-0.01940184,-0.04049015,-0.05282156,-0.03087810,0.03057206,0.93578759,0.07992352,0.34338560,-0.00037925
1761621746666,0.01718112,-0.06509760,-0.13044737,0.01664380,-0.06481561,0.00452193,0.93603774,0.08010993,0.34265966,-0.00032860
1761621746720,0.01808121,0.05762821,0.08360997,0.00028104,0.00125825,-0.00884834,0.93602437,0.08011761,0.34269407,-0.00057061
1761621746743,0.00138904,-0.04297664,-0.07632528,-0.05065282,0.08327159,-0.03561347,0.93572125,0.07953257,0.34365586,-0.00098194
1761621746777,-0.07280454,0.00055216,0.07105674,-0.02174268,0.01215072,0.02464010,0.93567810,0.07917164,0.34385756,-0.00057292
1761621746810,0.00733178,-0.00040497,-0.00766065,-0.00662023,-0.00199524,0.00927136,0.93570003,0.07905976,0.34382384,-0.00041623
1761621746822,-0.05638046,-0.02122170,0.01779073,0.02670050,0.00257146,0.01249595,0.93568180,0.07921196,0.34383850,-0.00034500
1761621746843,0.05569167,0.05752485,0.04645056,0.01330381,0.02106755,0.00678075,0.93558601,0.07935564,0.34406603,-0.00027177
1761621746885,0.01269413,0.00054717,-0.01126086,-0.01140206,0.00900469,-0.00093639,0.93553683,0.07911676,0.34425468,-0.00029139
1761621746927,-0.00659641,-0.00982863,-0.01075855,-0.01185809,0.00361405,-0.01307023,0.93552987,0.07887012,0.34432985,-0.00056325
1761621746938,0.08421150,-0.04269128,-0.15565980,0.01138822,-0.01172047,-0.00467852,0.93554863,0.07893389,0.34426422,-0.00058945
1761621746969,0.00322114,0.04424696,0.07395539,0.02360543,0.00160784,-0.00114188,0.93550812,0.07930331,0.34428938,-0.00060732
1761621747005,0.00599404,0.01280906,0.01655379,0.02205686,0.00594486,-0.00508344,0.93543533,0.07969813,0.34439579,-0.00069831
1761621747016,0.06591910,0.15651472,0.20979099,-0.01618469,-0.01037834,0.01820017,0.93546243,0.07961397,0.34434182,-0.00060367
1761621747066,-0.02257207,-0.04717717,-0.06057358,-0.00438055,-0.00553376,0.00537789,0.93552310,0.07950380,0.34420265,-0.00046842
1761621747108,0.00474960,0.00203119,-0.00105163,0.01015859,-0.00811223,0.00254654,0.93556805,0.07971916,0.34403067,-0.00041443
1761621747154,0.00081139,0.00762757,0.01259922,0.01122378,-0.00050235,-0.00273670,0.93555016,0.07997843,0.34401907,-0.00047765
1761621747197,-0.00079915,-0.01381477,-0.02342415,-0.01786364,-0.01118348,0.00641419,0.93566966,0.07959972,0.34378198,-0.00034167
1761621747241,0.01135450,0.00461581,-0.00288851,0.01197757,0.00539043,-0.01703000,0.93560342,0.07986323,0.34390057,-0.00071633
1761621747290,-0.00420659,0.00543966,0.01359424,-0.00267727,0.00620400,-0.00519762,0.93555302,0.07979764,0.34405256,-0.00084367
1761621747293,-0.28498300,-1.71262246,-2.71992492,-0.21227765,-0.10359837,0.05830056,0.93564856,0.07943676,0.34387645,-0.00074456
1761621747361,0.00154555,0.07043051,0.12170407,-0.00849818,-0.00438199,0.01238658,0.93572815,0.07914740,0.34372724,-0.00032280
1761621747381,-0.02546163,-0.01484971,-0.00122262,-0.01852411,0.02844218,-0.02994199,0.93564313,0.07897050,0.34399886,-0.00060874
1761621747427,0.01327804,0.01133642,0.00695975,-0.02091288,0.01015977,-0.00974905,0.93559699,0.07848427,0.34423508,-0.00083541
1761621747451,-0.04953254,-0.09269005,-0.11341359,-0.05684273,-0.00367680,0.01844838,0.93566915,0.07781353,0.34419169,-0.00061772
1761621747482,0.02068801,0.04129657,0.05190707,0.00886729,-0.00979274,-0.00050438,0.93571453,0.07795407,0.34403648,-0.00062571
1761621747494,0.14462530,0.03971006,-0.06996189,0.01579576,-0.04219011,-0.02678312,0.93579458,0.07804332,0.34379810,-0.00077704
1761621747516,-0.00689247,0.02231285,0.04530096,-0.00992054,-0.01019242,0.00013455,0.93584646,0.07793072,0.34368242,-0.00077551
1761621747539,-0.02042812,-0.01173782,-0.00061281,-0.01425536,-0.00013836,0.00378236,0.93586047,0.07776964,0.34368086,-0.00073277
1761621747550,-0.05590129,-0.02954653,0.00242009,0.00411867,0.01473516,0.01038424,0.93582915,0.07779208,0.34376116,-0.00067617
1761621747595,0.00230317,0.01545188,0.02459808,-0.00346867,0.00509814,0.00543032,0.93579357,0.07771404,0.34387587,-0.00055399
1761621747630,-0.00883215,-0.00403383,0.00149602,0.00479957,0.00735191,-0.00828846,0.93573874,0.07779875,0.34400563,-0.00070028
1761621747662,0.02622806,0.00369279,-0.01880721,-0.02403165,-0.00619782,-0.01023205,0.93580758,0.07741064,0.34390554,-0.00086553
1761621747698,-0.00951014,-0.00635457,-0.00184418,-0.00005138,0.00118526,0.00466988,0.93580002,0.07740973,0.34392652,-0.00078287
1761621747727,-0.01105105,-0.00834480,-0.00378923,-0.01042600,-0.01235336,0.00536424,0.93587946,0.07725647,0.34374492,-0.00070402
1761621747738,0.04524626,-0.14504855,-0.29374061,-0.07739305,-0.06568397,0.02454365,0.93604263,0.07684241,0.34339351,-0.00057271
1761621747762,-0.00226835,0.04353505,0.07737390,-0.00700225,-0.01278918,-0.00255084,0.93610711,0.07675664,0.34323684,-0.00060396
1761621747794,0.00754954,0.01524747,0.01916802,-0.01941514,-0.00051318,-0.00585898,0.93613503,0.07645085,0.34322876,-0.00069624
