UnixTime(ms),Ax,Ay,Az,Gx,Gy,Gz,QuatW,QuatX,QuatY,QuatZ
1757984260117,0.00000000,0.00000000,0.00000000,0.00000000,0.00000000,0.00000000,0.99475295,0.08641808,0.02605006,0.04816509
1757984260138,0.26238480,-0.08246255,-0.13020128,-0.00615028,-0.01437127,-0.00745369,0.99476610,0.08635443,0.02590132,0.04808795
1757984260144,5.10605866,-0.93951523,-2.07927330,-0.06618519,-0.10167084,-0.05209153,0.99480200,0.08613602,0.02556581,0.04791605
1757984260154,-2.49521423,0.24531586,1.13682755,-0.03854929,-0.03161620,-0.01538219,0.99482496,0.08595483,0.02541721,0.04784375
1757984260164,-0.22485508,0.17254450,0.13901396,-0.01744366,-0.04031099,-0.01954046,0.99484353,0.08586151,0.02520155,0.04773921
1757984260176,0.03698087,0.16091985,0.15116968,-0.00917808,-0.01849617,-0.00211892,0.99485109,0.08581057,0.02509889,0.04772745
1757984260187,-0.08586352,0.11813378,0.02390377,0.01245550,-0.02178239,-0.00994136,0.99485081,0.08588032,0.02497691,0.04767178
1757984260198,-0.02920544,0.06990499,0.04848463,0.01094279,-0.01464509,-0.00693058,0.99484940,0.08594270,0.02489343,0.04763227
1757984260209,-0.01348602,0.02759102,-0.02843255,0.00291741,-0.02360861,-0.00768853,0.99485328,0.08595874,0.02476359,0.04758998
1757984260220,-0.06073251,0.00738341,0.08786225,-0.00474321,-0.00899129,-0.01127173,0.99485985,0.08593218,0.02471324,0.04752686
1757984260232,0.21827622,-0.06524614,0.07832933,0.00780009,-0.01472972,-0.01839170,0.99486306,0.08597625,0.02463001,0.04742295
1757984260243,0.15604193,-0.06859665,0.02678258,0.00735828,-0.01868716,-0.02083669,0.99486760,0.08601709,0.02452630,0.04730731
1757984260254,0.07716046,0.02037859,0.13545411,-0.03569873,-0.00719563,-0.03006029,0.99489361,0.08581896,0.02448636,0.04714047
1757984260265,-0.34262203,-0.08386220,-0.14256074,-0.02233791,-0.02382057,-0.03264373,0.99491652,0.08569275,0.02435178,0.04695603
1757984260276,-0.04294485,-0.01409128,-0.04014409,-0.00430893,-0.02346230,-0.01284708,0.99492527,0.08566841,0.02421921,0.04688345
1757984260288,-0.03352007,0.15498110,0.04124872,-0.01675186,-0.02763038,-0.02317079,0.99494368,0.08557208,0.02406034,0.04675022
1757984260299,0.03486242,0.00800480,-0.05106670,-0.00308322,-0.02862950,-0.02334449,0.99495486,0.08555528,0.02390431,0.04662299
1757984260310,-0.01926912,-0.01905138,-0.00160734,0.00489398,-0.03536277,-0.01433969,0.99496111,0.08558318,0.02370274,0.04654125
1757984260321,-0.01044947,-0.04247120,0.00268443,0.01172208,-0.04836705,-0.01442364,0.99496553,0.08564706,0.02343914,0.04646264
1757984260332,-0.14468463,0.27824045,0.30380375,0.00317725,-0.02891133,-0.02111481,0.99497345,0.08566517,0.02327435,0.04634229
1757984260345,-0.22099076,0.10309245,0.05841639,0.00419716,-0.04371297,-0.01900497,0.99498277,0.08569056,0.02300988,0.04622731
1757984260355,0.15230957,0.09861151,0.12304172,-0.00053090,-0.02818079,0.00010787,0.99498622,0.08568791,0.02286898,0.04622785
1757984260366,-0.05792840,-0.22247944,-0.34152818,0.00864776,-0.02324321,-0.00533638,0.99498642,0.08573590,0.02273998,0.04619823
1757984260377,-0.06472512,-0.09224962,-0.11680487,0.01424957,-0.01336342,-0.00272666,0.99498195,0.08581570,0.02266514,0.04618296
1757984260388,-0.00956923,-0.00976017,0.00951088,0.01275752,-0.00164593,0.00620928,0.99497432,0.08588778,0.02265584,0.04621804
1757984260400,-0.14645593,-0.04122355,-0.03454259,0.00432859,-0.01562661,-0.00216037,0.99497478,0.08591224,0.02256755,0.04620584
1757984260411,-0.02860869,-0.07834039,-0.02416191,0.01311899,0.00434049,-0.00997672,0.99497048,0.08598570,0.02259186,0.04614997
1757984260422,-0.00320736,0.08983580,0.03611251,0.01079340,-0.00458760,-0.01644550,0.99497010,0.08604615,0.02256617,0.04605787
1757984260433,0.27632357,0.40039193,0.18739834,0.00932706,-0.00274672,-0.01082429,0.99496875,0.08609791,0.02255093,0.04599780
1757984260444,-0.02415741,0.02420851,-0.01371556,0.00929522,-0.00571283,-0.01192059,0.99496805,0.08614997,0.02251893,0.04593104
1757984260456,0.00285389,-0.02127159,-0.03015808,0.00599455,-0.00354732,0.00346540,0.99496467,0.08618384,0.02249889,0.04595062
1757984260467,-0.31951899,-0.34312115,-0.21939215,0.00660459,-0.01343198,0.00598057,0.99496159,0.08622115,0.02242300,0.04598441
1757984260478,0.01681831,-0.05934679,-0.02237305,0.00617376,-0.00809231,0.00812172,0.99495754,0.08625542,0.02237809,0.04602949
1757984260489,0.01388933,-0.13596075,-0.01997029,-0.00114472,-0.01231956,0.01150497,0.99495668,0.08624912,0.02231033,0.04609277
1757984260500,0.00693524,-0.06154893,0.03602611,-0.01706675,-0.01358656,0.00848523,0.99496446,0.08615355,0.02223425,0.04614028
1757984260511,-0.02185757,-0.00647412,-0.01425494,-0.01721188,-0.02142566,0.00897878,0.99497314,0.08605716,0.02211426,0.04619057
1757984260522,0.10735796,-0.02705141,0.02781647,-0.00756639,-0.01742471,0.00069525,0.99497874,0.08601517,0.02201756,0.04619442
1757984260534,0.18213740,-0.08807540,0.11513599,-0.01858890,-0.03698443,-0.00801913,0.99499424,0.08591200,0.02181229,0.04614992
1757984260545,0.03518391,-0.03576792,-0.01882306,-0.00795133,-0.02459640,-0.00639088,0.99500283,0.08586707,0.02167332,0.04611381
1757984260556,-0.03110114,0.08412368,-0.01470131,-0.01167967,-0.02424737,0.00889753,0.99500905,0.08580225,0.02153875,0.04616319
1757984260567,-0.22244873,0.11136028,-0.18319093,0.00042053,-0.02376200,0.00203899,0.99501119,0.08580461,0.02140568,0.04617461
1757984260578,-0.03811051,0.06130799,-0.05897610,0.00565620,-0.01700600,-0.00414455,0.99501158,0.08583600,0.02131130,0.04615161
1757984260589,-0.01449787,0.05559533,-0.07364623,0.02327597,-0.01830459,-0.00471606,0.99500374,0.08596634,0.02120879,0.04612520
1757984260601,0.03361625,0.06245639,-0.00019005,0.01650285,-0.02219565,-0.01002459,0.99500102,0.08605793,0.02108561,0.04606956
1757984260612,-0.02702017,-0.04990084,0.03440020,0.01076141,-0.02118111,-0.04175888,0.99500911,0.08611820,0.02096699,0.04583571
1757984260623,0.03195482,0.02194666,0.13779773,-0.04628344,-0.02203494,-0.02175004,0.99503970,0.08585901,0.02084360,0.04571391
1757984260634,0.11095093,0.03477611,0.25563854,-0.02675087,-0.01959817,-0.00627085,0.99505652,0.08570921,0.02073385,0.04567879
1757984260645,-0.01400866,-0.00715551,0.07626204,-0.03857009,-0.01071816,0.00127452,0.99507585,0.08549514,0.02067436,0.04568587
1757984260656,-0.12082558,-0.10008769,-0.05752488,-0.03667814,-0.00451558,-0.00405192,0.99509505,0.08528974,0.02064907,0.04566318
1757984260668,-0.16131837,-0.19873759,-0.21952604,-0.01880257,-0.00871399,-0.00214752,0.99510563,0.08518445,0.02060028,0.04565115
1757984260679,0.05816298,-0.06478316,0.02024901,-0.02113453,-0.01969681,0.00754831,0.99511600,0.08506715,0.02049096,0.04569304
1757984260690,0.00399106,0.02957012,0.02999341,-0.00672207,-0.02344964,-0.00413357,0.99512291,0.08502985,0.02036081,0.04567010
1757984260701,0.00528032,0.08149447,0.02053053,-0.00121393,-0.02283052,0.00101623,0.99512584,0.08502305,0.02023296,0.04567579
1757984260712,-0.04799162,0.07088862,0.01900658,0.00873201,-0.01804931,0.00138838,0.99512335,0.08507195,0.02013189,0.04568357
1757984260723,0.04288360,0.06866128,0.04846679,-0.00279308,-0.01499142,0.00692420,0.99512460,0.08505631,0.02004793,0.04572234
1757984260735,0.10691203,0.07329414,0.06462238,0.00303994,-0.01321183,0.01200327,0.99512154,0.08507333,0.01997395,0.04578956
1757984260746,-0.00742600,0.00227872,0.09271868,-0.01034975,-0.00569959,0.01238307,0.99512392,0.08501589,0.01994232,0.04585829
1757984260757,-0.04882851,-0.10456724,0.01169504,-0.01028402,0.00151652,0.01238278,0.99512547,0.08495830,0.01995081,0.04592763
1757984260768,-0.26774886,-0.03438526,-0.02689054,-0.01783562,-0.00727629,0.00985638,0.99513232,0.08485753,0.01990970,0.04598332
1757984260779,0.03629947,0.05567387,0.04556806,-0.01373824,-0.00116816,0.01349240,0.99513549,0.08478128,0.01990321,0.04605820
1757984260791,0.06975716,0.10139520,0.02473424,0.00308059,0.00983725,0.01676273,0.99512857,0.08479853,0.01995830,0.04615207
1757984260802,-0.04371514,0.11472255,0.03041053,0.00886929,0.00289253,0.00000490,0.99512401,0.08484820,0.01997450,0.04615210
1757984260813,0.00770784,0.01825429,0.05078665,0.00723722,0.00257483,-0.01325259,0.99512370,0.08488836,0.01998879,0.04607855
1757984260824,0.18201646,-0.03186800,-0.02805835,0.00330543,0.00312497,-0.00493002,0.99512305,0.08490671,0.02000613,0.04605119
1757984260835,0.25909954,0.04405118,0.00978582,0.00126567,0.00591298,-0.00445077,0.99512294,0.08491380,0.02003925,0.04602626
1757984260846,-0.02173878,0.00288069,0.02470856,-0.00342965,0.00065465,-0.00240133,0.99512512,0.08489459,0.02004291,0.04601282
1757984260858,-0.03302394,-0.08152042,0.00950329,0.01534828,0.00918552,-0.00216129,0.99511731,0.08498054,0.02009435,0.04600071
1757984260869,-0.19420452,0.08772122,0.07944971,0.01466504,-0.00562782,0.00082764,0.99511077,0.08506193,0.02006312,0.04600531
1757984260880,0.02539765,-0.01635729,-0.03192847,0.03494268,-0.01025895,-0.00001604,0.99509533,0.08525587,0.02000618,0.04600522
1757984260891,0.03404111,0.09178005,0.03443325,0.02821408,-0.02253354,-0.00448641,0.99508538,0.08541527,0.01987887,0.04597987
1757984260902,0.01843871,0.02303260,-0.03505367,0.04418140,-0.01391072,-0.00724786,0.99506770,0.08566048,0.01980166,0.04593964
1757984260913,0.02987247,0.01224529,-0.02418823,0.03588089,-0.01077149,-0.00106050,0.99505200,0.08585962,0.01974188,0.04593376
1757984260924,-0.12747199,0.02071117,-0.00677271,0.01726701,-0.01485573,0.00153192,0.99504496,0.08595545,0.01965943,0.04594226
1757984260936,-0.10812400,0.00002247,-0.00716468,0.01080048,-0.01163081,-0.00262744,0.99504164,0.08601701,0.01959314,0.04592728
1757984260947,0.02453712,-0.07184836,0.01360268,0.00315825,-0.01841229,-0.00451136,0.99504327,0.08603439,0.01949187,0.04590247
1757984260958,0.06387834,-0.11268911,-0.02238903,0.00564390,-0.02047131,-0.01040251,0.99504548,0.08606627,0.01937620,0.04584370
1757984260969,0.16489525,-0.03010338,0.00215768,0.01109165,-0.01167921,-0.00835654,0.99504355,0.08612783,0.01931138,0.04579732
1757984260980,-0.01722472,0.00351290,-0.04479389,0.02269086,-0.01532132,-0.01237399,0.99503739,0.08625490,0.01922559,0.04572802
1757984260991,0.03515825,-0.00154902,-0.01188679,0.01048225,-0.01963782,-0.00559116,0.99503588,0.08631308,0.01911660,0.04569699
1757984261003,-0.00322654,-0.01597632,-0.01139645,0.00518555,-0.03263241,-0.00976071,0.99503939,0.08634238,0.01893222,0.04564184
1757984261014,0.02958545,-0.02403334,-0.03498770,0.01237955,-0.02983437,-0.00891113,0.99503883,0.08641046,0.01876813,0.04559283
1757984261025,0.09698973,-0.01365288,-0.06400035,0.01259139,-0.01821166,-0.02004348,0.99503976,0.08648097,0.01866615,0.04548059
1757984261036,0.06937403,-0.07097771,-0.12734411,0.00893678,-0.02215187,-0.02437263,0.99504396,0.08653102,0.01854210,0.04534410
1757984261047,-0.04308313,-0.08184936,-0.04704611,0.00474063,-0.01235310,-0.01072994,0.99504566,0.08655733,0.01847354,0.04528455
1757984261058,-0.12539101,-0.00699477,0.08939087,0.00026530,-0.00694784,-0.01098870,0.99504905,0.08655882,0.01843463,0.04522302
1757984261070,-0.19228026,-0.05032880,0.10621226,-0.01950649,-0.01170898,-0.03309103,0.99506799,0.08645056,0.01836965,0.04503936
1757984261081,-0.05200313,0.02535657,-0.02476940,-0.02391487,0.00044853,-0.01494094,0.99508349,0.08631544,0.01837218,0.04495494
1757984261092,-0.07259681,0.02425620,-0.07347229,0.00677394,-0.00256945,0.00015234,0.99508046,0.08635303,0.01835792,0.04495579
1757984261103,-0.01535953,0.10358611,-0.05224658,0.01419277,0.00959293,0.00659026,0.99507098,0.08643180,0.01841116,0.04499237
1757984261114,0.00229788,0.06273823,-0.05127905,0.01281305,0.00845460,0.00666493,0.99506226,0.08650291,0.01845808,0.04502936
1757984261125,-0.30839998,-0.07286705,-0.23220704,0.01594419,0.00465857,0.00124513,0.99505377,0.08659140,0.01848394,0.04503627
1757984261137,-0.15789548,-0.01410284,-0.14044966,0.01081419,0.01089755,-0.00323229,0.99504813,0.08665251,0.01854551,0.04501800
1757984261148,0.00490131,-0.10076868,-0.04107768,0.00108173,-0.00008431,-0.01291105,0.99505091,0.08665862,0.01854503,0.04494506
1757984261159,0.27779391,-0.04072999,0.19802535,-0.02675216,-0.01005704,-0.02150061,0.99507007,0.08651148,0.01848972,0.04482680
1757984261170,0.23058423,-0.00778037,0.13368617,-0.06008595,-0.02745022,-0.00656490,0.99510347,0.08617800,0.01833737,0.04479037
1757984261181,0.02576817,-0.05721170,0.06988420,-0.02629265,-0.01424168,0.00824939,0.99511570,0.08602945,0.01825690,0.04483698
1757984261192,0.03048895,-0.01961334,0.07398603,-0.03090206,-0.01700647,0.01373708,0.99512881,0.08585794,0.01816252,0.04491322
1757984261204,-0.02991396,0.00324268,0.01290222,-0.01438288,-0.02789429,0.00800976,0.99513656,0.08577740,0.01800631,0.04495807
1757984261215,0.04964708,0.02618699,-0.00877884,0.01157979,-0.02913037,0.00156949,0.99513357,0.08584109,0.01784609,0.04496670
1757984261226,-0.29579535,-0.01299883,0.00336939,-0.00159512,-0.03490582,-0.00581387,0.99513935,0.08583208,0.01764888,0.04493386
1757984261237,-0.29213055,-0.18387161,-0.00238003,0.00174511,-0.02348273,0.00031242,0.99514075,0.08584185,0.01751737,0.04493561
1757984261248,-0.05758635,0.00774914,0.06915243,-0.01434180,-0.01852021,0.00247797,0.99514879,0.08576225,0.01741459,0.04494936
1757984261260,0.20842085,0.08900093,0.01850699,-0.01758932,-0.00749739,0.01098434,0.99515540,0.08566111,0.01737148,0.04501252
1757984261270,0.21464073,0.07768888,0.04619396,-0.00856752,-0.01310968,-0.00526478,0.99516184,0.08561528,0.01730134,0.04498435
1757984261282,0.01134134,0.03977241,0.08336124,-0.01754132,-0.00022599,-0.00016900,0.99517028,0.08551792,0.01730008,0.04498341
1757984261293,-0.05960952,0.01448553,0.01216182,-0.01330600,-0.00118136,-0.00670572,0.99517856,0.08544274,0.01729341,0.04494553
1757984261304,0.02282898,0.08699523,0.10469010,-0.02431462,0.00799825,0.00071742,0.99518919,0.08530780,0.01733780,0.04494951
1757984261315,-0.02594096,0.05845703,0.01308979,-0.01935745,0.00712401,-0.00050010,0.99519806,0.08519746,0.01737841,0.04494666
1757984261326,-0.37149630,-0.10782439,0.09635955,-0.00566669,0.01069059,-0.00197252,0.99520019,0.08516629,0.01743721,0.04493581
1757984261338,-0.13914547,-0.06038208,0.06635025,-0.00751743,0.00406610,-0.00781393,0.99520537,0.08512419,0.01745998,0.04489205
1757984261349,0.02022309,-0.02901211,0.11921344,-0.02172612,0.00630414,-0.02058573,0.99522021,0.08500361,0.01749496,0.04477780
1757984261360,0.44841871,0.12371087,-0.03514816,-0.02200282,-0.01135691,-0.01483687,0.99523571,0.08487930,0.01743080,0.04469397
1757984261371,0.12982446,0.07240362,0.05126193,-0.00900038,-0.00516021,-0.00533785,0.99524180,0.08482935,0.01740216,0.04466435
1757984261382,-0.01501477,0.04137169,0.02426336,-0.00222271,-0.01559024,-0.00547991,0.99524576,0.08481690,0.01731485,0.04463366
1757984261393,0.01466628,0.05180358,0.05098534,0.01065709,-0.01275309,-0.00362622,0.99524285,0.08487605,0.01724407,0.04461353
1757984261404,-0.00241882,0.07395552,0.04740894,0.01520757,-0.01190475,-0.00150404,0.99523717,0.08496045,0.01717800,0.04460519
1757984261416,-0.05524018,0.04359720,-0.03288569,0.02376142,-0.01596957,-0.00373984,0.99522820,0.08509470,0.01708777,0.04458406
1757984261427,0.22831700,0.20935924,0.12798019,0.03136415,-0.01183397,-0.00909513,0.99521679,0.08526720,0.01702269,0.04453403
1757984261438,0.06798525,-0.01160374,0.05515365,0.01554248,-0.01368006,0.00197106,0.99521014,0.08535424,0.01694608,0.04454507
1757984261449,-0.02516116,0.03535639,0.05998682,0.00895945,-0.00978913,-0.00819163,0.99520883,0.08540397,0.01689175,0.04449961
1757984261460,-0.21684371,-0.24228886,-0.08693261,0.00530195,-0.01513308,-0.00422397,0.99520877,0.08543392,0.01680625,0.04447574
1757984261471,0.01128071,-0.04922814,0.01399921,0.00702702,-0.00702114,-0.01056408,0.99520870,0.08547292,0.01676728,0.04441711
1757984261483,-0.00120941,0.04795317,0.03579859,0.00294624,-0.00925465,-0.00940000,0.99521049,0.08548927,0.01671592,0.04436494
1757984261494,-0.01881502,-0.00151566,-0.01349296,0.00805300,-0.01313969,-0.01377374,0.99521128,0.08553437,0.01664233,0.04428781
1757984261505,0.02890170,0.01377461,-0.00670360,0.01110381,-0.01097845,-0.01796306,0.99521143,0.08559600,0.01658140,0.04418811
1757984261516,0.00069776,-0.09062828,-0.01426350,0.01476114,-0.01109611,-0.00920230,0.99520764,0.08567866,0.01651926,0.04413658
1757984261527,-0.34139532,-0.03406195,-0.02914682,-0.00752220,-0.01149144,-0.02656324,0.99521882,0.08563691,0.01645549,0.04398915
1757984261538,-0.09283269,-0.13162293,-0.08981747,0.00887398,-0.01040961,-0.01038965,0.99521806,0.08568705,0.01639667,0.04393045
1757984261549,-0.04222522,0.01324136,0.02094205,-0.00706158,-0.01828530,-0.01190594,0.99522595,0.08564821,0.01629610,0.04386497
1757984261561,0.30586560,0.06885297,0.10844120,-0.00192791,-0.01278840,-0.00818171,0.99523006,0.08563741,0.01622449,0.04381915
1757984261572,0.06581029,0.04695220,-0.01045362,0.00930590,-0.01880461,-0.00962887,0.99522966,0.08568953,0.01611918,0.04376523
1757984261583,0.03528097,0.11831598,0.04656613,0.02322193,-0.02456030,-0.00501314,0.99522191,0.08581957,0.01598165,0.04373716
1757984261594,-0.00315792,0.09640563,0.02227257,0.02332099,-0.01941499,-0.01228568,0.99521552,0.08594784,0.01587486,0.04366959
1757984261605,-0.05189877,0.06093230,-0.02377551,0.01449954,-0.03074958,0.00929203,0.99520895,0.08602903,0.01570267,0.04372162
1757984261616,0.00061010,-0.01268532,0.02446467,0.02289832,-0.01155062,0.00909382,0.99519675,0.08615612,0.01563856,0.04377209
1757984261628,0.30607770,0.12695764,-0.23062038,0.02870046,-0.01061509,0.00675132,0.99518196,0.08631828,0.01557858,0.04381024
1757984261639,0.03236407,0.00772070,-0.07870380,0.02329916,-0.00444356,0.01481171,0.99516750,0.08644759,0.01555392,0.04389244
1757984261650,0.00134095,-0.04307597,-0.03857823,0.01946977,-0.00147153,0.01806290,0.99515368,0.08655662,0.01554568,0.04399359
1757984261661,-0.39190978,-0.22557853,0.15119313,0.03234231,-0.00214305,-0.00434842,0.99513943,0.08673450,0.01553390,0.04396968
1757984261672,-0.08793196,-0.05395941,-0.01003825,0.00550179,-0.01252239,-0.02041719,0.99514298,0.08676614,0.01546189,0.04385228
1757984261683,0.09577287,0.00807485,0.11008569,0.00261412,-0.00418847,-0.00107917,0.99514235,0.08678025,0.01543927,0.04384645
1757984261694,0.01423734,-0.04821161,-0.08943653,0.00111889,-0.00868259,0.00421023,0.99514152,0.08678652,0.01539065,0.04387003
1757984261706,0.02432213,0.02280065,0.00550282,-0.00031558,-0.00520334,0.01191215,0.99513920,0.08678477,0.01536177,0.04393614
1757984261717,-0.05027789,-0.04404769,-0.04525778,0.00002969,-0.00568893,0.00987400,0.99513722,0.08678493,0.01532963,0.04399193
1757984261728,-0.13760536,-0.11292641,-0.04100441,-0.00187218,0.00027932,0.01587068,0.99513421,0.08677454,0.01533118,0.04408001
1757984261739,-0.07132165,-0.14254956,-0.03061223,-0.00937300,-0.00735037,0.00993899,0.99513690,0.08672299,0.01529075,0.04413468
1757984261750,0.03421902,-0.06571262,-0.00460851,-0.02576354,-0.01439725,0.00419656,0.99514977,0.08657743,0.01520941,0.04415839
1757984261761,0.23606008,-0.01624863,0.06899558,-0.04937483,-0.01467790,-0.00279404,0.99517573,0.08630093,0.01512721,0.04414274
1757984261772,0.08186853,-0.02131642,-0.01136847,-0.03021195,-0.02566470,-0.00141434,0.99519276,0.08613325,0.01498477,0.04413489
1757984261784,0.10108805,0.09563784,0.03407487,-0.02120519,-0.02657491,0.01244295,0.99520217,0.08601450,0.01483595,0.04420457
1757984261795,0.06234473,0.11067400,0.04032286,-0.00001244,-0.02692756,0.00345764,0.99520353,0.08601443,0.01468785,0.04422359
1757984261806,-0.02493623,0.08162465,-0.05368954,0.00923111,-0.03615066,-0.00085108,0.99520222,0.08606659,0.01448360,0.04421878
1757984261817,0.04785310,0.06919788,0.03643219,-0.00131320,-0.02820195,0.00404937,0.99520412,0.08605930,0.01432708,0.04424125
1757984261828,0.11997364,-0.16197046,0.13255152,-0.01266955,-0.03124694,0.00111847,0.99521240,0.08598899,0.01415366,0.04424746
1757984261839,0.04230891,-0.12827009,0.01624977,-0.01044897,-0.03310445,0.00389317,0.99521911,0.08593047,0.01396827,0.04426926
1757984261851,0.00914692,-0.01915507,-0.01140395,-0.01130063,-0.02753539,0.00707818,0.99522496,0.08586719,0.01381408,0.04430890
1757984261862,-0.23122529,0.15756175,-0.17054529,-0.00887861,-0.04379569,-0.01498050,0.99523615,0.08581836,0.01357320,0.04422651
1757984261873,0.01065881,0.06935135,-0.04157258,-0.00797546,-0.03636427,-0.01652667,0.99524686,0.08577369,0.01336956,0.04413396
1757984261884,-0.00986426,0.05424913,-0.03291327,0.00683632,-0.04928114,-0.00174824,0.99524766,0.08581163,0.01309605,0.04412426
1757984261895,-0.02110951,0.06942165,-0.06051285,0.01406585,-0.05207155,-0.00050280,0.99524479,0.08589040,0.01280445,0.04412144
1757984261906,0.01544285,0.08051070,0.01520527,0.00679354,-0.03992178,0.01510416,0.99524060,0.08592845,0.01258089,0.04420602
1757984261917,-0.09253830,-0.00908752,-0.05511909,0.01144393,-0.03760938,0.01463740,0.99523406,0.08599253,0.01237028,0.04428799
1757984261929,-0.34851357,0.08903511,-0.02057728,-0.00696390,-0.02430107,0.02272193,0.99523345,0.08595388,0.01223540,0.04441410
1757984261940,-0.19545424,-0.10516789,-0.08889430,-0.00227354,-0.02622335,0.01043891,0.99523373,0.08594115,0.01208855,0.04447256
1757984261951,-0.03351950,-0.06556533,0.00054054,-0.02444297,-0.00217782,0.00325151,0.99524507,0.08580183,0.01207614,0.04449109
1757984261962,0.19045371,-0.20230453,-0.08372781,-0.02321205,-0.00354353,0.00814621,0.99525422,0.08567532,0.01205683,0.04453549
1757984261973,0.06070359,-0.02654021,-0.01053631,-0.01579353,0.00560899,0.01249438,0.99525828,0.08558767,0.01208796,0.04460483
1757984261984,-0.05542303,0.06368730,-0.07873177,-0.01667969,0.01228533,0.00746933,0.99526359,0.08549426,0.01215676,0.04464666
1757984261996,0.02060969,0.08455834,-0.07011880,-0.00183685,0.01668140,0.00979129,0.99526085,0.08548388,0.01225101,0.04470198
1757984262007,0.06384623,0.07744971,-0.06203319,0.00287941,0.01571754,0.01248002,0.99525528,0.08549986,0.01233824,0.04477124
1757984262018,-0.00816341,0.02879743,-0.07500839,0.00622850,0.00183397,0.01511573,0.99524847,0.08553412,0.01234832,0.04485438
1757984262029,-0.03780150,-0.03904449,-0.17233787,0.00239983,0.00792152,0.00448681,0.99524563,0.08554756,0.01239268,0.04487951
1757984262040,-0.10917748,-0.18213362,-0.17361968,-0.00485722,-0.01296251,0.00668462,0.99524717,0.08552060,0.01232074,0.04491661
1757984262051,0.09739269,-0.08303073,0.00576191,-0.02555161,-0.01159631,0.00882556,0.99525802,0.08537751,0.01225580,0.04496603
1757984262062,0.18008738,-0.04335877,0.04086415,-0.04940804,-0.02573378,0.01156102,0.99528056,0.08510083,0.01211169,0.04503077
1757984262073,0.11477209,-0.05297655,-0.06349411,-0.01719672,-0.02033538,0.00991667,0.99528759,0.08500539,0.01199883,0.04508581
1757984262085,0.02393160,0.09158583,-0.09292678,-0.01341035,-0.03989795,0.01094336,0.99529389,0.08493029,0.01177540,0.04514709
1757984262096,0.10550005,-0.00107097,-0.08293279,0.00216510,-0.04516131,0.01077780,0.99529309,0.08494220,0.01152702,0.04520637
1757984262107,0.09044860,-0.05757679,-0.03206920,-0.02061917,-0.05719619,0.01570707,0.99530251,0.08482776,0.01120958,0.04529354
1757984262118,0.03708153,-0.02813189,0.00592511,-0.03850327,-0.05583223,0.01040889,0.99532202,0.08460829,0.01089133,0.04535288
1757984262129,-0.05925896,-0.08860325,-0.17081998,-0.05610213,-0.05782489,0.02839039,0.99534451,0.08429973,0.01057330,0.04550902
1757984262140,-0.01100654,-0.06479247,-0.11086022,-0.03694719,-0.05109223,0.01328855,0.99536160,0.08409282,0.01028718,0.04558344
1757984262152,-0.06715967,-0.02683714,-0.08895718,-0.03008338,-0.05690400,0.00031112,0.99537914,0.08392285,0.00996567,0.04558520
1757984262163,0.21731312,0.05990732,0.04314222,-0.03964754,-0.04689996,0.00797658,0.99539770,0.08370876,0.00971241,0.04562827
1757984262174,0.00459275,-0.03266843,-0.04861567,-0.02705729,-0.05259863,0.00713162,0.99541167,0.08355453,0.00941260,0.04566892
1757984262185,0.05097988,0.04881010,-0.02505392,-0.02774689,-0.03723409,-0.01376269,0.99543002,0.08340054,0.00920595,0.04559254
1757984262196,-0.03127846,0.03169770,-0.06475081,-0.02102387,-0.04975923,-0.02326240,0.99544837,0.08328280,0.00892730,0.04546227
1757984262207,0.07264756,0.01725256,0.03552001,-0.03927678,-0.04695492,-0.01209095,0.99547174,0.08306678,0.00866905,0.04539577
1757984262219,-0.03558757,0.03734785,0.02094622,-0.04354635,-0.04777082,-0.00487028,0.99549581,0.08282074,0.00839914,0.04536825
1757984262230,0.31278380,-0.10403622,0.29374676,-0.05330135,-0.03259005,0.00195625,0.99552116,0.08252759,0.00821990,0.04537901
1757984262241,-0.01520340,-0.10412705,-0.00267390,-0.04196921,-0.02956353,0.02120304,0.99553641,0.08229466,0.00805582,0.04549669
1757984262252,-0.00760324,-0.02732861,0.03129608,-0.04782423,-0.02294496,0.01357167,0.99555624,0.08202445,0.00792618,0.04557337
1757984262263,-0.30041786,-0.00840086,-0.27857995,-0.04533715,-0.03461903,0.00576915,0.99557699,0.08177283,0.00773405,0.04560538
1757984262275,0.00894336,0.02721839,0.01422772,-0.04822298,-0.02510453,-0.00401669,0.99560081,0.08150760,0.00759597,0.04558329
1757984262285,-0.00921387,0.06105217,0.01791802,-0.04965922,-0.03246842,0.00422044,0.99562383,0.08122951,0.00741415,0.04560693
1757984262297,0.04299278,0.03371216,0.06652617,-0.02655381,-0.01646519,0.00572005,0.99563526,0.08107948,0.00732112,0.04563925
1757984262308,-0.00933584,0.08314729,0.04201126,-0.02790606,-0.02785583,0.00298823,0.99564846,0.08092181,0.00716373,0.04565613
1757984262319,0.05237121,0.09185912,0.04222106,-0.02825431,-0.01569700,0.00439114,0.99566048,0.08076783,0.00707819,0.04568006
1757984262330,-0.10836869,-0.41091457,-0.41196756,-0.00169035,-0.01676773,0.01568439,0.99565792,0.08075853,0.00698596,0.04576633
1757984262341,-0.01247713,0.10379222,0.08209595,-0.03151596,-0.00315172,0.00696031,0.99567067,0.08058046,0.00696816,0.04580565
1757984262352,0.00285414,-0.02681894,-0.01697977,-0.01629684,-0.00160199,0.01139262,0.99567517,0.08048920,0.00695918,0.04586945
1757984262363,0.13737173,0.29795395,0.33590067,-0.01133727,-0.01004328,0.00431659,0.99567950,0.08042685,0.00690395,0.04589319
1757984262375,0.03067619,0.05554350,0.10249732,-0.01523895,-0.00170564,-0.00695822,0.99568825,0.08034151,0.00689440,0.04585422
1757984262386,0.06260973,-0.00593962,0.03873573,-0.02752304,-0.00792045,-0.02207732,0.99570651,0.08018876,0.00685044,0.04573170
1757984262397,0.01266892,0.02890237,0.07374897,-0.02737250,-0.01057181,-0.01688797,0.99572358,0.08003547,0.00679123,0.04563712
1757984262408,0.07044315,0.01894719,0.03326152,-0.01514354,-0.00873583,-0.00822704,0.99573284,0.07995067,0.00674231,0.04559105
1757984262419,0.03097184,0.09306167,0.05377275,-0.00823650,-0.00606068,-0.00447825,0.99573796,0.07990413,0.00670807,0.04556575
1757984262430,0.11635722,-0.06363182,0.01550165,-0.01645654,-0.01209435,-0.00308400,0.99574645,0.07981362,0.00664155,0.04554879
1757984262441,0.01151410,0.03880853,0.00749896,-0.00044853,-0.01316348,-0.00465661,0.99574833,0.07981111,0.00656784,0.04552271
1757984262453,0.02097141,0.00517860,0.05527011,0.01010991,-0.01213047,-0.00887170,0.99574652,0.07986722,0.00650051,0.04547347
1757984262464,-0.11047007,0.14441872,0.01245258,0.00875020,-0.02044706,-0.00830236,0.99574547,0.07991534,0.00638805,0.04542781
1757984262475,-0.05942077,0.04225623,0.06969636,0.00754758,-0.01082826,-0.00793612,0.99574448,0.07995836,0.00632633,0.04538257
1757984262486,0.00813439,0.05411150,0.00362969,0.01514528,-0.00188554,-0.00790752,0.99573983,0.08004166,0.00631596,0.04533908
1757984262497,-0.08620997,0.02682466,0.00578837,0.01880220,-0.00341661,-0.00418689,0.99573255,0.08014696,0.00629683,0.04531564
1757984262508,0.01152274,0.03545916,0.02375823,0.02246607,0.00277789,-0.00289989,0.99572305,0.08027277,0.00631239,0.04529940
1757984262519,0.00607729,0.03332226,0.01328625,0.03041989,0.01400710,-0.01083285,0.99571167,0.08044160,0.00639012,0.04523927
1757984262531,0.23668186,0.05363741,-0.01644800,0.02859343,0.00819703,-0.00578021,0.99570000,0.08060029,0.00643562,0.04520719
1757984262542,0.00072565,0.03797553,-0.01838306,0.03356668,0.01573618,-0.00063154,0.99568449,0.08078658,0.00652295,0.04520369
1757984262553,-0.01015906,0.05717494,-0.03192847,0.03332586,0.01573613,-0.00477530,0.99567009,0.08097154,0.00661029,0.04517719
1757984262564,-0.30776298,-0.04136128,0.06024558,0.02070926,0.01475352,-0.00520650,0.99566135,0.08108855,0.00669365,0.04514777
1757984262575,-0.04141218,-0.07910676,-0.05165579,0.02509879,0.00404080,-0.00890154,0.99565208,0.08122785,0.00671607,0.04509837
1757984262586,0.10534313,-0.06177862,0.07666845,0.01176183,0.00981874,0.01071842,0.99564361,0.08129371,0.00677106,0.04515839
1757984262597,-0.03203429,0.03216036,-0.00672951,0.01535946,0.00161098,-0.00384582,0.99563756,0.08137896,0.00678000,0.04513704
1757984262609,-0.00008776,0.04352946,-0.04464835,0.02478849,-0.00979214,0.00786340,0.99562458,0.08151778,0.00672516,0.04518108
1757984262620,0.04122563,0.02840605,-0.01732965,0.03078726,-0.00861906,0.01291046,0.99560733,0.08169172,0.00667647,0.04525402
1757984262631,0.47681314,0.06454036,-0.02044959,0.02590219,-0.00721048,-0.00022054,0.99559616,0.08183159,0.00663753,0.04525283
1757984262642,-0.04961510,-0.02009550,0.05621021,0.00340513,-0.01023664,0.00540252,0.99559360,0.08185066,0.00658020,0.04528309
1757984262653,-0.05404997,-0.04386363,-0.00285099,0.01486601,-0.00167898,0.01708089,0.99558246,0.08193391,0.00657080,0.04537874
1757984262664,-0.39094166,-0.17076227,-0.00570197,0.01260631,-0.00389036,0.01575934,0.99557276,0.08200451,0.00654902,0.04546699
1757984262676,-0.07459812,-0.04478570,-0.04916318,0.01999509,-0.00016870,0.00028878,0.99556338,0.08211748,0.00654806,0.04546862
1757984262687,0.08081272,0.05879233,0.02887548,0.01205487,0.00668228,0.00310598,0.99555695,0.08218318,0.00658448,0.04548555
1757984262698,-0.00659127,0.03732576,-0.06117853,0.03402283,0.00675876,-0.00420809,0.99554203,0.08237371,0.00662233,0.04546199
1757984262709,0.03908229,0.01511617,-0.01425494,0.03427193,-0.00054555,-0.00472355,0.99552735,0.08256563,0.00661927,0.04543553
1757984262720,-0.02755955,-0.02631224,-0.00855296,0.02537879,-0.00460604,-0.02844511,0.99552299,0.08270775,0.00659348,0.04527624
1757984262731,0.04984280,0.06284173,0.35993253,-0.00219498,-0.00264702,-0.01074737,0.99552677,0.08269568,0.00657892,0.04521713
1757984262742,0.02956462,-0.07662008,0.02903468,0.00934991,-0.00449453,-0.00232860,0.99552321,0.08274757,0.00655398,0.04520421
1757984262754,-0.03750804,-0.01046245,-0.04776474,-0.00865956,-0.01129292,0.00235182,0.99552706,0.08269908,0.00649074,0.04521738
1757984262765,0.01995691,-0.10765447,-0.17486057,-0.01096856,-0.00757832,0.01145513,0.99552952,0.08263765,0.00644830,0.04528153
1757984262776,-0.00224605,0.00800587,0.02628743,-0.01207008,-0.01332503,0.01501258,0.99553176,0.08257066,0.00637434,0.04536485
1757984262787,0.02861417,-0.01339935,0.02194203,-0.00479824,-0.01920307,0.00888106,0.99553242,0.08254308,0.00626393,0.04541591
1757984262798,0.07490018,0.07110257,0.05864661,0.00118595,-0.02709257,-0.00540961,0.99553413,0.08254948,0.00611763,0.04538670
1757984262809,-0.01016764,0.01129726,0.04026580,0.02238441,-0.03323229,-0.00170797,0.99552529,0.08267483,0.00593153,0.04537714
1757984262820,0.01440820,0.05654135,0.09146608,0.00910754,-0.02156504,0.01173454,0.99551883,0.08272538,0.00581184,0.04544226
1757984262832,-0.22014461,-0.06747016,-0.01747407,0.01449223,-0.02100260,0.00587179,0.99551126,0.08280654,0.00569423,0.04547514
1757984262843,-0.01227543,-0.02345350,0.02211424,0.02926204,-0.01898136,0.01075470,0.99549575,0.08296748,0.00558983,0.04553430
1757984262854,-0.05266154,0.04629859,0.06695492,0.01417762,-0.01641508,0.02039563,0.99548431,0.08304758,0.00549708,0.04564953
1757984262865,0.21185303,0.02131042,0.10658477,0.01134654,-0.00256833,0.02158576,0.99547372,0.08310999,0.00548296,0.04576825
1757984262876,-0.09828301,0.00507477,0.04561829,0.00061790,-0.01328721,0.00499941,0.99547254,0.08311348,0.00540788,0.04579650
1757984262887,0.07839585,-0.07657403,0.05557323,0.01577090,-0.00143160,0.01167724,0.99546220,0.08320179,0.00539987,0.04586189
1757984262898,-0.03476791,0.01160910,-0.01182241,0.01437753,-0.00872662,0.00308353,0.99545506,0.08328087,0.00535187,0.04587885
1757984262909,0.03322584,0.09152333,0.07847542,0.00848874,-0.00723039,-0.00839810,0.99545348,0.08332798,0.00531174,0.04583224
1757984262921,-0.06684945,-0.03686191,0.03267078,0.03909092,-0.01509013,-0.00743100,0.99543750,0.08354689,0.00522724,0.04579063
1757984262932,-0.14600946,-0.19800634,0.16247582,0.03719560,-0.00862385,-0.00452113,0.99542155,0.08375333,0.00517938,0.04576554
1757984262943,-0.06738196,-0.03186037,0.08220657,0.04223368,-0.01369546,0.00032842,0.99540229,0.08398561,0.00510405,0.04576734
1757984262954,0.12724532,0.11071028,-0.08178192,0.02516342,-0.01661017,0.00524125,0.99538940,0.08412779,0.00501020,0.04579695
1757984262965,0.17444742,0.15613099,-0.11078483,0.02036776,-0.02800896,0.00101027,0.99538027,0.08424185,0.00485335,0.04580261
1757984262976,0.02728843,-0.12456130,0.03713758,0.01198709,-0.02711196,0.00036743,0.99537526,0.08430837,0.00470288,0.04580465
1757984262988,-0.00657398,-0.02789975,0.01824273,-0.00769854,-0.03461297,0.01451997,0.99537607,0.08426488,0.00450732,0.04588669
1757984262999,0.02444584,-0.00249161,0.02926831,0.02006229,-0.02875654,0.00936939,0.99536505,0.08437522,0.00434916,0.04593822
1757984263010,-0.01306055,0.06955492,0.00252269,0.01823311,-0.02828025,0.01512428,0.99535316,0.08447733,0.00419079,0.04602292
1757984263021,-0.05623872,0.09883512,-0.04625136,0.02407076,-0.02202952,0.00810406,0.99534024,0.08461092,0.00406852,0.04606789
1757984263032,-0.21987104,0.26289586,-0.17318775,0.02800636,-0.02580994,0.00985765,0.99532505,0.08476635,0.00392528,0.04612260
1757984263043,0.00695838,-0.01074016,0.01410939,0.01309624,-0.00451024,0.00009474,0.99531888,0.08483969,0.00390002,0.04612314
1757984263054,-0.01197965,-0.08800225,0.01478938,0.00896455,-0.01698465,0.00361369,0.99531407,0.08488945,0.00380576,0.04614319
1757984263065,0.12106211,-0.27381080,0.10062305,0.01099804,-0.00864264,0.00358808,0.99530812,0.08495048,0.00375779,0.04616311
1757984263077,-0.01533262,-0.08679512,-0.00889542,-0.00422275,0.00097124,0.00038258,0.99531002,0.08492684,0.00376323,0.04616525
1757984263088,-0.02344691,-0.10037534,-0.01146141,-0.01021652,0.00536445,-0.00149107,0.99531522,0.08486911,0.00379354,0.04615682
1757984263099,0.01189593,-0.04567309,-0.00364153,-0.01398958,-0.00121343,0.00440188,0.99532078,0.08479077,0.00378674,0.04618147
1757984263110,0.06503205,0.00947266,0.00321950,-0.00896239,-0.00735034,-0.00421162,0.99532621,0.08474148,0.00374632,0.04615831
1757984263121,-0.01991804,0.04269732,0.05385775,-0.00530342,-0.01102155,-0.00917364,0.99533135,0.08471178,0.00368460,0.04610694
1757984263132,-0.42921766,-0.27333328,-0.02331055,0.01064575,-0.02043087,-0.00357246,0.99532768,0.08477033,0.00357223,0.04608729
1757984263144,0.02906203,0.07265057,0.00059410,0.01497754,-0.03712368,0.00345292,0.99532030,0.08485495,0.00336248,0.04610680
1757984263155,0.23132620,0.03040466,0.06861752,-0.00475033,-0.02445399,-0.00489290,0.99532425,0.08482859,0.00322676,0.04607964
1757984263166,0.44679963,0.13242823,0.00896444,-0.01463167,-0.04679778,-0.02030695,0.99533707,0.08474812,0.00296937,0.04596795
1757984263177,0.04340908,-0.08140742,0.04529796,-0.03158379,-0.04688362,0.01221222,0.99534959,0.08457283,0.00270917,0.04603573
1757984263188,0.01089812,-0.00920205,0.04088423,-0.02812970,-0.03685205,0.00628772,0.99536198,0.08441389,0.00250095,0.04607126
1757984263199,-0.00140973,-0.02321132,-0.06177981,-0.00391395,-0.04005481,0.00253940,0.99536372,0.08439198,0.00227664,0.04608548
1757984263210,-0.02437712,0.11935938,-0.00017593,-0.00165563,-0.03887037,-0.00831498,0.99536708,0.08438287,0.00206286,0.04603975
1757984263222,0.03714708,0.02768526,-0.03848911,0.01648865,-0.03081772,0.00729024,0.99535761,0.08447603,0.00188874,0.04608094
1757984263233,0.35234876,0.05767239,0.12919208,0.01570137,-0.03894894,-0.01523733,0.99535454,0.08456239,0.00167452,0.04599713
1757984263244,-0.06446824,0.03141117,0.02879719,-0.00493337,-0.03201199,-0.04219304,0.99536794,0.08453501,0.00149685,0.04576296
1757984263255,-0.00632590,0.00550988,0.04228537,-0.02015723,-0.01440888,-0.02936561,0.99538519,0.08442213,0.00141616,0.04559851
1757984263266,-0.39562555,0.04723131,-0.10749078,-0.01519198,-0.03036348,-0.01954448,0.99539753,0.08433781,0.00124764,0.04549004
1757984263277,0.01078142,0.04853478,0.05526647,-0.00980959,-0.00992444,-0.01778177,0.99540687,0.08428239,0.00119157,0.04538957
1757984263288,0.00041522,-0.04292516,0.02785590,-0.00395289,-0.00981580,-0.01262468,0.99541194,0.08426065,0.00113758,0.04532014
1757984263299,-0.07173680,-0.08460577,-0.01517262,0.00087208,-0.01273714,0.00043938,0.99541150,0.08426549,0.00106689,0.04532258
1757984263311,-0.02332548,-0.01920858,0.05263185,-0.01363467,-0.01283067,-0.01356267,0.99542167,0.08418777,0.00099376,0.04524527
1757984263322,0.02956899,-0.05786110,0.06716649,-0.01213024,-0.01666763,-0.01495979,0.99543113,0.08412105,0.00090209,0.04516299
1757984263333,0.16397093,0.07661403,0.26542848,-0.00773887,-0.01402857,-0.01340952,0.99543820,0.08407810,0.00082423,0.04508857
1757984263344,-0.06158411,-0.00133346,-0.06189982,0.00107784,-0.01929435,-0.00458074,0.99543894,0.08408414,0.00071618,0.04506291
1757984263355,0.01226443,0.04196339,0.01685397,0.00069534,-0.00993230,-0.00079835,0.99543885,0.08408796,0.00066155,0.04505852
1757984263366,-0.17925972,-0.06175284,-0.22884680,0.01086507,-0.01331610,0.00238441,0.99543310,0.08414935,0.00058632,0.04507200
1757984263378,0.07005062,0.01905787,0.04942106,0.01566427,-0.00480596,0.01115265,0.99542296,0.08423629,0.00055964,0.04513389
1757984263389,-0.04232817,0.03822587,0.03231119,0.00727780,-0.00564115,0.00214552,0.99541898,0.08427704,0.00052805,0.04514591
1757984263400,0.04190622,-0.01457294,-0.03388387,0.00071502,-0.00604716,-0.00276497,0.99541936,0.08428097,0.00049479,0.04513070
1757984263411,-0.00068170,0.02662656,-0.02014673,0.00379766,-0.00643364,-0.01336700,0.99542099,0.08430262,0.00045812,0.04505451
1757984263422,0.07681325,0.07874530,0.10954741,0.00707751,-0.00691957,-0.01322106,0.99542100,0.08434155,0.00042006,0.04498179
1757984263433,-0.00160095,0.23727944,0.35270186,0.00703742,-0.01478466,-0.02858308,0.99542484,0.08438025,0.00033875,0.04482459
1757984263444,0.02688082,-0.03611578,-0.03199004,-0.00037806,-0.01699001,-0.02926915,0.99543235,0.08437816,0.00024445,0.04466214
1757984263455,-0.01945071,-0.04762722,-0.09671097,-0.00678247,-0.01387405,-0.01828844,0.99544017,0.08434017,0.00016676,0.04455973
1757984263467,0.02732196,-0.25067901,-0.38203232,-0.00816595,-0.02167054,-0.00613448,0.99544560,0.08429444,0.00004540,0.04452537
1757984263478,-0.02582880,-0.01505534,-0.02545682,-0.00968497,-0.01705326,-0.01921680,0.99545508,0.08423972,-0.00005095,0.04441680
1757984263489,0.01577738,-0.01673506,0.03160489,-0.01550332,-0.02203746,-0.01337145,0.99546556,0.08415446,-0.00017215,0.04434326
1757984263500,-0.05291616,-0.10387444,-0.05739208,-0.00887069,-0.02473861,-0.02053132,0.99547475,0.08410522,-0.00030945,0.04422931
1757984263511,-0.08700184,-0.05695018,-0.03517880,-0.01450100,-0.02623650,-0.01971388,0.99548666,0.08402257,-0.00045900,0.04411694
1757984263522,-0.06852291,-0.03120546,0.07019715,-0.01386085,-0.00713876,-0.01056189,0.99549548,0.08394772,-0.00049755,0.04405990
1757984263534,-0.44810392,-0.03412118,0.10043804,-0.01560491,0.00025582,-0.00949563,0.99550529,0.08385955,-0.00049610,0.04400625
1757984263545,-0.03140654,-0.02751533,-0.01861419,-0.00608272,0.00682744,-0.00657566,0.99550972,0.08382610,-0.00045855,0.04397009
1757984263556,-0.01964158,0.05312124,-0.06056189,-0.01214137,0.01040952,-0.00122580,0.99551577,0.08375810,-0.00040026,0.04396322
1757984263567,0.31919181,0.10634777,-0.10168522,-0.01517323,0.01892181,-0.00620092,0.99552449,0.08367313,-0.00029430,0.04392850
1757984263578,-0.02019449,-0.00525651,-0.00285099,-0.01855243,0.01131158,-0.00599930,0.99553471,0.08356924,-0.00023095,0.04389490
1757984263589,0.02331715,0.02145890,0.06563900,-0.01657258,0.01406941,-0.00496739,0.99554358,0.08347809,-0.00015357,0.04386758
1757984263600,-0.01292232,0.02902446,0.04101966,-0.02208844,0.01096566,0.00093392,0.99555372,0.08335440,-0.00009216,0.04387281
1757984263612,-0.03644332,-0.00304206,-0.03266161,-0.00409329,0.00329917,-0.00700126,0.99555743,0.08333107,-0.00007336,0.04383290
1757984263623,0.15736534,-0.01690212,0.22581429,-0.00526345,-0.00105412,-0.00485590,0.99556097,0.08330264,-0.00007905,0.04380668
1757984263634,0.25229479,-0.06411532,0.29446125,-0.00041909,-0.00305474,-0.00138367,0.99556150,0.08330030,-0.00009616,0.04379893
1757984263645,-0.01104758,0.04944681,-0.00855296,0.00896052,-0.00685720,-0.00524940,0.99555859,0.08335047,-0.00013456,0.04376954
1757984263656,-0.13071688,0.05995118,-0.12604661,0.01525950,-0.01498976,0.00381586,0.99555055,0.08343516,-0.00021775,0.04379071
1757984263667,-0.20712309,0.08862132,-0.23348842,0.02148033,-0.00535123,0.00776456,0.99553843,0.08355653,-0.00024799,0.04383458
1757984263678,0.00287245,0.01289524,0.03245384,0.01933968,-0.00371299,0.00594932,0.99552815,0.08366193,-0.00026822,0.04386701
1757984263690,-0.02385413,0.01327437,0.01340051,0.01378466,-0.00290573,0.00090725,0.99552143,0.08373912,-0.00028449,0.04387209
1757984263701,-0.05767166,0.05769893,-0.01958383,0.01417208,-0.00814329,-0.00753451,0.99551664,0.08381778,-0.00032969,0.04383027
1757984263712,0.01511765,0.06775729,-0.02031812,0.02141609,-0.00824263,0.00774057,0.99550472,0.08393664,-0.00037543,0.04387323
1757984263723,-0.15558378,-0.02772283,0.18697571,0.02911543,0.00501411,0.00721234,0.99548891,0.08410260,-0.00034685,0.04391434
1757984263734,-0.13816893,-0.03821737,0.17044811,0.01720311,0.00325912,-0.00821079,0.99548296,0.08419635,-0.00032909,0.04386959
1757984263745,-0.05391810,-0.03849242,-0.02775136,0.01888215,-0.00010378,0.02535473,0.99546774,0.08430209,-0.00032967,0.04401158
1757984263756,0.13043268,0.14480641,-0.24043328,0.01416492,0.00206221,0.00800250,0.99545904,0.08438142,-0.00031812,0.04405639
1757984263768,0.02013095,-0.03557365,-0.26823794,0.03372525,0.00275280,-0.01225545,0.99544583,0.08457365,-0.00030243,0.04398654
1757984263779,-0.01219709,0.02790572,0.09391895,0.00042751,0.00422199,-0.00547004,0.99544694,0.08457596,-0.00027964,0.04395700
1757984263790,-0.02028815,-0.10395059,-0.05368106,-0.00090319,0.00725278,-0.01037933,0.99544997,0.08457086,-0.00023866,0.04389836
1757984263801,-0.07141345,-0.03291461,-0.03041894,-0.00263744,0.00485618,-0.00178040,0.99545167,0.08455609,-0.00021146,0.04388839
1757984263812,-0.02722497,-0.01029623,-0.00550657,0.00178199,0.01114607,0.00501250,0.99544964,0.08456589,-0.00015016,0.04391595
1757984263823,-0.02811332,0.05675934,0.01387965,0.00640061,0.01950307,0.01115433,0.99544389,0.08460141,-0.00004192,0.04397786
1757984263834,-0.06168000,-0.00266071,-0.03870117,0.01617626,0.02038909,0.01884918,0.99543163,0.08469119,0.00007124,0.04408247
1757984263845,-0.00761929,-0.05980541,-0.00387012,0.00506421,0.01471859,0.01194200,0.99542629,0.08471930,0.00015293,0.04414875
1757984263857,-0.01392211,-0.08660008,0.00723449,-0.00937435,0.01754878,0.00435993,0.99542966,0.08466680,0.00025120,0.04417317
1757984263868,-0.00107011,-0.12290619,-0.03632554,-0.02382615,0.02610791,0.00225242,0.99544029,0.08453456,0.00039610,0.04418567
1757984263879,-0.02347311,-0.05883837,-0.03942919,-0.02049226,0.02801418,0.01868850,0.99544535,0.08441878,0.00055438,0.04429126
1757984263890,-0.02918793,0.00940053,0.00165677,-0.03062191,0.03521464,0.01900496,0.99545501,0.08424730,0.00075158,0.04439769
1757984263901,-0.02300488,-0.07509902,-0.12165470,-0.00318953,0.03232740,0.02114782,0.99545115,0.08422976,0.00092939,0.04451400
1757984263912,0.05038409,0.10624104,0.06614382,-0.01281983,0.04574523,0.01153392,0.99545403,0.08415861,0.00118327,0.04457801
1757984263923,0.01922597,0.07095256,0.02541916,-0.02259636,0.03675000,0.00548825,0.99546308,0.08403207,0.00138907,0.04460875
1757984263935,0.12983872,0.01244337,0.12829444,-0.00845695,0.03412099,0.00585174,0.99546532,0.08398471,0.00158015,0.04464152
1757984263946,0.02882719,0.06470109,-0.02738454,0.00413476,0.03364978,0.00198012,0.99546258,0.08400766,0.00176691,0.04465251
1757984263957,-0.00169318,0.02025765,-0.04450635,-0.00642659,0.02970569,0.00060802,0.99546513,0.08397199,0.00193177,0.04465588
1757984263968,-0.10243717,-0.04323647,-0.15770728,-0.00554439,0.02970027,-0.01693842,0.99547160,0.08394122,0.00209661,0.04456187
1757984263979,0.01060238,-0.01067194,0.00992281,-0.01650445,0.03639875,-0.00736681,0.99548079,0.08384879,0.00230044,0.04452062
1757984263990,0.01009725,0.00980027,-0.03706284,-0.02107416,0.03490066,0.00764767,0.99548834,0.08373078,0.00249589,0.04456345
1757984264002,-0.05091573,-0.01456067,-0.10204402,0.00135482,0.03077553,-0.00418523,0.99548830,0.08373843,0.00266977,0.04453980
1757984264013,-0.00944223,0.03546777,-0.00294688,-0.00045740,0.03512066,-0.00059585,0.99548812,0.08373592,0.00286293,0.04453652
1757984264024,0.03449902,-0.00868193,0.01614894,0.00033470,0.03338130,0.00543244,0.99548606,0.08373777,0.00304820,0.04456667
1757984264035,-0.10050782,-0.25064838,0.49758557,0.02978348,0.02473867,0.00194141,0.99547150,0.08390009,0.00318302,0.04457725
1757984264046,0.03608055,0.07815867,-0.01807749,0.01991241,0.02837178,0.00003719,0.99546130,0.08401459,0.00334616,0.04457747
1757984264057,-0.02626310,0.00731940,-0.07470392,0.01471152,0.01826070,0.01224470,0.99545111,0.08409550,0.00344659,0.04464481
1757984264068,0.07930866,0.22317876,-0.56254962,0.00983999,0.02439726,0.01209693,0.99544307,0.08414962,0.00358078,0.04471135
1757984264079,0.01810306,-0.01065248,-0.00591120,-0.00180311,0.03373894,0.00904158,0.99544099,0.08413971,0.00376634,0.04476107
1757984264090,-0.03150845,-0.04142167,-0.07347303,-0.00440300,0.02766869,0.01248406,0.99543932,0.08411483,0.00392267,0.04483161
1757984264102,-0.00268113,-0.03412519,-0.09162241,-0.00857703,0.02103337,0.00703195,0.99544123,0.08406423,0.00404677,0.04487310
1757984264113,0.06641330,-0.08210234,-0.02911342,-0.00585925,0.03010042,-0.00114284,0.99544346,0.08403317,0.00420630,0.04486704
1757984264124,0.05930795,0.03266495,0.00755768,-0.02824881,0.02682741,-0.00240287,0.99545664,0.08387639,0.00435519,0.04485370
1757984264132,0.95965706,0.28367124,0.14795525,-0.02237787,0.02375888,-0.00128719,0.99546390,0.08378800,0.00444904,0.04484862
1757984264143,-0.10768203,-0.01878722,-0.08885349,-0.00630104,0.02111403,-0.00478359,0.99546751,0.08375303,0.00456622,0.04482207
1757984264154,0.00903642,0.12336056,-0.00255350,-0.01180544,0.01272345,-0.00852157,0.99547502,0.08368574,0.00463875,0.04477350
1757984264166,-0.43211539,-0.18443554,-0.17508383,-0.00171342,0.01765857,-0.00555961,0.99547681,0.08367588,0.00474028,0.04474153
1757984264177,0.00799626,-0.06932220,-0.05820321,0.00386099,0.00161036,0.00091812,0.99547468,0.08369789,0.00474946,0.04474676
1757984264187,0.06099549,-0.05271596,0.00337255,-0.00850960,0.00029804,-0.00005738,0.99547830,0.08365492,0.00475097,0.04474647
1757984264198,0.05167792,-0.05948637,0.04120285,-0.02046609,0.00927115,0.00552555,0.99548614,0.08354235,0.00480196,0.04477686
1757984264209,-0.08164851,-0.14470136,-0.09260887,-0.01904862,-0.00527491,-0.00485678,0.99549626,0.08343759,0.00477295,0.04475015
1757984264221,-0.01666659,0.05480401,0.04048358,-0.04627379,-0.00239216,-0.02729278,0.99552513,0.08317614,0.00475943,0.04459595
1757984264233,0.20347697,-0.01072305,-0.03009490,-0.01597852,0.00729454,0.01263826,0.99552974,0.08307548,0.00480539,0.04467557
1757984264243,0.08018440,0.08510723,-0.10178103,-0.01910949,0.00731560,-0.01267229,0.99553984,0.08298471,0.00484014,0.04461538
1757984264254,-0.07074648,0.08578816,-0.03614550,0.00014878,0.01518376,-0.00039706,0.99553944,0.08298557,0.00492820,0.04461307
1757984264284,-0.17076217,0.04180604,0.05358024,0.00365947,0.00705124,-0.00008257,0.99553439,0.08304046,0.00503397,0.04461183
1757984264291,1.78694055,1.11369315,-2.50889493,0.10225283,0.06609543,-0.08828491,0.99551758,0.08338812,0.00525869,0.04431167
1757984264302,-0.83671546,-0.72648914,1.26759149,-0.04223502,0.01809885,-0.02861240,0.99554370,0.08315372,0.00535914,0.04415287
1757984264314,-0.02426878,-0.11645941,0.04464820,-0.05337850,0.01370649,-0.01153020,0.99557229,0.08284145,0.00543933,0.04408541
1757984264325,0.02966936,-0.06064846,0.08042871,-0.04911626,0.02463218,0.00551762,0.99559301,0.08256640,0.00557727,0.04411631
1757984264343,0.02764317,0.04123060,0.09599997,0.00215414,0.01742158,0.00199583,0.99558980,0.08258525,0.00572971,0.04413378
1757984264348,0.81728050,-0.18207223,-1.05968006,0.00926618,0.05281295,-0.00268803,0.99558707,0.08261166,0.00588022,0.04412612
1757984264359,-0.41083303,0.11864755,0.35890690,0.00220021,0.00686258,-0.00681584,0.99558751,0.08262376,0.00591797,0.04408863
1757984264371,-0.16845243,-0.01474532,-0.04892827,0.00342935,0.00859789,-0.00833040,0.99558769,0.08264313,0.00596654,0.04404156
1757984264383,-0.01947287,0.02032341,0.06803588,-0.00731700,0.01437590,-0.00878111,0.99559324,0.08259850,0.00605424,0.04398800
1757984264394,-0.04272610,-0.00728927,-0.08348455,-0.00764000,0.01421493,0.00486849,0.99559504,0.08255686,0.00613171,0.04401453
1757984264408,-0.04619485,0.03426630,0.07095468,0.00069445,0.02281765,0.00641891,0.99559161,0.08256179,0.00629371,0.04406011
1757984264417,0.04935877,0.09326989,-0.18819556,-0.01702187,0.03583210,0.00324020,0.99559607,0.08248860,0.00644779,0.04407404
1757984264429,0.05184844,-0.05489509,0.13480353,0.01894592,0.02548846,-0.00079020,0.99558585,0.08260228,0.00660072,0.04406930
1757984264441,0.16569158,0.08410725,0.18120299,-0.00422148,0.02310724,0.00538953,0.99558557,0.08257505,0.00674976,0.04410406
1757984264450,0.22623839,-0.00373599,-0.10445787,0.00549928,0.04663063,-0.01212507,0.99558449,0.08259979,0.00695960,0.04404950
1757984264463,-0.27828868,0.05434069,-0.04583129,0.00822352,0.03142305,-0.01691671,0.99558354,0.08264955,0.00714971,0.04394715
1757984264474,-0.13909157,0.01069603,-0.18703349,0.01786587,0.04005527,-0.01594355,0.99557742,0.08275138,0.00737803,0.04385627
1757984264486,-0.05074648,-0.03425495,0.00861673,-0.01285211,0.01716307,-0.03477074,0.99559186,0.08267620,0.00747843,0.04365286
1757984264496,0.10883799,-0.07048064,0.04286166,-0.02165445,0.03361940,-0.03601947,0.99560807,0.08256359,0.00765325,0.04346556
1757984264508,-0.04581789,-0.09244173,0.00643170,-0.01273991,0.00581896,-0.00876095,0.99561643,0.08248715,0.00768817,0.04341300
1757984264520,0.03646098,-0.00495018,0.05022570,-0.00624906,0.01226231,-0.00371738,0.99561985,0.08245060,0.00775990,0.04339125
1757984264531,-0.02931400,0.04015318,0.06169829,-0.01141322,0.01489832,-0.00351274,0.99562534,0.08238668,0.00784333,0.04337158
1757984264541,0.02370726,0.04217087,0.13223093,-0.00918713,0.01060162,0.00091845,0.99562862,0.08233937,0.00789793,0.04337631
1757984264552,-0.06987004,0.04937995,0.03254979,-0.01615787,0.00302227,-0.00384269,0.99563646,0.08225373,0.00791395,0.04335594
1757984264563,0.00916261,-0.04206888,-0.04977573,-0.01053831,-0.00315317,-0.00233747,0.99564204,0.08219472,0.00789629,0.04334285
1757984264574,-0.05974935,-0.02587621,-0.07275284,-0.00644222,-0.00946809,-0.00301932,0.99564621,0.08215832,0.00784279,0.04332579
1757984264586,-0.03869406,0.07762176,0.04105828,-0.01297470,0.00256729,-0.01137856,0.99565502,0.08208436,0.00785743,0.04326094
1757984264597,-0.02536138,-0.03822469,-0.00554865,-0.00348472,0.00511499,-0.00371041,0.99565738,0.08206415,0.00788710,0.04323941
1757984264608,-0.06115866,0.12377987,0.05582385,0.00035317,0.01445426,-0.01616843,0.99566039,0.08206606,0.00796515,0.04315211
1757984264619,-0.05210672,0.06167000,-0.03866592,0.01961839,0.01358501,-0.00826937,0.99565266,0.08217690,0.00804190,0.04310538
1757984264631,-0.24757909,-0.05684637,0.50709367,0.02040102,0.02110517,-0.00403919,0.99564298,0.08229421,0.00816326,0.04308216
1757984264642,-0.12805566,0.06863306,0.02073878,0.02963485,0.02096369,-0.02038689,0.99563330,0.08245868,0.00827961,0.04296901
1757984264653,0.11237907,-0.06283843,0.04611567,0.01972923,0.02891884,-0.00356686,0.99562356,0.08257015,0.00844300,0.04294886
1757984264665,0.13280227,0.01983865,-0.41731187,0.02218328,0.00824988,-0.02087131,0.99561785,0.08269549,0.00848961,0.04283094
1757984264676,-0.02202580,-0.01984753,0.05294229,-0.01126586,0.00417744,-0.01247311,0.99562603,0.08263127,0.00851342,0.04275984
1757984264687,0.01466253,-0.03096173,-0.00544872,0.01153043,0.01271836,-0.00603758,0.99562155,0.08269527,0.00858401,0.04272633
1757984264698,-0.00761929,0.02500459,-0.00967529,0.01255140,0.00858638,-0.00401145,0.99561630,0.08276493,0.00863166,0.04270407
1757984264709,-0.02755205,-0.06089678,0.01458884,0.01715705,0.00065187,-0.00255146,0.99560889,0.08286101,0.00863531,0.04268978
1757984264720,-0.08611490,0.01103678,0.01041498,0.01270895,-0.00519121,-0.01201192,0.99560615,0.08293091,0.00860676,0.04262371
1757984264732,0.14931184,0.02913073,0.12636478,0.01852296,0.00036139,0.00028651,0.99559734,0.08303556,0.00860880,0.04262533
1757984264743,-0.09220190,0.06685970,-0.01988122,0.02071141,-0.00328090,0.01301730,0.99558470,0.08315154,0.00859043,0.04269823
1757984264754,-0.03242998,-0.00935480,-0.02755955,0.04227970,0.02450712,0.00597859,0.99556226,0.08338831,0.00872767,0.04273171
1757984264765,-0.19369160,0.07612113,-0.13677582,0.01552331,0.02311969,0.01363286,0.99555066,0.08347446,0.00885598,0.04280737
1757984264777,-0.03093337,0.06734602,-0.07629312,0.02088788,0.02067700,0.01646176,0.99553571,0.08359248,0.00897281,0.04290038
1757984264788,-0.05651717,-0.09134031,-0.13013368,0.04710020,0.02876184,-0.01631053,0.99551634,0.08385153,0.00913100,0.04281067
1757984264799,-0.05882871,-0.05457953,0.06169103,-0.00001304,0.02453740,-0.03901160,0.99552460,0.08385146,0.00927086,0.04258831
1757984264810,-0.02203522,-0.10260725,-0.01960031,-0.01019411,0.02737731,-0.01964535,0.99553252,0.08379539,0.00942144,0.04248026
1757984264821,0.04152431,-0.05791984,0.10779496,-0.01969102,0.03821302,-0.00335822,0.99554062,0.08368414,0.00963734,0.04246128
1757984264832,0.04256307,-0.27873225,0.38580635,-0.00181608,0.03720962,0.01524686,0.99553588,0.08367415,0.00984199,0.04254514
1757984264843,-0.04209526,0.07312243,0.00108856,0.00647179,0.03340244,0.00311747,0.99553022,0.08371039,0.01002905,0.04256260
1757984264855,0.09443896,-0.00415769,-0.09408259,0.02215761,0.02979968,0.01281506,0.99551501,0.08383447,0.01019593,0.04263436
1757984264866,-0.02891168,0.13057758,-0.34077390,-0.01057588,0.00968032,0.01336086,0.99551621,0.08377631,0.01024917,0.04270785
1757984264877,0.03215665,-0.10810739,0.03059608,-0.00692706,0.00770130,-0.00092108,0.99551928,0.08373717,0.01029268,0.04270264
1757984264888,0.01947229,-0.01462944,0.02347229,-0.02293898,-0.00506380,0.01102860,0.99552772,0.08360871,0.01026432,0.04276440
1757984264899,0.04110354,-0.02133630,0.03136809,-0.02090680,0.00284200,0.02032630,0.99553240,0.08349372,0.01027995,0.04287620
1757984264911,0.00771972,0.06728329,-0.01819544,-0.01786652,0.00153723,0.02793667,0.99553397,0.08339188,0.01028872,0.04303544
1757984264921,-0.02821402,0.14145516,-0.00885422,0.00015248,0.00197672,0.01017552,0.99553139,0.08339271,0.01029949,0.04309089
1757984264933,0.53089724,0.30434264,0.21965681,0.00713949,0.00578238,0.01620716,0.99552377,0.08343269,0.01033187,0.04318165
1757984264944,-0.08065919,-0.05939557,-0.07792699,0.01305694,-0.00660992,0.00559312,0.99551667,0.08350581,0.01029486,0.04321297
1757984264955,-0.02240003,-0.03708925,-0.02681438,-0.00231749,-0.00030882,0.00961975,0.99551544,0.08349295,0.01029314,0.04326636
1757984264965,-0.38196241,-0.22836666,-0.23329967,-0.00289200,0.00056650,0.00807524,0.99551487,0.08347835,0.01029600,0.04330714
1757984264976,0.03355791,-0.04465988,-0.01867726,-0.00277025,0.00119223,0.00022808,0.99551604,0.08346283,0.01030268,0.04330842
1757984264987,-0.01102193,-0.06327331,-0.01106592,-0.00862111,0.00408019,-0.01255429,0.99552279,0.08341542,0.01032512,0.04323937
1757984264998,0.01173899,-0.07211832,-0.05010043,-0.01447348,-0.00461540,-0.01616738,0.99553367,0.08333509,0.01029950,0.04314964
1757984265010,0.08032529,0.06694630,0.01015397,-0.01381481,0.00316658,-0.01024219,0.99554245,0.08325773,0.01031724,0.04309229
1757984265021,0.08208468,0.03147965,-0.02185757,-0.00255096,0.00362146,0.00023991,0.99554337,0.08324344,0.01033752,0.04309363
1757984265032,0.26982190,0.04856814,0.22756808,0.00720335,0.00855421,-0.00796818,0.99554145,0.08328342,0.01038499,0.04304941
1757984265043,-0.01557555,0.07430948,-0.00125854,0.00363054,0.00061198,-0.00922889,0.99554194,0.08330375,0.01038842,0.04299773
1757984265054,-0.00617714,-0.03893380,-0.06177140,0.00003444,-0.00671885,-0.00342003,0.99554315,0.08330394,0.01035079,0.04297857
1757984265065,-0.19125374,-0.02794562,-0.26704249,-0.00567021,-0.00995182,-0.00727285,0.99554814,0.08327219,0.01029506,0.04293785
1757984265076,-0.02916018,-0.12210057,-0.05374622,-0.01286460,-0.01391779,-0.00388761,0.99555576,0.08320144,0.01021852,0.04291646
1757984265089,-0.00251546,-0.05741519,0.01155682,-0.01821019,-0.01504654,0.00099838,0.99556612,0.08308580,0.01012297,0.04292280
1757984265099,0.02577666,-0.09990231,-0.04415437,-0.04385016,-0.01135773,0.02449277,0.99557969,0.08286655,0.01006618,0.04304527
1757984265110,0.02169773,0.02745567,-0.00558094,-0.02672967,-0.00346498,0.01870537,0.99558743,0.08272355,0.01004764,0.04314534
1757984265121,-0.02516933,0.01394016,-0.04230002,-0.02308473,-0.01869492,0.01186857,0.99559626,0.08259543,0.00994389,0.04321121
1757984265132,0.33033998,-0.15337836,0.29551812,-0.01928369,-0.01416409,0.01456656,0.99560245,0.08248744,0.00986457,0.04329278
1757984265143,0.12529289,-0.00672654,0.08205858,-0.02382533,-0.02057429,0.01406772,0.99561113,0.08235521,0.00975038,0.04337086
1757984265155,0.01314836,-0.05112541,0.00800502,-0.01731869,-0.01937684,-0.00509704,0.99562145,0.08225822,0.00964187,0.04334232
1757984265165,-0.34437604,0.19704949,-0.30314275,-0.03481417,-0.01788948,-0.00263325,0.99563883,0.08206674,0.00954348,0.04332783
1757984265177,-0.04606289,-0.01486887,-0.00827650,-0.03238616,-0.02086430,0.01004760,0.99565242,0.08188538,0.00942664,0.04338410
1757984265188,-0.02047111,-0.02278137,-0.01379536,-0.02570843,-0.00707087,0.00358979,0.99566385,0.08174013,0.00938669,0.04340438
1757984265199,-0.03524278,0.04845882,0.06721802,-0.03866850,-0.00187773,0.01136547,0.99567906,0.08152165,0.00937608,0.04346860
1757984265211,-0.02171565,-0.02341211,-0.01018450,-0.02406576,0.00611209,0.00977070,0.99568737,0.08138688,0.00941031,0.04352331
1757984265222,-0.07165796,-0.08459697,0.04076268,-0.02746010,0.00221350,-0.00247358,0.99570018,0.08123585,0.00942248,0.04350971
1757984265233,-0.04889322,0.00569523,0.47354404,-0.04951651,0.00582618,-0.00467862,0.99572340,0.08096104,0.00945482,0.04348374
1757984265244,0.01502355,0.04263365,0.05233115,-0.04025550,0.00146654,0.00752254,0.99573993,0.08073359,0.00946310,0.04352625
1757984265255,0.01494105,0.09165922,0.03864124,-0.01830975,0.01303499,0.00928961,0.99574522,0.08063197,0.00953545,0.04357780
1757984265266,0.06321080,0.20228420,-0.27163147,-0.00320656,0.02567272,-0.00741468,0.99574710,0.08061402,0.00967921,0.04353628
1757984265277,-0.10667445,0.16405057,-0.08457930,0.00077688,0.00113338,0.00981403,0.99574428,0.08061837,0.00968556,0.04359124
1757984265289,0.11106972,0.15674492,0.06082107,0.02652273,0.02738621,0.00724968,0.99572896,0.08076689,0.00983892,0.04363184
1757984265300,-0.03858455,-0.02927262,-0.00091570,0.04807465,0.01720752,0.00140301,0.99570599,0.08103371,0.00993443,0.04363962
1757984265311,-0.02319223,-0.03383465,0.14755760,-0.01086905,0.02194404,-0.02350345,0.99571564,0.08097176,0.01005951,0.04350565
1757984265322,-0.04257022,-0.06039555,0.12770846,-0.00788321,0.01899959,0.00105846,0.99571783,0.08092879,0.01016305,0.04351142
1757984265333,-0.07186345,0.15350545,0.29174916,-0.01365943,0.02375740,0.00470086,0.99572156,0.08085162,0.01029728,0.04353798
1757984265344,-0.01094464,0.10486536,0.08976617,0.00615869,0.03308338,-0.00261997,0.99571750,0.08088580,0.01048090,0.04352344
1757984265356,0.07691858,0.00937294,-0.07740235,0.02821971,0.02724095,0.00947775,0.99570087,0.08104242,0.01063208,0.04357604
1757984265367,0.09923020,-0.01712653,-0.22665778,0.03941210,0.01355986,0.00529976,0.99568076,0.08126312,0.01070802,0.04360572
1757984265378,0.07028194,0.01894376,0.00423294,0.04949571,0.00826424,-0.00241987,0.99565840,0.08153782,0.01075389,0.04359229
1757984265389,-0.03941132,0.00500697,-0.01197678,0.03637103,0.00093367,-0.01694891,0.99564568,0.08174332,0.01075916,0.04349653
1757984265400,-0.01059966,-0.05650702,0.02930169,0.02335306,0.00918120,-0.00035106,0.99563476,0.08187060,0.01080920,0.04349462
1757984265411,-0.00123271,-0.11439065,-0.02335385,0.02849157,0.00813265,0.01629573,0.99561730,0.08202872,0.01085433,0.04358506
1757984265422,-0.01972001,-0.01181277,-0.01568912,0.02003508,0.01902427,0.00537486,0.99560525,0.08214393,0.01096372,0.04361596
1757984265434,0.05454478,-0.09595802,-0.10837208,0.01356959,0.01109171,0.01577557,0.99559461,0.08221856,0.01102473,0.04370273
1757984265445,-0.00762039,-0.01122059,-0.04566738,0.03258364,0.01370922,0.01229070,0.99557582,0.08239940,0.01110081,0.04377094
1757984265456,-0.03949110,0.10804750,0.00591601,0.02451924,0.01634855,0.00305678,0.99556267,0.08253671,0.01119237,0.04378806
1757984265467,-0.07153994,0.11792520,0.06272527,0.03323243,0.02599248,-0.01296057,0.99554889,0.08272115,0.01133662,0.04371613
1757984265478,-0.03289600,-0.02712106,-0.09868799,0.03833794,0.01816623,0.00381143,0.99552911,0.08293392,0.01143745,0.04373728
1757984265489,0.00478803,-0.03834894,-0.01662648,0.02073013,0.02967445,-0.00313050,0.99551827,0.08305001,0.01160362,0.04371975
1757984265501,-0.10456761,-0.07610973,-0.04512876,-0.00227369,0.02004155,-0.01467973,0.99552166,0.08303716,0.01171686,0.04363681
1757984265512,0.02166386,-0.09258052,-0.02811422,-0.00350968,0.03921040,-0.01164810,0.99552361,0.08301681,0.01194428,0.04356925
1757984265523,-0.07252931,-0.08014809,0.01737777,-0.00154690,0.03321826,0.00415165,0.99552121,0.08300861,0.01212034,0.04359126
1757984265534,-0.31992019,-0.22429395,0.33576919,0.00323223,0.03047658,-0.00569948,0.99551902,0.08302655,0.01228948,0.04355962
1757984265545,-0.01022737,-0.01419194,-0.02598895,0.01664965,0.02583023,-0.00355988,0.99551024,0.08312062,0.01243542,0.04353951
1757984265556,0.04003787,0.04576192,-0.07253619,0.01276251,0.02439810,0.01358971,0.99549922,0.08319209,0.01257205,0.04361561
1757984265567,0.28034810,0.26624226,-0.32413097,0.00424895,0.01921828,0.00485497,0.99549472,0.08321567,0.01267871,0.04364256
1757984265579,-0.06700141,0.01182200,-0.03870117,0.00624874,0.01231576,0.00779880,0.99548905,0.08325035,0.01274707,0.04368584
1757984265590,0.05215573,-0.06086655,-0.01578745,-0.00165851,0.01961088,0.01658712,0.99548433,0.08324106,0.01285689,0.04377873
1757984265601,-0.06544537,-0.09115239,-0.04502467,-0.01173399,0.01863322,0.01615452,0.99548448,0.08317594,0.01296030,0.04386839
1757984265612,-0.00534453,-0.05019140,0.02941740,-0.02627505,0.02367426,0.01694487,0.99549085,0.08302880,0.01309288,0.04396328
1757984265623,0.01020065,-0.06631309,-0.04884643,-0.00753367,0.01843788,0.01085015,0.99549031,0.08298623,0.01319705,0.04402458
1757984265635,0.08664185,0.14851469,0.21844115,-0.01275652,0.01557969,0.00921806,0.99549282,0.08291480,0.01328430,0.04407620
1757984265646,0.05198958,0.03025095,-0.00008639,0.00242377,0.02150052,0.01056268,0.99548750,0.08292825,0.01340362,0.04413483
1757984265657,-0.02195178,0.08926939,-0.04540799,-0.00474527,0.01606369,0.00173066,0.99548806,0.08290215,0.01349197,0.04414434
1757984265668,-0.06519738,-0.03358971,-0.18699818,0.00036968,0.01599225,0.01180064,0.99548362,0.08290428,0.01358393,0.04421220
1757984265679,-0.07838237,-0.02989688,-0.01718466,-0.00404847,0.01145833,0.00815933,0.99548265,0.08288262,0.01364523,0.04425585
1757984265690,0.08777976,-0.05909606,-0.01978848,-0.00663942,0.01506471,0.01066036,0.99548192,0.08284510,0.01373035,0.04431608
1757984265701,-0.04536350,-0.07465997,-0.01012563,-0.01159810,0.01163347,0.00549388,0.99548505,0.08278015,0.01379550,0.04434685
1757984265714,0.06177444,0.00638890,0.00712019,-0.01436141,0.00661348,0.00773015,0.99549001,0.08268609,0.01383881,0.04439748
1757984265723,-0.14331853,-0.12793955,-0.10381802,-0.01665945,0.01076858,0.03621068,0.99548828,0.08261112,0.01388727,0.04456043
1757984265735,-0.23236023,-0.13463473,0.12148943,-0.00641733,-0.00761689,0.00731751,0.99549000,0.08257550,0.01384500,0.04460104
1757984265745,0.06262982,-0.02374931,0.06456762,-0.01359028,-0.00041585,0.01069315,0.99549356,0.08250144,0.01384273,0.04465932
1757984265757,0.04737650,0.08762360,0.00336615,-0.02270671,-0.00083668,0.00932850,0.99550196,0.08237201,0.01383796,0.04471249
1757984265768,0.15950941,0.12307648,-0.18569765,-0.02602539,-0.00720848,0.03859454,0.99550484,0.08222627,0.01379760,0.04492862
1757984265779,-0.07994644,-0.05544577,-0.07887732,-0.00072384,-0.00210458,0.00514825,0.99550404,0.08222221,0.01378581,0.04495745
1757984265791,-0.01999807,0.05126010,-0.01476229,-0.01473173,0.00468672,0.01537493,0.99550661,0.08213898,0.01381229,0.04504432
1757984265801,-0.04187147,0.09819943,-0.09263368,-0.00316586,0.00615074,0.02827041,0.99550064,0.08212188,0.01384550,0.04519698
1757984265813,0.05005478,0.00300497,-0.03843252,0.01635377,0.00745598,0.02877811,0.99548503,0.08221428,0.01388763,0.04535957
1757984265824,0.11189734,-0.01645335,0.10346570,0.00946838,0.00865612,-0.00023017,0.99548008,0.08226683,0.01393567,0.04535830
1757984265835,0.28708957,-0.03985288,0.36795810,-0.00339149,0.01346887,-0.00201757,0.99548111,0.08224767,0.01401177,0.04534690
1757984265846,0.01517163,-0.00347701,0.01798056,-0.01435061,0.02120507,0.01597544,0.99548199,0.08216731,0.01413052,0.04543636
1757984265857,-0.24886745,-0.07100741,-0.27749611,-0.01381858,0.02622597,0.02037112,0.99548107,0.08208992,0.01427738,0.04555044
1757984265869,-0.40719055,0.03790075,-0.26850667,-0.02295831,0.02859392,0.02213632,0.99548365,0.08196250,0.01443608,0.04567330
1757984265880,0.02865007,-0.07118024,0.03137799,-0.03265839,0.03458408,0.03874792,0.99548588,0.08177962,0.01462975,0.04589028
1757984265891,0.01475158,-0.07896189,0.00413792,-0.02116129,0.02838196,0.02079030,0.99548787,0.08166217,0.01478727,0.04600567
1757984265902,-0.07092687,0.05244950,0.04531615,-0.02450155,0.00691868,0.00663855,0.99549682,0.08152496,0.01482602,0.04604285
1757984265913,0.08838061,0.09630992,0.02660922,-0.01099535,0.02282506,0.01389100,0.99549635,0.08146339,0.01495384,0.04612064
1757984265924,0.01455937,0.09565285,0.07739371,0.00458234,0.02305823,0.02891002,0.99548489,0.08148882,0.01508181,0.04628109
1757984265936,0.07442640,0.03272348,0.03828714,0.00701756,0.02813647,0.03427498,0.99547033,0.08152812,0.01523937,0.04647303
1757984265947,-0.02934141,-0.00843417,-0.00855296,0.01548004,0.03176877,0.04162022,0.99544958,0.08161481,0.01541728,0.04670610
1757984265958,-0.05770621,0.03315057,-0.00097617,0.00212574,0.03841801,0.03612484,0.99543586,0.08162660,0.01563050,0.04690659
1757984265969,-0.10175157,-0.08642939,-0.10737007,-0.00045243,0.03383361,0.02395092,0.99542675,0.08162407,0.01581997,0.04704072
1757984265980,0.04874545,-0.00561487,0.03344405,-0.01947996,0.03992426,0.02112912,0.99542652,0.08151693,0.01603955,0.04715693
1757984265991,0.09028148,-0.03705802,-0.00801290,-0.00305655,0.03728006,0.02440793,0.99541812,0.08149997,0.01624645,0.04729239
1757984266002,0.00286278,-0.02077881,-0.06013624,-0.00317211,0.02070852,0.00991086,0.99541501,0.08148204,0.01636346,0.04734839
1757984266014,0.10727679,0.01615130,0.04842796,-0.00515213,0.03005625,-0.00250676,0.99541526,0.08145242,0.01653628,0.04733397
1757984266025,0.00010978,0.02356949,0.24763836,-0.00891546,0.02765185,0.00132576,0.99541636,0.08140472,0.01668422,0.04734107
1757984266036,0.03036188,-0.08466673,0.37413546,0.00155476,0.02650023,0.00009958,0.99541315,0.08141335,0.01683130,0.04734162
1757984266047,0.02316427,0.03635491,-0.03403206,0.00055075,0.01556638,0.01004428,0.99540875,0.08141643,0.01691847,0.04739787
1757984266059,0.08889696,0.07998657,-0.19448381,-0.00491186,0.02292778,-0.00058962,0.99540898,0.08138696,0.01705603,0.04739433
1757984266069,-0.02145515,0.04614003,-0.47482055,-0.01769095,0.00789188,0.00850785,0.99541359,0.08129674,0.01709628,0.04743772
1757984266080,0.09618356,-0.03892390,0.06870321,-0.00996340,0.00612259,-0.00280115,0.99541831,0.08124094,0.01713057,0.04742203
1757984266092,0.07329414,0.01386887,-0.02660922,-0.00421913,-0.01110646,0.00481758,0.99542002,0.08121732,0.01706837,0.04744901
1757984266103,0.08481688,0.11599955,0.00760263,0.00845124,-0.00947817,0.00527404,0.99541565,0.08126464,0.01701529,0.04747855
1757984266114,0.03183603,0.08134224,0.01520527,0.01141521,-0.01343769,0.01109995,0.99540875,0.08132857,0.01694004,0.04754071
1757984266125,0.09916420,-0.03576943,-0.02604554,0.01252396,-0.01831629,0.01167072,0.99540170,0.08139808,0.01683839,0.04760548
1757984266136,0.25536243,0.04296360,0.13129953,-0.01146547,-0.01899917,0.01714180,0.99540414,0.08133387,0.01673199,0.04770147
1757984266149,0.01490250,-0.14199035,0.04665803,-0.02708677,-0.01204220,0.02548428,0.99541146,0.08116729,0.01665793,0.04785820
1757984266160,-0.12167704,-0.05848755,-0.00986035,-0.01898482,0.00190633,0.00693612,0.99541831,0.08105718,0.01666899,0.04789843
1757984266169,-0.31901737,-0.12447896,-0.14815552,-0.01641861,-0.00237746,0.02231259,0.99541971,0.08098083,0.01665793,0.04800218
1757984266180,0.00095872,0.11884249,0.01761708,-0.00160349,-0.00669731,0.00827784,0.99541885,0.08097201,0.01662110,0.04804771
1757984266193,0.03516842,0.09138696,0.07327238,0.00252355,0.00405455,0.00050890,0.99541701,0.08098766,0.01664624,0.04805087
1757984266203,-0.12101054,0.07184185,-0.08192350,0.01338733,-0.00204695,0.00167999,0.99541138,0.08105392,0.01663611,0.04805918
1757984266214,0.07408747,0.00917711,0.08605724,0.01210076,0.00910267,-0.00292566,0.99540570,0.08112290,0.01668799,0.04804251
1757984266225,0.16316955,0.02973643,-0.00347413,0.00356317,0.00560536,-0.00236848,0.99540421,0.08114250,0.01671882,0.04802948
1757984266236,0.60202488,0.04272054,-0.00444063,0.00364497,0.01563043,0.00029586,0.99540099,0.08116291,0.01680635,0.04803114
1757984266248,-0.08428663,-0.02763847,0.00247283,-0.00402343,0.01219138,-0.00290642,0.99540255,0.08113897,0.01687889,0.04801384
1757984266260,-0.19708386,-0.10480640,0.00635839,-0.00154192,0.00820016,-0.00001804,0.99540248,0.08112972,0.01692809,0.04801374
1757984266270,-0.64914041,-0.11151418,-0.11607031,0.00431231,0.01167724,-0.01166289,0.99540253,0.08114998,0.01698297,0.04795892
1757984266285,0.11035378,0.06515476,0.14709350,-0.00281589,0.00582991,0.00229773,0.99540268,0.08112816,0.01702816,0.04797673
1757984266291,-0.78862242,0.45034417,-0.78342694,0.03334087,0.01252174,0.01542550,0.99539202,0.08122485,0.01706447,0.04802146
1757984266303,0.28488208,-0.11304907,0.23009563,0.04725122,0.02163697,0.01224985,0.99536233,0.08151544,0.01719754,0.04809680
1757984266313,-0.10402679,0.07161877,-0.12572360,0.03205057,0.03031699,0.00413968,0.99534573,0.08167409,0.01734760,0.04811729
1757984266324,0.04234004,-0.05098540,-0.00160308,0.01637671,0.02343209,0.01369248,0.99533220,0.08176580,0.01747882,0.04819397
1757984266336,-0.02735860,-0.34042230,0.01213754,0.02201452,0.01669453,0.01032102,0.99531736,0.08189129,0.01757398,0.04825280
1757984266348,0.02926355,-0.07367445,0.04641028,-0.00600468,0.01653662,-0.02084493,0.99532468,0.08185496,0.01767403,0.04812669
1757984266358,-0.01722462,-0.06679720,-0.08706129,-0.00895684,0.01531946,-0.00829186,0.99532917,0.08180838,0.01775369,0.04808357
1757984266369,0.15109320,0.30954916,-0.02061483,-0.01508841,0.01581659,-0.00059784,0.99533469,0.08172389,0.01784226,0.04808022
1757984266384,0.02297339,0.00845031,0.03056961,-0.00088698,0.00702778,0.00231478,0.99533353,0.08171763,0.01789181,0.04809654
1757984266392,-0.34440111,0.14563474,-0.61533341,0.00366691,-0.00621393,0.00670328,0.99533148,0.08173230,0.01786695,0.04812335
1757984266403,0.26979858,-0.00693144,0.27260139,-0.00887135,0.01406367,0.02136154,0.99532837,0.08168307,0.01794501,0.04824191
1757984266419,0.01184259,-0.10582861,0.07363625,-0.00085547,0.00012750,0.01133577,0.99532454,0.08167627,0.01794602,0.04833203
1757984266426,-0.28794837,-0.35083877,-0.70535627,-0.03558321,-0.01035421,0.00695443,0.99533478,0.08154461,0.01790771,0.04835776
1757984266438,0.01140752,-0.19980950,0.56227741,-0.02401089,-0.00079834,0.00241701,0.99534576,0.08140294,0.01790300,0.04837202
1757984266446,-0.23878776,-0.58876464,-0.11310402,-0.06213502,0.01147547,0.01791785,0.99536314,0.08113266,0.01795292,0.04844996
1757984266457,0.00703272,0.14308025,0.06180300,-0.05411426,0.02969105,0.03509749,0.99537466,0.08084314,0.01811177,0.04863773
1757984266469,-0.02306084,0.35413697,-0.33993660,-0.04795474,0.03727069,0.03402798,0.99538375,0.08056021,0.01833166,0.04883850
1757984266480,-0.12966631,-0.03923311,-0.08087258,-0.03166198,0.04949122,0.03186309,0.99538416,0.08038765,0.01860139,0.04901215
1757984266491,-0.01573256,-0.02336557,0.04181604,-0.04520648,0.05882274,0.03839729,0.99538781,0.08012998,0.01893668,0.04923102
1757984266503,-0.01089266,0.05411933,0.02751830,-0.06365341,0.05987931,0.03520377,0.99540046,0.07976715,0.01927799,0.04943168
1757984266514,-0.03937327,0.00794237,-0.08612718,-0.03001041,0.04876511,0.03580450,0.99539859,0.07959759,0.01955351,0.04963397
1757984266525,-0.02706192,-0.09305540,0.20594675,-0.03090121,0.05936550,0.03405673,0.99539632,0.07942609,0.01988299,0.04982299
1757984266536,-0.09513301,-0.21110186,0.22341244,-0.04545286,0.05058210,0.02448449,0.99540409,0.07916928,0.02016878,0.04996133
1757984266548,0.05624841,-0.00329672,0.02147242,-0.02677210,0.05421910,-0.00618603,0.99541161,0.07901802,0.02047512,0.04992638
1757984266559,0.11518088,0.28693108,-0.14377187,-0.02610441,0.03029296,0.01624840,0.99541517,0.07887053,0.02064628,0.05001818
1757984266570,0.22604393,0.28876908,-0.18765030,-0.01224897,0.03455232,0.01763698,0.99541157,0.07880132,0.02084150,0.05011783
1757984266581,0.03480134,0.05666566,-0.00878834,-0.00207664,0.01367386,0.00683289,0.99540900,0.07878990,0.02091670,0.05015541
1757984266593,0.07313461,0.03988922,0.06643720,-0.00810017,0.01690272,0.01276965,0.99540697,0.07874414,0.02101220,0.05022756
1757984266604,0.10900822,-0.00016794,-0.01275796,0.00048155,0.00415670,0.01237609,0.99540277,0.07874683,0.02103548,0.05029686
1757984266615,0.04920362,-0.02798897,0.03430410,-0.00995835,0.00151121,0.01118033,0.99540382,0.07869156,0.02104387,0.05035891
1757984266626,0.02392203,-0.18467188,0.09004456,-0.00255842,-0.01001116,0.00450933,0.99540487,0.07867711,0.02098730,0.05038439
1757984266637,-0.00802600,-0.13972103,0.01282619,0.00477328,-0.01809631,0.00758117,0.99540276,0.07870360,0.02088687,0.05042647
1757984266648,0.06263611,0.11661411,-0.00071061,0.01311070,-0.01558759,0.00454574,0.99539749,0.07877702,0.02079958,0.05045192
1757984266660,0.13438602,0.20190595,-0.03523445,0.02233588,-0.01375128,0.01153255,0.99538581,0.07890322,0.02072188,0.05051708
1757984266671,0.00981446,0.12020507,-0.04998059,0.02079095,-0.02107987,-0.00798221,0.99538129,0.07901965,0.02060384,0.05047238
1757984266682,0.17794765,-0.04052285,0.07250423,-0.00047899,-0.01102948,0.00128892,0.99538241,0.07901699,0.02054262,0.05047954
1757984266693,-0.03357188,0.00182120,-0.03479403,0.00312667,-0.02178761,-0.01640586,0.99538818,0.07903450,0.02042061,0.05038766
1757984266741,-0.03623418,-0.00510226,0.10506892,0.00191647,-0.00680320,-0.00214659,0.99539045,0.07908011,0.02025870,0.05033657
1757984266752,1.53823470,-0.11332549,-2.13766054,0.01464985,-0.10701995,-0.05900341,0.99541241,0.07916142,0.01966474,0.05000910
1757984266764,-0.78273219,0.00866427,1.45477355,0.00288359,-0.05080656,-0.02509372,0.99542426,0.07917829,0.01936752,0.04986231
1757984266774,-0.16563533,-0.06166027,-0.38682363,-0.00343185,-0.05538743,-0.01551712,0.99543549,0.07916010,0.01907396,0.04978007
1757984266787,-0.14635129,0.01305013,0.17756887,-0.01953575,-0.03924790,0.00703129,0.99544824,0.07903214,0.01881689,0.04982612
1757984266798,0.00145991,-0.16900621,-0.11404440,-0.02730605,-0.04421247,0.00859441,0.99546171,0.07888878,0.01858477,0.04987124
1757984266808,-0.06296095,-0.10381142,-0.00499544,-0.04025919,-0.03866869,-0.01125009,0.99548405,0.07868749,0.01839143,0.04981499
1757984266818,-0.04070816,0.05015503,0.15178905,-0.04503306,-0.02600253,0.02009291,0.99549979,0.07845331,0.01825622,0.04991947
1757984266830,-0.18851765,-0.07559170,0.00201036,-0.02026835,-0.02290673,0.01510785,0.99550708,0.07833576,0.01812336,0.05000710
1757984266841,-0.19522454,0.06990486,0.05107637,0.01487175,-0.01329434,0.00141068,0.99550133,0.07842127,0.01804692,0.05001521
1757984266853,-0.06613975,0.26920680,0.00360557,0.00340146,-0.01033490,0.00336838,0.99549989,0.07844083,0.01798749,0.05003458
1757984266865,0.33777224,0.03820432,-0.18507966,0.01396055,-0.00306936,0.00728178,0.99549114,0.07852738,0.01796846,0.05007973
1757984266876,-0.01958267,-0.13476543,-0.11769929,0.00985590,0.00490319,-0.00512817,0.99548770,0.07858307,0.01799616,0.05005075
1757984266888,0.00864863,-0.10643135,0.06951700,-0.03252580,0.00907640,-0.02533664,0.99550827,0.07840093,0.01804699,0.04990887
1757984266899,0.02925187,0.01771785,0.13061045,-0.07900573,0.01116434,-0.02226213,0.99554989,0.07793874,0.01811230,0.04977863
1757984266921,-0.02935715,0.05521582,0.23417484,-0.01978374,-0.00481203,0.00076628,0.99556681,0.07772903,0.01806130,0.04978676
1757984266931,0.38216836,-0.14300338,-0.59753599,-0.03347007,-0.01873150,-0.01193006,0.99558489,0.07755834,0.01796577,0.04972591
1757984266934,6.28625967,-0.08056369,0.00238514,-0.12342631,-0.04944042,0.01861710,0.99559828,0.07738554,0.01789655,0.04975198
1757984266970,-0.61046145,0.08978610,0.29685752,-0.00894747,-0.01102434,-0.00014948,0.99561456,0.07722359,0.01769701,0.04974927
1757984266987,0.83294847,-0.15470719,-0.53310599,-0.04905391,-0.09805309,-0.02878871,0.99567519,0.07679437,0.01683904,0.04949737
1757984266998,-0.15588642,0.01326182,-0.00240143,0.00224827,-0.06904879,-0.00280875,0.99568097,0.07680595,0.01648344,0.04948290
1757984267010,-0.33276037,0.17908622,0.31048665,-0.00296715,-0.05036836,-0.00105879,0.99568783,0.07678755,0.01617116,0.04947634
1757984267020,0.14452127,-0.12994405,-0.20522801,0.04843208,-0.06034963,-0.01237867,0.99567684,0.07703456,0.01586338,0.04941321
1757984267030,0.06287591,0.16606975,0.41019729,0.00951823,-0.04988988,-0.00722916,0.99567893,0.07708310,0.01560894,0.04937634
1757984267042,-0.06917346,0.09028094,0.52786580,-0.01611664,-0.03386221,-0.03742927,0.99569960,0.07699123,0.01541592,0.04916299
1757984267052,0.12013588,0.04311082,0.14907493,-0.00039264,-0.01845692,-0.02788614,0.99570822,0.07698923,0.01532179,0.04902077
1757984267064,-0.26805451,-0.06818057,-0.22125109,-0.00244879,-0.02786135,-0.02678103,0.99571991,0.07697442,0.01515323,0.04885875
1757984267076,-0.11439671,-0.07391345,-0.29653182,-0.02164444,-0.03160591,-0.04644757,0.99574578,0.07684780,0.01496834,0.04858703
1757984267086,0.15128302,-0.01108551,0.04953083,-0.02548926,-0.02760392,-0.04845791,0.99576971,0.07671907,0.01482894,0.04834232
1757984267098,-0.07532177,0.01366021,0.03081420,-0.00333612,-0.02721262,-0.01437388,0.99577758,0.07669973,0.01467110,0.04825895
1757984267109,-0.04367364,0.15149818,0.06688793,-0.00044844,-0.02705026,-0.02564216,0.99578752,0.07669706,0.01451015,0.04810638
1757984267121,-0.04674610,0.04190872,-0.05406648,0.01468934,-0.04589046,-0.01906191,0.99579018,0.07678372,0.01423940,0.04799391
1757984267132,-0.04532758,0.09853729,0.41625566,0.02330180,-0.03984291,-0.02324011,0.99578955,0.07691188,0.01402026,0.04786609
1757984267153,-0.20363384,-0.06221565,-0.06202520,0.01025018,-0.02696679,-0.01414952,0.99579231,0.07701951,0.01373711,0.04771752
1757984267164,0.31732546,0.10467717,0.10139005,0.03821345,-0.04731638,-0.01202647,0.99578302,0.07722395,0.01348397,0.04765318
1757984267166,19.75357675,6.75823809,-4.07713238,0.16127121,-0.19269392,-0.10272206,0.99577825,0.07737716,0.01330091,0.04755560
1757984267177,-3.37629280,-1.16772421,0.41215259,0.02206237,-0.01879139,-0.00036893,0.99577007,0.07750181,0.01319474,0.04755351
1757984267187,-0.02897531,0.04086108,-0.04179426,0.02296596,-0.02350344,0.00302830,0.99576171,0.07762009,0.01307370,0.04756911
1757984267199,-0.15242739,-0.06878075,0.00519833,0.01918411,-0.00250568,-0.01453401,0.99575728,0.07773040,0.01305929,0.04748554
1757984267211,-0.05050310,-0.04789024,-0.01986995,0.00731971,-0.00080076,-0.01560251,0.99575836,0.07777358,0.01305457,0.04739348
1757984267223,-0.04042045,0.02767265,0.00352184,0.01710789,-0.00258036,-0.01149555,0.99575382,0.07787623,0.01303908,0.04732451
1757984267234,0.52557917,-0.14649616,0.35016454,0.02583031,0.00439938,-0.01549814,0.99574649,0.07801701,0.01306306,0.04724004
1757984267254,-0.22560268,-0.00383172,-0.05661025,0.00280044,0.00252952,-0.00503130,0.99574635,0.07804571,0.01308899,0.04718847
1757984267256,34.60399719,-4.58521302,8.82439497,0.12327479,0.00340411,-0.12906674,0.99574383,0.07813200,0.01309137,0.04709813
1757984267266,-4.68136054,0.63774973,-1.38791337,-0.00948240,0.00847720,-0.00772551,0.99574921,0.07808080,0.01313715,0.04705641
1757984267278,-0.00855158,-0.12260035,-0.04288505,-0.00317933,0.01547174,0.00021274,0.99574941,0.07806236,0.01322688,0.04705764
1757984267299,-0.08649326,0.02292665,0.03081353,-0.00532568,0.00269054,-0.00423737,0.99575558,0.07800590,0.01325540,0.04701273
1757984267311,0.21311082,-0.03191235,-0.24007067,-0.00296325,0.00401486,0.00718148,0.99575461,0.07798798,0.01327969,0.04705617
1757984267332,-0.08665511,-0.00670540,0.14411225,-0.00573057,-0.00030938,0.00482396,0.99575698,0.07792752,0.01327643,0.04710707
1757984267344,0.14810666,-0.23315718,0.46460737,-0.03318333,-0.00535094,-0.00142563,0.99577228,0.07774169,0.01324646,0.04709908
1757984267355,0.00404829,0.12321745,0.02857667,-0.06531332,-0.00534841,0.01646476,0.99579658,0.07737920,0.01321678,0.04719046
1757984267365,-0.01631342,-0.04295260,-0.08127711,-0.02473298,-0.00645545,0.02978202,0.99579955,0.07725554,0.01318450,0.04733937
1757984267366,7.81915625,-12.65378478,-6.61003346,0.06433950,-0.02028531,0.00165536,0.99579618,0.07730058,0.01317030,0.04734053
1757984267376,-1.23568659,1.92954160,0.47272536,-0.01512782,-0.00488528,-0.00031861,0.99580258,0.07722343,0.01314539,0.04733891
1757984267388,0.06834478,0.10903684,-0.00154333,0.00417755,0.00835220,0.01934598,0.99579451,0.07724828,0.01319508,0.04745401
1757984267400,-0.06400208,0.05908602,-0.07250393,0.00906913,-0.01172311,0.01197423,0.99578802,0.07730088,0.01312709,0.04752347
1757984267410,0.00572790,0.11357373,0.13785176,-0.01739469,-0.00242677,-0.02200693,0.99580078,0.07720956,0.01311435,0.04740793
1757984267422,0.00132213,-0.06950783,0.03556183,-0.02160343,-0.00659846,-0.02215497,0.99581780,0.07707886,0.01307443,0.04727389
1757984267433,-0.14773513,-0.39269322,0.61202228,-0.02269046,-0.02276506,-0.00107607,0.99582947,0.07695293,0.01294808,0.04726792
1757984267453,0.01655516,0.05149272,-0.09763951,-0.01828405,-0.00897465,-0.00484883,0.99584652,0.07677557,0.01286103,0.04722089
1757984267455,-0.72112932,-6.31502154,16.95932365,-0.10408674,-0.11112252,0.02208759,0.99585618,0.07665587,0.01273324,0.04724629
1757984267466,0.36310838,1.45288930,-3.52737392,0.00367908,-0.00928678,0.00208489,0.99585470,0.07667648,0.01268123,0.04725796
1757984267478,-0.03479608,0.08371994,-0.05708636,0.01828624,-0.02433423,-0.00659772,0.99585005,0.07678436,0.01253766,0.04721903
1757984267499,-0.03047212,-0.00779395,-0.07524188,0.03555161,-0.01699876,-0.00395032,0.99582552,0.07715588,0.01236002,0.04717775
1757984267501,5.97095312,11.70618904,22.46787737,0.17861389,-0.21614655,-0.02177641,0.99581790,0.07728984,0.01219791,0.04716142
1757984267511,-0.88888492,-1.48981535,-2.95158718,0.00753729,-0.01429627,-0.00309532,0.99581655,0.07732828,0.01212500,0.04714564
1757984267522,-0.06673863,-0.03974641,-0.05314810,0.02798050,-0.00666647,0.01599133,0.99580030,0.07748777,0.01208700,0.04723679
1757984267534,0.12237148,-0.12660631,-0.10554873,0.01423848,-0.00574463,0.01128195,0.99579117,0.07757035,0.01205368,0.04730222
1757984267545,0.03394122,-0.09859984,0.03768742,0.00930338,0.00713153,0.00583782,0.99578496,0.07762338,0.01209433,0.04733550
1757984267565,-0.06387110,-0.03621339,-0.10056817,0.00003730,-0.00162836,0.00901418,0.99578092,0.07762375,0.01207838,0.04742384
1757984267567,-6.33609088,2.75573164,19.62906049,-0.08365634,0.07429012,0.07115542,0.99578292,0.07754846,0.01214524,0.04748788
1757984267578,0.70538584,-0.30766992,-2.79708264,-0.00633302,0.01772715,0.00753030,0.99578245,0.07751236,0.01224628,0.04753080
1757984267590,0.01399933,0.00132774,-0.05348791,0.00771683,0.01985294,0.00918081,0.99577493,0.07755750,0.01236242,0.04758451
1757984267610,0.03952747,-0.00794051,-0.11023082,0.00171703,0.01178970,-0.00699257,0.99577547,0.07757484,0.01248150,0.04751388
1757984267612,-7.66602030,2.98974444,16.43823552,-0.02979879,0.14231324,-0.03748692,0.99577767,0.07754653,0.01261669,0.04747827
1757984267623,1.22414018,-0.57968123,-2.59729466,-0.00966833,0.02016616,0.00817601,0.99577824,0.07749432,0.01272559,0.04752242
1757984267643,0.13998762,-0.03808298,0.04640529,-0.01335858,0.01673781,0.01044571,0.99578153,0.07735874,0.01289548,0.04762844
1757984267645,1.83838718,-4.78477726,50.41666588,0.11734856,0.22573431,0.09089362,0.99576840,0.07745261,0.01307607,0.04770116
1757984267655,-0.23985708,0.77542346,-6.92883555,-0.00286822,0.00903709,0.00301472,0.99576818,0.07743713,0.01312487,0.04771744
1757984267667,-0.12390975,0.06276389,-0.57834119,0.01101092,0.00734537,0.00989754,0.99575990,0.07750099,0.01316747,0.04777484
1757984267679,0.05917958,0.09037593,0.04399994,0.00230040,0.00205055,0.00957576,0.99575600,0.07751445,0.01317947,0.04783086
1757984267698,-0.00644161,-0.02612685,-0.15843760,0.00543381,-0.00326592,0.00204552,0.99575141,0.07756661,0.01314811,0.04785050
1757984267700,-0.51983943,3.79155390,11.19891802,0.06594235,0.03180636,0.01639307,0.99574348,0.07764904,0.01318787,0.04787099
1757984267722,0.07099690,-0.45753576,-1.31152139,0.00159601,-0.00063777,0.00692367,0.99573865,0.07766620,0.01318102,0.04794542
1757984267732,-0.01186292,-0.03910286,0.41512868,0.00294088,0.00232987,0.00075700,0.99573711,0.07768149,0.01319313,0.04794936
1757984267734,5.13266075,-4.37778625,26.41039450,-0.04737557,0.05080443,-0.02572995,0.99574073,0.07764122,0.01323632,0.04792749
1757984267744,-0.64676214,0.51629095,-4.45884276,0.00628744,0.00138084,-0.00017739,0.99573820,0.07767297,0.01324329,0.04792659
1757984267755,-0.01404183,0.13443526,-0.01193368,0.00734136,-0.00342455,-0.00254330,0.99573589,0.07771482,0.01322377,0.04791209
1757984267767,-0.08958858,0.21282752,-0.09316140,0.02717128,-0.00060636,-0.00343254,0.99572459,0.07787241,0.01322025,0.04789218
1757984267778,-0.06382701,-0.02732252,-0.04085799,0.03233516,-0.00462072,-0.00836431,0.99571269,0.07805834,0.01319368,0.04784409
1757984267790,0.03886887,0.03245850,0.01897659,0.03071675,-0.00146483,0.00073253,0.99569838,0.07823957,0.01318504,0.04784841
1757984267810,-0.00759407,-0.06244758,-0.13297327,0.01406932,-0.00007237,0.00498422,0.99568479,0.07838167,0.01318431,0.04789875
1757984267812,0.63809428,8.97807064,28.75896445,0.04980710,0.00493759,-0.02151250,0.99568243,0.07842151,0.01318826,0.04788154
1757984267823,-0.16711454,-1.41379175,-4.12702648,0.01019203,-0.01298709,0.00067857,0.99567897,0.07847451,0.01312073,0.04788507
1757984267834,-0.09594669,-0.21713422,-0.03750145,0.00115474,-0.00412156,0.00841792,0.99567650,0.07848098,0.01309765,0.04793221
1757984267845,-0.06339859,-0.07761779,-0.02996305,-0.01124878,-0.00843474,-0.00090109,0.99568253,0.07841573,0.01304872,0.04792698
1757984267857,-0.08701944,-0.08170336,-0.02689416,-0.02353212,-0.01619928,-0.01212418,0.99569775,0.07828042,0.01295558,0.04785727
1757984267868,0.25891278,0.14126921,0.02754824,-0.02666783,-0.00982212,0.00677930,0.99570875,0.07812575,0.01289861,0.04789659
1757984267888,-0.01132697,0.05144595,-0.13412416,-0.01387220,-0.00647975,0.01377341,0.99571367,0.07799119,0.01283576,0.04803019
1757984267890,-4.66711500,-2.53152133,16.15895044,-0.01768162,-0.07836337,0.12388728,0.99571044,0.07797528,0.01276523,0.04814169
1757984267922,0.26395105,0.16758374,-0.96974393,0.00496839,-0.00055025,0.00324748,0.99570184,0.07805452,0.01275645,0.04819349
1757984267923,-11.03381207,5.01542353,15.05074584,0.24525639,-0.05090446,0.07296530,0.99567859,0.07831204,0.01270300,0.04827010
1757984267933,2.35011785,-1.40841158,-3.02094122,-0.00323278,-0.00089417,-0.01980280,0.99568453,0.07829636,0.01269867,0.04817406
1757984267944,0.08033486,-0.03967400,-0.03018293,-0.03005449,0.00926023,-0.01153619,0.99570007,0.07812956,0.01275006,0.04811003
1757984267956,-0.06857364,-0.06957141,0.12481128,-0.08562416,0.02382303,-0.00647408,0.99573728,0.07765435,0.01288228,0.04807410
1757984267965,-0.25637573,0.11228355,-0.02064418,-0.04288254,0.02529881,0.02060556,0.99574725,0.07744208,0.01300751,0.04817610
1757984267977,-0.02687336,0.11999941,-0.12031830,-0.00026424,0.02484448,0.00278051,0.99574466,0.07744052,0.01315409,0.04819250
1757984267988,0.01162945,0.00671623,0.00792478,0.00643959,0.00419630,0.00701762,0.99573964,0.07747658,0.01317759,0.04823180
1757984268000,0.01841418,-0.01469367,-0.00531178,-0.00413755,-0.00242309,-0.00794763,0.99574388,0.07745279,0.01316366,0.04818610
1757984268012,0.05893883,-0.08634970,-0.03381131,0.00072395,-0.00505866,-0.00089691,0.99574420,0.07745702,0.01313406,0.04818086
1757984268033,0.05385342,0.05980303,-0.03697098,-0.00846296,0.00073853,0.00637250,0.99574775,0.07736859,0.01314178,0.04824745
1757984268034,-10.38428188,-8.11861868,17.47762487,-0.15077839,0.02516041,0.11182503,0.99575340,0.07722535,0.01316568,0.04835368
1757984268045,1.69671611,1.26227045,-2.75139672,-0.01917845,0.02048020,0.03184866,0.99575161,0.07712274,0.01327525,0.04852407
1757984268056,-0.02936896,-0.05643269,-0.05937311,-0.02430082,0.00182938,0.02806260,0.99575423,0.07699152,0.01328513,0.04867561
1757984268068,0.07477920,0.05076631,-0.22906696,-0.01437754,0.00914860,0.01391706,0.99575607,0.07690597,0.01333957,0.04875842
1757984268079,-0.00345583,0.02236776,0.03884963,-0.03604513,0.00512703,0.00836368,0.99576907,0.07670232,0.01336853,0.04880567
1757984268099,0.06241416,0.11704556,-0.06668129,-0.01445424,0.00603951,0.00140072,0.99577850,0.07656067,0.01342772,0.04881940
1757984268101,-2.59249794,-2.61539635,5.93729454,0.04364165,0.01842112,0.05912022,0.99577167,0.07660649,0.01344706,0.04888148
1757984268112,0.54134512,0.56724789,-1.05308230,-0.01066417,0.00085979,-0.00457845,0.99577751,0.07654624,0.01345192,0.04885561
1757984268132,0.06148583,-0.03286068,-0.07320580,-0.00778305,-0.00847015,-0.01138128,0.99579033,0.07646763,0.01336637,0.04874066
1757984268134,15.15648925,-5.29608090,10.95501817,-0.22960917,-0.06803320,-0.07019056,0.99580571,0.07630690,0.01331875,0.04869152
1757984268145,-1.60657234,0.57637326,-1.28521119,-0.02795089,-0.01200005,-0.00863674,0.99582108,0.07614898,0.01325095,0.04864273
1757984268157,-0.10030196,0.07896990,-0.04049091,-0.01140543,-0.01260512,0.00041775,0.99582694,0.07608340,0.01317847,0.04864513
1757984268169,-0.13008508,0.05318265,0.06968269,-0.00030683,-0.00703437,0.00636120,0.99582576,0.07608154,0.01313591,0.04868361
1757984268188,-0.03325911,0.01296549,-0.04999975,0.00912981,-0.00984401,-0.00135970,0.99582087,0.07617056,0.01303993,0.04867036
1757984268190,3.85787560,-0.13497728,6.86128672,0.06050550,-0.08509366,0.05733350,0.99581486,0.07622804,0.01295909,0.04872482
1757984268202,-0.61643442,-0.01161884,-1.02644538,0.01034022,-0.02230570,0.00376612,0.99581084,0.07628853,0.01282860,0.04874685
1757984268221,0.00085855,0.00311366,-0.05740089,0.00606654,-0.00612423,0.00774792,0.99580345,0.07634707,0.01276951,0.04882162
1757984268223,-0.19847721,0.99566861,3.93532489,0.08105557,-0.04397473,0.13077938,0.99579258,0.07642002,0.01272993,0.04893932
1757984268234,0.10705889,-0.31087628,-0.55603135,0.02780969,0.02531147,0.03649464,0.99576767,0.07658271,0.01287800,0.04915282
1757984268255,-0.07011161,0.03742947,-0.03263943,0.00204433,0.00113367,0.00258789,0.99576454,0.07660407,0.01288985,0.04917986
1757984268257,-6.16412160,-5.70593268,9.74562877,-0.04564119,0.19723281,0.09788467,0.99576161,0.07656984,0.01303777,0.04925327
1757984268267,0.65118508,0.92882103,-1.40435033,0.00594442,0.04252883,0.00904114,0.99575421,0.07659986,0.01325254,0.04929893
1757984268279,0.06041370,0.08700169,0.00839314,0.00250942,0.03487601,0.00230074,0.99574960,0.07661479,0.01346005,0.04931262
1757984268291,0.07878752,-0.06028036,-0.07681229,0.02087594,0.03261547,0.00283203,0.99573711,0.07673378,0.01364596,0.04932876
1757984268302,-0.00634314,0.06390333,-0.04342727,0.01575926,0.01998014,0.00539720,0.99572665,0.07682755,0.01376484,0.04936088
1757984268314,-0.02344230,0.04405335,-0.06071418,0.01972777,0.01084986,-0.00166006,0.99571726,0.07694394,0.01382886,0.04935108
1757984268332,0.09594240,-0.04579851,-0.00242297,0.00598434,0.00934083,0.00644258,0.99570887,0.07699900,0.01391479,0.04941035
1757984268335,3.34834017,0.29148248,-4.90336791,-0.00032856,0.02347926,0.00742410,0.99570793,0.07699854,0.01394767,0.04942075
1757984268347,-0.55996471,-0.08822032,0.95685071,0.00709000,0.00615395,0.00853561,0.99570189,0.07703895,0.01398274,0.04946940
1757984268367,-0.07122051,-0.04756702,0.07057978,0.01131841,-0.00872553,0.00660271,0.99569080,0.07715497,0.01389331,0.04953708
1757984268378,-0.02453216,-0.02025237,0.11212163,0.00015473,-0.01481479,-0.00501616,0.99569317,0.07715579,0.01381405,0.04951024
1757984268380,4.39314937,-2.40627512,-3.04376388,-0.06081468,-0.10521654,0.01490509,0.99569914,0.07708890,0.01369831,0.04952664
1757984268390,-0.87957293,0.40548827,0.52181923,-0.01728507,-0.02265251,0.01754000,0.99570289,0.07700507,0.01358844,0.04961171
1757984268401,-0.04947423,0.00771880,-0.06462552,-0.01574931,-0.01748249,0.01053006,0.99570838,0.07691214,0.01348530,0.04967383
1757984268413,0.05174744,-0.02603748,-0.13503511,-0.01373004,-0.00493778,0.00901191,0.99571231,0.07683251,0.01345666,0.04972610
1757984268425,-0.02927586,0.05291874,-0.15055603,0.00172586,-0.01307958,-0.00220368,0.99571319,0.07684243,0.01338145,0.04971343
1757984268444,-0.02260312,0.04783924,0.09005911,0.00415249,-0.00955764,-0.01180761,0.99571713,0.07688375,0.01328635,0.04959595
1757984268446,8.06640096,-5.56112070,-23.23301710,-0.09493036,-0.13288554,-0.48354378,0.99574689,0.07679831,0.01316676,0.04916076
1757984268458,-1.21035021,0.76480668,3.45902236,-0.04492575,-0.01616520,-0.03101499,0.99577706,0.07653774,0.01307300,0.04898087
1757984268477,-0.03344571,0.01160412,0.17323642,-0.02003672,-0.00441492,0.00852986,0.99578846,0.07634339,0.01303017,0.04906361
1757984268479,2.78728652,-6.79216403,-10.81994174,-0.20846917,-0.00933388,0.01351479,0.99580542,0.07611407,0.01301991,0.04907848
1757984268491,-0.52662602,1.17921156,1.96392040,-0.04472360,0.01162285,0.01660205,0.99581921,0.07586138,0.01308557,0.04917228
1757984268512,-0.05822412,0.03496620,0.08576829,-0.01521979,-0.00504070,0.00410033,0.99582984,0.07570310,0.01303315,0.04921492
1757984268513,12.07963955,-33.08812763,-25.13799442,-0.20751609,-0.07452678,-0.12413078,0.99584470,0.07556821,0.01298471,0.04913424
1757984268523,-1.29893957,3.82933309,2.88548049,-0.01591269,-0.02444085,-0.01424166,0.99585650,0.07548388,0.01285517,0.04905876
1757984268535,0.12607804,0.35028272,0.00467028,-0.02766079,-0.01229582,0.00438701,0.99586872,0.07531791,0.01278140,0.04908508
1757984268547,0.03794086,0.08010119,-0.09709375,0.00471576,0.00451212,0.00146768,0.99586594,0.07534479,0.01280712,0.04909344
1757984268566,-0.15813622,0.00527485,0.16371119,-0.00185125,0.00417390,0.01244029,0.99586085,0.07532693,0.01284739,0.04921349
1757984268569,-0.59629351,-1.53817352,-6.43744988,-0.00823589,0.03533286,0.07153752,0.99585663,0.07531663,0.01289156,0.04930291
1757984268580,0.03246056,0.12644488,1.26066284,0.00501301,0.01490140,0.01472759,0.99584901,0.07534596,0.01297873,0.04938907
1757984268591,0.00238161,-0.07976690,0.02681793,-0.02225213,0.01690659,0.01551060,0.99585285,0.07522246,0.01307257,0.04947515
1757984268603,-0.02742259,0.01931513,0.01992121,-0.02228828,0.01502457,-0.00204600,0.99586205,0.07509319,0.01315971,0.04946329
1757984268624,0.01959994,0.11426949,0.06558479,0.00406280,0.00674554,-0.00216924,0.99585910,0.07513483,0.01322885,0.04944105
1757984268633,0.29334377,0.26247125,-0.25138574,0.01296325,0.01016089,-0.00823693,0.99585575,0.07519640,0.01327711,0.04940193
1757984268635,19.68176813,7.64183796,-7.01313131,0.14729417,0.04599487,-0.10426574,0.99584884,0.07535106,0.01332541,0.04929245
1757984268646,-3.11911391,-1.19425209,1.43273963,0.02373551,0.00386647,-0.02854333,0.99584636,0.07548517,0.01334725,0.04913118
1757984268659,-0.15515773,-0.19512190,0.02326202,0.00712849,0.00429835,-0.01012239,0.99584575,0.07552901,0.01337369,0.04906893
1757984268670,-0.44032366,-0.31263628,-0.09818366,-0.00775680,0.00139528,-0.00319837,0.99584975,0.07548635,0.01338136,0.04905133
1757984268689,-0.07907307,-0.00704014,0.09412210,-0.01230359,-0.00190961,-0.00368763,0.99586051,0.07537008,0.01336332,0.04901649
1757984268692,1.57732994,-2.29514716,-3.63082506,-0.04829135,-0.00412118,0.01150901,0.99586507,0.07530006,0.01335734,0.04903317
1757984268703,-0.32477828,0.57872105,0.87672569,0.00671452,0.00238929,0.01532341,0.99585749,0.07533934,0.01337132,0.04912282
1757984268722,-0.03628484,0.06413900,0.04783423,0.00978573,0.00535664,0.01099768,0.99584454,0.07543279,0.01342248,0.04922784
1757984268725,1.89257858,0.94151823,-7.36162006,0.15477260,0.01814202,0.09387369,0.99582459,0.07561852,0.01344425,0.04934049
1757984268736,-0.49335808,-0.04526667,1.23169434,0.04616821,0.01346455,0.02207925,0.99579657,0.07588860,0.01352301,0.04946966
1757984268770,0.00172697,-0.03320673,0.09226178,0.01090972,0.00845770,0.00311711,0.99577782,0.07607407,0.01366679,0.04952265
1757984268780,-0.36685874,0.16381796,-1.09656850,0.05942896,0.06740463,0.01899054,0.99574792,0.07635041,0.01398023,0.04961095
1757984268813,0.09210784,-0.06102927,0.32548263,0.00613046,0.01098520,0.00193614,0.99573579,0.07645340,0.01416478,0.04964348
1757984268823,-0.63063591,-0.24048687,-0.91131955,0.00105033,0.09699313,0.01248378,0.99572611,0.07645823,0.01461095,0.04970091
1757984268837,0.08412148,0.27055954,0.37970856,-0.01927116,0.03725530,0.00579744,0.99573057,0.07632334,0.01487173,0.04974149
1757984268846,-0.17328768,0.11057319,-0.17489628,-0.03584283,0.02503699,0.02814927,0.99573523,0.07614950,0.01499316,0.04987801
1757984268858,0.29111306,-0.15057284,0.11784171,-0.01266972,0.01802660,0.01898248,0.99573373,0.07607538,0.01509862,0.04998906
1757984268878,0.13415836,-0.09843656,0.12631007,-0.00243020,0.00504351,0.00533374,0.99573217,0.07605156,0.01514804,0.05004133
1757984268880,-0.97538802,-2.49393039,-3.52458440,-0.09698946,0.02280322,-0.05037335,0.99574607,0.07591093,0.01518111,0.04996829
1757984268891,0.29616331,0.57740700,0.80979822,-0.02541082,0.00537018,0.01063166,0.99575320,0.07577371,0.01521011,0.05002570
1757984268901,0.00982925,0.01821529,-0.06432886,-0.01696449,0.00512908,0.02682614,0.99575251,0.07568889,0.01523575,0.05015983
1757984268913,0.00640205,0.04641282,0.00310883,-0.00005606,0.00934962,0.00327539,0.99575079,0.07568857,0.01528858,0.05017834
1757984268923,-0.06241171,0.15176054,-0.19642206,0.00177762,0.00460047,-0.00373134,0.99575070,0.07569773,0.01531227,0.05015912
1757984268934,-0.00521312,0.14522974,0.17506628,0.01039708,0.01244356,0.00512255,0.99574363,0.07575699,0.01538320,0.05018832
1757984268946,-0.09655260,-0.10158573,-0.10306755,0.00854794,-0.00497548,-0.02184095,0.99574673,0.07580742,0.01535384,0.05005946
1757984268958,0.06699316,-0.11375994,-0.01112985,-0.02254900,-0.00192937,-0.04491813,0.99577031,0.07567438,0.01534246,0.04979444
1757984268979,0.05717880,-0.00058474,0.08398896,-0.02456710,-0.00990864,-0.01432927,0.99579844,0.07542134,0.01524040,0.04964685
1757984268980,7.45338545,-4.89493328,-34.23281226,-0.16292193,0.02084054,0.13516483,0.99580213,0.07530730,0.01525499,0.04974146
1757984268991,-0.82099547,0.57189340,3.95215250,-0.02048396,-0.00082324,0.01627510,0.99580639,0.07519054,0.01525030,0.04983423
1757984269003,-0.07719629,0.04043356,0.04714344,-0.03150086,0.00005442,-0.00226133,0.99582131,0.07500153,0.01525062,0.04982066
1757984269023,0.00729398,-0.03951636,0.09252981,-0.01027889,-0.01186074,0.00905577,0.99582628,0.07489977,0.01513320,0.04991032
1757984269025,6.06637308,-12.34052703,-22.51543529,-0.19756851,-0.17774211,-0.01207932,0.99584169,0.07473184,0.01498212,0.04990005
1757984269057,-0.28824232,0.66088205,1.27608752,-0.01499246,-0.00432742,-0.00498132,0.99586491,0.07448971,0.01491223,0.04981960
1757984269070,0.34167689,-0.19569876,-0.63985853,-0.00566409,-0.02098280,0.01940203,0.99586340,0.07445346,0.01477794,0.04994377
1757984269080,-0.43469851,0.22595343,0.08617162,-0.00466811,-0.01233259,0.00728917,0.99586427,0.07442895,0.01471320,0.04998204
1757984269114,-0.01942119,0.03813138,0.17914335,0.00057608,-0.00011564,0.00202570,0.99586188,0.07443860,0.01471126,0.05001597
1757984269175,0.00592704,-0.01046980,-0.03480169,-0.00862540,0.00003586,0.00262078,0.99587739,0.07417682,0.01471235,0.05009551
1757984269207,0.18304617,-0.20801078,-0.46080813,-0.06020999,-0.01957694,-0.01490904,0.99596659,0.07319841,0.01439422,0.04985324
1757984269241,-0.07188880,0.08428787,0.18234710,-0.04937182,-0.02162336,0.01174619,0.99602282,0.07236403,0.01402879,0.05005175
1757984269278,0.00248414,-0.01062322,0.08205292,-0.04845905,-0.02016921,-0.00240276,0.99609516,0.07146511,0.01365465,0.05000718
1757984269312,0.04283165,-0.01882307,-0.08915994,-0.05770125,-0.01846018,-0.00800801,0.99617731,0.07046976,0.01333621,0.04986904
1757984269353,-0.01053701,-0.02341648,0.00146378,-0.06969414,-0.02629520,-0.01225959,0.99629437,0.06907240,0.01280899,0.04962324
1757984269384,0.24803711,-0.32136739,-0.31090844,-0.17958360,-0.05261649,-0.01195772,0.99650873,0.06620804,0.01196976,0.04943251
1757984269419,-0.08966840,-0.08139072,0.14574701,-0.22836902,-0.05876170,-0.02471821,0.99679455,0.06228009,0.01095906,0.04900736
1757984269451,0.02647481,-0.57210858,-0.04103313,-0.44661262,-0.09601664,-0.00157340,0.99723867,0.05502264,0.00939879,0.04898179
1757984269483,0.08773894,-0.41207118,-0.31090041,-0.61177753,-0.12074541,0.01177168,0.99772498,0.04550950,0.00752120,0.04916484
1757984269518,-0.12947499,0.55205598,-0.05405195,-0.38340980,-0.13163330,0.00388677,0.99802669,0.03862729,0.00515838,0.04923461
1757984269539,0.55605167,-1.76235500,-0.76853570,-0.65426892,-0.18487424,0.08711569,0.99822552,0.03198646,0.00328191,0.05011883
1757984269559,-0.22751633,0.42725190,0.27180655,-0.52515274,-0.16838171,0.06309186,0.99835664,0.02652487,0.00153074,0.05077499
1757984269583,-0.25926588,1.34676309,0.57960104,-0.27518968,-0.08032844,0.02842893,0.99842252,0.02322260,0.00056680,0.05111613
1757984269597,0.01250749,-1.08887486,-0.68542197,-0.33795095,-0.04971161,0.08250462,0.99844416,0.02097522,0.00023621,0.05166479
1757984269630,-0.10621896,0.71653678,0.72999918,-0.13202235,0.00017881,0.03108076,0.99846087,0.01879685,0.00023916,0.05217762
1757984269632,26.52683153,-57.28015888,-66.77661577,-1.37277040,-0.10416623,0.08832619,0.99848214,0.01735544,0.00012979,0.05227036
1757984269674,-1.37997086,3.14095402,3.46416519,-0.04068250,0.00119280,0.00176769,0.99849468,0.01650111,0.00015484,0.05230749
1757984269704,0.17823389,-0.32026401,-0.51737710,-0.09642967,0.01546702,0.00000080,0.99851790,0.01502574,0.00039148,0.05230750
1757984269715,2.44708151,-2.68711123,-3.71325816,-0.27477383,0.08638543,-0.01303809,0.99854100,0.01363813,0.00082773,0.05224166
1757984269737,-0.84342334,1.44092083,1.71515650,-0.06421507,0.01052882,-0.02790797,0.99856653,0.01292534,0.00094460,0.05193188
1757984269781,-0.18120010,0.03289789,0.30973033,-0.03990048,-0.00324872,-0.00488892,0.99858331,0.01203955,0.00087248,0.05182334
1757984269793,3.53511758,-2.31985073,-3.38507465,-0.32094861,-0.03431025,0.02951185,0.99859554,0.01012991,0.00066833,0.05199894
1757984269814,-1.35449893,1.44382442,1.33562131,-0.02834624,-0.05720775,-0.00709335,0.99860264,0.00983085,0.00006479,0.05192410
1757984269838,-0.00598171,-0.03260698,0.21297306,-0.03372772,-0.06171997,-0.00601561,0.99860992,0.00943455,-0.00066042,0.05185342
1757984269848,1.15911964,-0.54122147,-0.32801127,-0.11430861,-0.07943467,-0.01424418,0.99861885,0.00884015,-0.00107348,0.05177935
1757984269871,-0.62746087,0.26667885,0.39928885,-0.07633603,-0.04945463,-0.00632421,0.99862901,0.00798137,-0.00162984,0.05170820
1757984269882,0.30064608,0.13494082,-0.17810700,-0.06279198,-0.08235202,-0.02567418,0.99863842,0.00762659,-0.00209513,0.05156314
1757984269904,-0.48095068,0.11431087,0.23096985,-0.01375119,-0.03849531,-0.01119157,0.99864508,0.00747189,-0.00252821,0.05143724
1757984269915,2.53566861,-1.02752059,-1.39793417,-0.02709343,-0.12768674,-0.00825116,0.99864649,0.00732288,-0.00323048,0.05139186
1757984269949,-0.96651380,0.33227279,0.54848359,-0.02449498,-0.01839689,-0.01214702,0.99865875,0.00691504,-0.00353679,0.05118961
1757984269960,5.22746609,-1.49536413,-1.64891115,-0.10035546,-0.12009823,-0.02240243,0.99866655,0.00633298,-0.00423336,0.05105968
1757984269982,-2.11632714,1.09091470,0.26052891,-0.01082409,-0.02779483,-0.00028736,0.99866613,0.00621608,-0.00453354,0.05105657
1757984270004,-0.40828186,-0.59139456,0.27474192,0.02846935,0.00146751,-0.01788988,0.99867439,0.00653493,-0.00451711,0.05085621
1757984270039,-0.06742721,0.18455145,0.09250625,-0.04299313,0.00970070,-0.02219695,0.99869942,0.00578470,-0.00434783,0.05046887
1757984270050,6.91656544,-0.31762287,-5.17109727,0.00074220,0.08503030,-0.09909577,0.99872739,0.00578860,-0.00390142,0.04994862
1757984270083,-1.88695672,-0.02820838,1.36876836,0.02274212,0.00345279,-0.00380689,0.99872852,0.00616726,-0.00384393,0.04988523
1757984270117,0.05786863,-0.02360409,0.01843337,-0.04183894,0.01165367,-0.00241010,0.99873543,0.00545809,-0.00364640,0.04984438
1757984270138,3.40779277,-0.64629182,-2.61776287,-0.05002207,0.01475567,-0.00259597,0.99874005,0.00493535,-0.00349221,0.04981725
1757984270181,-1.42327371,0.41450549,1.12952238,0.00895914,0.00571863,-0.00051415,0.99874005,0.00513022,-0.00336783,0.04980607
1757984270205,2.72119314,-1.08793695,-1.71155160,-0.01304610,0.00880105,-0.01309514,0.99874898,0.00497432,-0.00326265,0.04964958
1757984270232,0.85458559,-0.20424746,-0.18838715,-0.16594953,0.00894745,0.00228939,0.99875639,0.00277548,-0.00314410,0.04967992
1757984270273,-1.43935654,0.54560573,0.88376348,-0.05279547,0.01592970,0.01912335,0.99874020,0.00169318,-0.00281754,0.05007195
1757984270294,8.94630407,-1.76013568,-4.12972880,-0.22841905,0.00715392,-0.03276299,0.99875938,-0.00079659,-0.00273956,0.04971483
1757984270342,-3.74141668,0.90298431,1.85468521,-0.07458667,-0.02802867,-0.03367452,0.99879370,-0.00256057,-0.00340244,0.04891843
1757984270373,4.28914939,-0.25433832,-1.92375789,-0.02355517,-0.10080209,-0.11543370,0.99887315,-0.00293038,-0.00498503,0.04710612
1757984270394,4.48857855,-0.39201490,-1.88037718,0.03247485,-0.15858035,-0.14325244,0.99893280,-0.00259751,-0.00661048,0.04563778
1757984270440,-4.53464071,0.27747868,1.94053436,-0.01880754,-0.03233651,-0.02057634,0.99894799,-0.00303291,-0.00735907,0.04516144
1757984270476,2.94822543,-0.44631767,-1.71274109,-0.14164860,0.01902989,-0.00748248,0.99894551,-0.00559675,-0.00701463,0.04502601
1757984270513,-1.33992659,0.02680156,0.22425858,-0.21158807,0.06126039,-0.02558288,0.99894452,-0.00947939,-0.00589050,0.04455656
1757984270557,0.03630602,-0.74470044,-0.31749684,-0.45424478,0.14113005,-0.01307408,0.99882715,-0.01940464,-0.00280681,0.04427089
1757984270600,-0.57444880,0.96353967,-0.89439384,-0.16400896,0.13438233,-0.06240457,0.99881476,-0.02295543,0.00010256,0.04291983
1757984270632,0.46112291,-1.64451077,-1.77328986,-0.32704984,0.22440323,-0.13952703,0.99876652,-0.02825364,0.00373790,0.04065949
1757984270669,-1.68979509,1.36718846,0.84720631,-0.26659471,0.14924115,-0.06663277,0.99865009,-0.03318564,0.00649886,0.03942679
1757984270715,-0.75924424,0.22427736,0.54956140,-0.13066831,0.08808708,-0.00139396,0.99853253,-0.03617141,0.00851165,0.03939494
1757984270751,0.19946783,0.20880448,-2.90017705,-0.04780792,0.07648471,-0.03261046,0.99851104,-0.03704152,0.00990367,0.03880143
1757984270761,6.04778672,3.99627338,-53.41403916,0.59515461,0.02530837,0.13108006,0.99859079,-0.03403599,0.01003148,0.03946338
1757984270796,-2.76726421,-1.01753698,15.45402210,0.24290750,-0.05255543,0.00351908,0.99873148,-0.02983369,0.00912227,0.03952426
1757984270840,-0.39680046,-0.17502319,2.17762740,0.09915303,-0.02378130,0.00981520,0.99879007,-0.02766223,0.00860146,0.03973921
1757984270851,-1.73680545,-1.04129175,-38.43573908,0.48715917,-0.04731048,0.06920532,0.99884817,-0.02495850,0.00833888,0.04012330
1757984270891,0.20209080,0.29491299,10.54109981,0.15529431,-0.03632523,-0.00089615,0.99892728,-0.02186038,0.00761420,0.04010542
1757984270927,-0.56585289,-0.25193932,-3.95059894,0.22773352,-0.09698362,-0.02592144,0.99903812,-0.01779534,0.00588304,0.03964273
1757984270957,-0.65459271,-0.49882452,-2.22516577,0.23306059,-0.11912818,0.00017285,0.99910405,-0.01424116,0.00406633,0.03964536
1757984271016,0.17874316,0.16844134,2.56561283,0.15655779,-0.09496331,-0.00079711,0.99916736,-0.00964619,0.00127916,0.03962197
1757984271028,-35.28746574,-16.88070043,-160.36912519,1.04459431,-0.79886424,0.38560415,0.99910290,-0.00301302,-0.00379363,0.04207055
1757984271088,6.67918043,3.39189011,32.57592561,0.19253932,-0.11374271,0.04392334,0.99902880,0.00274391,-0.00719453,0.04338386
1757984271130,-1.43701128,-0.38984144,-4.11539536,0.30698202,-0.16912640,0.13152281,0.99883516,0.00917518,-0.01073773,0.04613926
1757984271152,-6.49079222,-0.63117238,-16.81809774,0.33685567,-0.20991707,0.24577981,0.99863628,0.01291428,-0.01306781,0.04886742
1757984271175,-1.69846033,0.60649780,-2.61426242,0.17514090,-0.13032306,0.18798366,0.99847933,0.01492840,-0.01456653,0.05102923
1757984271207,4.63430538,2.72626851,13.21596156,0.04205256,-0.05623986,0.08686424,0.99838442,0.01559493,-0.01545793,0.05240603
1757984271232,1.15258387,-0.41782229,3.34384110,0.19372932,-0.02321218,0.09907565,0.99827426,0.01799718,-0.01574576,0.05363457
1757984271264,0.87387686,0.07062644,2.41746257,0.03504979,-0.00114384,0.09323308,0.99818215,0.01855973,-0.01576412,0.05513096
1757984271285,-12.27706558,6.64186250,-34.43480451,0.02974190,-0.10115949,0.27768868,0.99799640,0.01886755,-0.01681112,0.05800504
1757984271320,6.79714658,-2.92793984,18.34699957,-0.06603964,-0.07924816,-0.04194764,0.99803629,0.01769205,-0.01822174,0.05725837
1757984271362,-2.27226560,2.13906969,-6.07442577,0.19926187,0.03385007,0.09383245,0.99785386,0.02181677,-0.01752104,0.05920070
1757984271400,0.55330641,-0.63982912,0.72649558,0.53487485,-0.00164997,-0.11488183,0.99770434,0.03208637,-0.01755272,0.05699497
1757984271436,1.78439478,-1.38686606,3.38829058,0.38541751,-0.07395090,-0.12760850,0.99756372,0.03892753,-0.01886535,0.05472992
1757984271457,-1.90518200,2.34824464,-14.57219353,0.49029601,-0.19187982,-0.07873501,0.99734904,0.04419821,-0.02092806,0.05388352
1757984271502,2.46322267,-1.96821623,9.08061450,0.09143142,-0.07976244,0.00934160,0.99720673,0.04623256,-0.02270277,0.05409137
1757984271535,-0.03321404,-0.09504284,-3.38218373,-0.26377282,-0.05421064,0.06239099,0.99732282,0.04184074,-0.02360538,0.05513018
1757984271565,0.52882058,-0.07141807,-2.48041000,-0.23476580,0.00776946,-0.02913249,0.99749113,0.03831925,-0.02348884,0.05469319
1757984271596,0.63448674,-1.49781067,0.67171342,-0.34666509,0.04683527,-0.09804915,0.99777938,0.03299795,-0.02276991,0.05318814
1757984271642,0.60289573,0.00118184,3.96913821,-0.09839020,0.00279887,-0.09920460,0.99797294,0.03072513,-0.02270526,0.05089651
1757984271652,0.38233274,-7.45310414,-175.59467720,-0.08961822,-0.53894334,-0.04677863,0.99793185,0.03025912,-0.02550777,0.05065326
1757984271685,1.17441276,1.64685296,48.51597848,0.00474388,-0.20064961,0.06413817,0.99778461,0.03033763,-0.02882852,0.05171475
1757984271719,0.26599135,0.11734802,4.69867133,0.01892251,-0.17244885,0.11036805,0.99758974,0.03065458,-0.03171703,0.05356341
1757984271730,3.24207875,-1.33377797,-27.77328155,0.06144461,-0.15641480,0.17620635,0.99749657,0.03100174,-0.03260078,0.05455898
1757984271752,-0.78769879,1.07399785,15.00274910,0.02821547,-0.11228455,0.12563836,0.99736977,0.03131070,-0.03383029,0.05593472
1757984271763,3.43675563,-1.46487264,-20.66679203,0.17357888,-0.19637625,0.04241563,0.99729198,0.03223067,-0.03487109,0.05615952
1757984271799,-1.69377876,0.57564934,13.26213294,0.05378245,-0.05167908,0.01768718,0.99720835,0.03320951,-0.03581165,0.05648143
1757984271830,2.57760925,-1.31137328,-14.09558173,0.12927887,-0.11038876,0.07352033,0.99701278,0.03520040,-0.03751163,0.05761364
1757984271841,26.67103829,-13.34558956,-109.86556056,0.27250784,-0.28051227,-0.11011188,0.99693209,0.03674007,-0.03909653,0.05699151
1757984271874,-9.07105424,4.75950448,43.34111066,0.08186720,-0.09104297,-0.08970268,0.99690496,0.03808679,-0.04059419,0.05551590
1757984271909,0.13107276,0.01974226,0.32950835,0.05218378,-0.08394604,-0.07640767,0.99688231,0.03900001,-0.04206324,0.05417877
1757984271942,3.06866573,-1.12949469,-8.20252571,-0.00794049,-0.14786097,-0.12055288,0.99688762,0.03887058,-0.04447338,0.05221375
1757984271963,10.45795282,-3.03197606,-31.04486155,-0.49105897,-0.45432063,-0.15221067,0.99693425,0.03351803,-0.04942547,0.05055466
1757984271997,-8.20502851,4.27232246,24.55967978,-0.28505141,-0.11698645,0.00777066,0.99697784,0.02871492,-0.05139669,0.05068559
1757984272008,30.71138577,5.79088159,-103.00823559,-0.44352823,-0.17543539,0.41719255,0.99688051,0.02638639,-0.05231773,0.05287585
1757984272062,-7.14019722,-0.62438713,23.72976481,-0.12025352,-0.01180908,0.06401460,0.99685080,0.02310347,-0.05264012,0.05462345
1757984272086,18.29086321,8.81589527,-59.97112240,-0.31141330,-0.00439102,0.14706994,0.99682985,0.01942880,-0.05269193,0.05635888
1757984272123,-9.41886052,-4.50897460,31.74825447,-0.23189688,-0.03893694,-0.01569570,0.99688239,0.01512711,-0.05341421,0.05606772
1757984272157,1.52996793,0.22466894,-5.81741299,-0.34264935,-0.00828471,-0.13065477,0.99706815,0.00931920,-0.05355464,0.05385312
1757984272193,-1.07356264,-0.57115547,3.11835867,-0.17202715,0.03287127,-0.12896545,0.99724939,0.00617111,-0.05295309,0.05149306
1757984272223,-0.13032274,-0.11799085,-4.25777256,0.03180048,0.18972429,-0.04816350,0.99742628,0.00663698,-0.05017363,0.05078746
1757984272253,-1.28125677,-0.35744394,1.99595499,0.01636640,0.28069728,-0.11413532,0.99771320,0.00688248,-0.04596317,0.04907543
1757984272297,-1.64277429,-0.21477538,5.45105759,-0.09317764,0.18657446,-0.05972620,0.99797240,0.00480928,-0.04181189,0.04774652
1757984272320,3.54923573,1.89524231,-28.81624113,-0.35362861,0.37548261,-0.04917048,0.99817964,0.00079559,-0.03755016,0.04718844
1757984272354,-3.32798161,-1.24398293,20.72885391,-0.19844531,0.09272985,0.02517061,0.99821469,-0.00261767,-0.03595521,0.04762137
1757984272376,0.87161567,0.53099807,-22.00298084,-0.17543635,0.26141055,0.14472512,0.99822984,-0.00451238,-0.03313197,0.04918440
1757984272420,-1.16513002,-0.57560718,13.33437754,-0.01450997,0.08785403,0.01822872,0.99827131,-0.00483595,-0.03117283,0.04959091
1757984272456,-0.15235164,-0.21642820,-7.15472441,-0.03641411,0.18555430,0.02758156,0.99834040,-0.00547684,-0.02790707,0.05007634
1757984272476,-2.36260553,-2.58857561,-32.08798469,-0.10691014,0.41384158,0.04909799,0.99841930,-0.00659405,-0.02358243,0.05058941
1757984272498,0.17602161,-0.12377803,23.27855725,-0.06722760,0.16360512,-0.08414996,0.99850041,-0.00732347,-0.02180731,0.04967639
1757984272542,0.21778732,0.41962503,8.20260884,-0.03842159,0.04117462,-0.06296012,0.99858117,-0.00816875,-0.02090147,0.04829127
1757984272590,-0.80297157,-0.90082332,-5.56041117,-0.10622199,0.09776105,-0.02328828,0.99862966,-0.01068090,-0.01858942,0.04774050
1757984272623,-2.09406666,-1.73547296,-8.21819269,-0.09442348,0.04220590,-0.06989466,0.99867911,-0.01224361,-0.01789092,0.04658374
1757984272656,-0.18573915,0.30091995,3.40590214,-0.19976583,0.03941954,-0.00649681,0.99864895,-0.01560966,-0.01722670,0.04647427
1757984272692,-0.71498369,0.68026694,0.24570303,-0.14845808,0.02743835,-0.00279588,0.99861498,-0.01823737,-0.01674104,0.04642478
1757984272725,-0.90922866,-0.33018465,-1.30251322,0.07287511,-0.06452864,-0.00065626,0.99861834,-0.01700942,-0.01782835,0.04641372
1757984272757,-0.90542054,-0.93788380,-1.23886434,-0.03241615,-0.09137508,0.04149022,0.99855156,-0.01752484,-0.01928121,0.04707342
1757984272787,-0.51648362,2.48069791,-2.20985533,-0.12512827,-0.27954479,0.13815336,0.99832721,-0.01940176,-0.02347438,0.04914572
1757984272821,0.86381871,3.14614057,2.43822109,0.06661129,-0.32507083,0.09906154,0.99812099,-0.01827936,-0.02895182,0.05081491
1757984272843,-2.16432012,7.01673038,-16.75240162,-0.58222236,-0.74745462,0.29429174,0.99754057,-0.02468381,-0.03717383,0.05405212
1757984272877,4.41463339,-2.76775393,18.91394217,-0.03039960,-0.35756071,0.01612269,0.99727025,-0.02519604,-0.04319872,0.05432378
1757984272888,-13.44810620,10.22058572,-73.57735778,-0.18583883,-0.82832117,-0.09584499,0.99705880,-0.02624603,-0.04787874,0.05378226
1757984272925,5.47749718,-4.55438329,26.75297750,-0.01765095,-0.23562454,-0.07119424,0.99690237,-0.02657081,-0.05221423,0.05247228
1757984272955,-0.03401574,0.74570977,-2.89455473,-0.13475752,-0.29298065,-0.13299902,0.99670888,-0.02859891,-0.05662359,0.05047065
1757984272965,-14.59831532,26.83015692,-161.84642685,-0.39402064,-1.13406817,-0.37415933,0.99639858,-0.03060842,-0.06240734,0.04856244
1757984272987,7.84068700,-12.14378751,68.05976982,-0.09274427,-0.37767660,-0.16440380,0.99618229,-0.03163788,-0.06659955,0.04673755
1757984273005,0.55665721,2.00992850,-7.91008876,-0.26093058,-0.57585222,-0.25398651,0.99585539,-0.03394711,-0.07169584,0.04448977
1757984273049,0.63857936,-1.97386727,13.15235922,-0.01637037,-0.13649125,-0.04404154,0.99566425,-0.03430890,-0.07471230,0.04351646
1757984273089,0.14213522,0.38426772,-10.65650820,-0.11045942,-0.44522537,-0.14145789,0.99500422,-0.03649599,-0.08352776,0.04071559
1757984273157,0.11830489,-0.37876543,3.67849156,-0.06479762,-0.20887490,-0.12286687,0.99446063,-0.03870235,-0.09063995,0.03653197
1757984273177,5.49186696,-3.82895364,-71.83728014,-0.30982484,-0.56895881,-0.34731231,0.99392458,-0.04178511,-0.09630109,0.03307621
1757984273226,-1.34438934,0.92125214,26.90578474,-0.05374444,-0.02671001,-0.03431489,0.99383216,-0.04310454,-0.09695682,0.03223378
1757984273267,0.81988043,-0.76216532,-2.11294781,-0.10649482,0.06703581,0.02454529,0.99385178,-0.04529300,-0.09557923,0.03273819
1757984273299,1.35002424,-0.13480290,-3.36040069,-0.11547429,0.13657154,-0.04128473,0.99399470,-0.04713482,-0.09340092,0.03207970
1757984273333,0.96371233,0.02871186,0.92030862,-0.00330517,0.11535086,-0.11966118,0.99423791,-0.04719101,-0.09143995,0.03004546
1757984273355,5.19179204,-1.11547278,-12.84580715,-0.02382089,0.07247367,-0.08257460,0.99432586,-0.04745423,-0.09063912,0.02913301
1757984273377,-2.10660446,-0.34694756,11.36979781,0.16763966,0.10903556,-0.01403999,0.99453063,-0.04555990,-0.08940702,0.02897436
1757984273425,-2.47200867,1.15234763,7.59262501,-0.00568590,0.03731141,0.00812864,0.99459805,-0.04569494,-0.08852087,0.02916741
1757984273459,4.05056405,-1.24205576,-9.12685083,0.06264090,0.12433015,0.05581718,0.99480338,-0.04463318,-0.08641347,0.03011351
1757984273489,4.64514069,-1.36726821,-7.92660041,0.18710770,0.12231395,0.07269782,0.99505178,-0.04179850,-0.08456042,0.03121489
1757984273537,-3.16608040,1.84968666,7.63916471,-0.14500891,0.12065697,0.05369409,0.99510012,-0.04527871,-0.08166465,0.03250354
1757984273572,6.05994782,3.78874265,-10.95841852,0.20905200,0.16357981,-0.05092558,0.99552045,-0.04160985,-0.07879383,0.03160980
1757984273619,-2.61542821,0.32578058,5.95532817,0.11318142,0.07762574,-0.01076883,0.99577821,-0.03895574,-0.07697350,0.03135727
1757984273661,1.65583537,0.79844847,-2.01466403,0.23408478,0.04310042,-0.05774851,0.99606535,-0.03403996,-0.07606839,0.03014455
1757984273709,-1.33614570,-1.55573169,2.28115476,0.22482429,-0.00022531,-0.09634841,0.99630016,-0.02868914,-0.07607376,0.02785146
1757984273742,2.72703495,-0.61567934,-5.46099226,0.12835455,-0.03853334,0.07749263,0.99627322,-0.02654562,-0.07671726,0.02914559
1757984273775,-2.93668930,-1.75840166,3.98015240,0.06689841,0.01285100,0.15997648,0.99623809,-0.02545518,-0.07650779,0.03175320
