UnixTime(ms),Ax,Ay,Az,Gx,Gy,Gz,QuatW,QuatX,QuatY,QuatZ
1757984150465,0.00000000,0.00000000,0.00000000,0.00000000,0.00000000,0.00000000,0.99524873,0.08789048,-0.00039227,0.04189351
1757984150473,0.02638905,-1.02738845,3.50065892,0.05822874,-0.02964254,0.04153082,0.99522004,0.08813213,-0.00051528,0.04206586
1757984150474,5.91542211,-19.46905705,40.99280012,-0.02761547,-0.06096866,0.14734264,0.99521755,0.08811418,-0.00055491,0.04216163
1757984150485,-0.60610163,2.62502117,-6.55151085,-0.00161128,-0.01717360,0.02333974,0.99521292,0.08810548,-0.00064765,0.04228767
1757984150497,-0.10681930,0.50324543,-0.05052811,0.00140777,-0.01291736,0.00446676,0.99521106,0.08811357,-0.00072192,0.04231335
1757984150508,0.04661077,-0.02048190,-0.06572192,-0.01370550,-0.01177701,0.02246051,0.99521251,0.08803340,-0.00079082,0.04244475
1757984150520,-0.02146393,-0.04111176,-0.13834386,-0.01639156,-0.01879821,0.01396211,0.99521745,0.08793669,-0.00090173,0.04252712
1757984150540,-0.01302001,0.01924286,-0.18719223,-0.01612309,-0.00439022,0.00723911,0.99522849,0.08777626,-0.00094541,0.04259915
1757984150542,0.91962254,1.56181172,32.24575712,-0.05074679,-0.06633812,0.14660929,0.99522699,0.08773566,-0.00099848,0.04271644
1757984150553,0.08416233,-0.28170501,-4.05706704,0.00982726,-0.00657450,0.00939104,0.99521959,0.08779266,-0.00103661,0.04277091
1757984150574,0.05424096,-0.07945141,-0.07930303,0.00480222,-0.00790538,-0.00218470,0.99521601,0.08784333,-0.00112002,0.04274786
1757984150576,22.99479085,-12.31182996,46.10632534,-0.06109371,-0.02233520,0.04346224,0.99521916,0.08778834,-0.00114012,0.04278697
1757984150586,-4.13468418,2.18148704,-8.06456363,-0.01239337,-0.01779912,0.02732938,0.99521866,0.08772885,-0.00122555,0.04291815
1757984150597,-0.34320484,0.24659069,-0.39901540,-0.00608588,-0.01482535,0.01660830,0.99521752,0.08769416,-0.00131006,0.04301282
1757984150609,0.04407482,0.14133569,-0.11238420,0.00794379,0.00030946,0.01393402,0.99520990,0.08774064,-0.00130825,0.04309434
1757984150620,0.03507357,0.03767261,-0.13818914,0.05904240,0.00446495,0.02443246,0.99517542,0.08806537,-0.00128369,0.04322871
1757984150641,-0.07755386,-0.01523599,-0.13653627,0.00419048,-0.00452668,-0.00675527,0.99517455,0.08810916,-0.00133099,0.04315812
1757984150642,5.19637321,-3.40778549,20.87845087,0.00289989,0.00297149,-0.23475539,0.99518297,0.08811162,-0.00132847,0.04295858
1757984150653,-0.47469290,0.22748810,-2.84902668,-0.03210038,0.00729212,-0.02519814,0.99520461,0.08793507,-0.00128836,0.04281999
1757984150674,-0.01896330,0.04934651,-0.14156960,-0.01904744,0.00018161,0.00105127,0.99522105,0.08774364,-0.00128654,0.04283056
1757984150675,26.82824669,-7.41649832,26.83229976,-0.12305437,-0.00028040,0.02547811,0.99522934,0.08763905,-0.00128677,0.04285221
1757984150687,-3.76543876,1.12512715,-3.67339058,-0.01374817,0.01230709,0.01431214,0.99523284,0.08756000,-0.00121601,0.04293451
1757984150724,-0.14391833,0.02788497,-0.15418512,-0.00274447,-0.00286474,0.00469989,0.99523348,0.08750936,-0.00126886,0.04302122
1757984150758,0.08916007,-0.02651606,0.11825359,-0.00908506,-0.01709614,-0.00337469,0.99524916,0.08735446,-0.00156035,0.04296368
1757984150789,0.09448472,-0.02616226,0.16315801,-0.01492235,-0.01013661,0.00525424,0.99526576,0.08712167,-0.00171848,0.04304565
1757984150809,0.17275671,0.08045845,0.19039586,0.04626790,0.02062292,0.00662259,0.99522132,0.08759823,-0.00150607,0.04311386
1757984150819,0.33071319,0.16644235,0.05307707,0.04612353,0.05592853,-0.04679786,0.99521149,0.08782885,-0.00122643,0.04287987
1757984150843,-0.35979188,-0.10873699,-0.43565086,-0.00488856,0.00859892,-0.03101615,0.99523231,0.08777141,-0.00112539,0.04251543
1757984150875,-0.02296966,0.01596142,-0.06205017,-0.00473795,0.01296635,-0.00691686,0.99524389,0.08769584,-0.00091857,0.04240511
1757984150876,90.71216563,4.03645779,61.24326386,0.21215095,0.12490155,-0.33924074,0.99524075,0.08785495,-0.00082490,0.04215068
1757984150920,-3.11239663,-0.12533034,-2.10555800,0.00961075,0.00276910,-0.01444819,0.99523553,0.08806591,-0.00076412,0.04183354
1757984150944,0.32683665,-0.01576888,0.23246767,0.01159369,-0.01602130,-0.02323209,0.99523475,0.08820155,-0.00095157,0.04156172
1757984150965,0.05245567,0.01987781,-0.02756905,0.01559603,0.00137836,-0.02003165,0.99522894,0.08836687,-0.00093696,0.04134939
1757984150975,0.68191762,-0.09793501,0.24404530,0.01889040,0.05356599,-0.05120105,0.99523139,0.08846227,-0.00066645,0.04109082
1757984151020,-0.38214361,0.00731081,-0.18530841,-0.00786859,0.00820897,-0.01043714,0.99525672,0.08828641,-0.00048298,0.04085755
1757984151031,1.69460803,-0.56658749,1.17684341,-0.04851377,0.06760737,-0.06870156,0.99529661,0.08801473,-0.00010438,0.04047282
1757984151066,-0.48744365,0.18278055,-0.33278219,-0.01069283,0.02247035,0.00174747,0.99531178,0.08782867,0.00028661,0.04050323
1757984151100,-0.08825804,0.08895691,-0.09955807,0.01895820,0.03138687,-0.00489314,0.99528607,0.08815475,0.00082646,0.04041907
1757984151134,0.04040434,-0.06546873,0.08642102,-0.02639643,0.03042188,-0.01022864,0.99533165,0.08771129,0.00133755,0.04024723
1757984151168,0.01587071,0.00772100,-0.03063190,0.03614287,0.04853055,-0.00095804,0.99527538,0.08833837,0.00217956,0.04023060
1757984151182,0.44053016,0.55936250,-0.58387310,0.07561170,0.09722203,-0.09587363,0.99525360,0.08886387,0.00285525,0.03956428
1757984151215,-0.21523876,-0.28303388,0.15895627,-0.02386012,0.03592202,-0.00085633,0.99528644,0.08848092,0.00343180,0.03955054
1757984151225,0.10498969,-0.74211336,-0.21622671,-0.06144335,0.02580540,0.02136563,0.99531058,0.08815220,0.00356986,0.03966484
1757984151252,-0.12433283,0.29738229,0.03583678,0.01306246,0.01120714,-0.01921249,0.99530465,0.08832985,0.00372227,0.03940355
1757984151274,-0.10812180,-0.02319727,-0.00822239,0.00973324,0.01006510,0.01119553,0.99528997,0.08843594,0.00383198,0.03952559
1757984151285,-0.04868972,-0.27016099,-0.11310401,0.00417446,0.04841750,0.02521288,0.99528167,0.08845806,0.00408860,0.03965921
1757984151295,0.13102837,-0.16244268,0.00000000,-0.01650871,0.03665970,0.02236821,0.99528389,0.08837057,0.00428289,0.03977777
1757984151311,0.02004909,0.12346121,0.08884725,-0.01649538,0.02412169,0.00462562,0.99529304,0.08824190,0.00447104,0.03981385
1757984151345,0.00162171,0.08212645,0.03706030,-0.00667846,0.01124336,0.00001483,0.99530216,0.08812904,0.00466105,0.03981410
1757984151346,-15.34615703,-16.96891084,-45.26668572,0.02558275,0.61278179,-0.30736896,0.99530773,0.08814950,0.00515128,0.03956820
1757984151369,1.13862713,1.29278695,3.13662793,0.00725744,0.01884545,-0.01355766,0.99530540,0.08823224,0.00536612,0.03941364
1757984151379,0.32776009,0.20994130,-0.21027538,0.02813547,0.04339687,-0.00583650,0.99529301,0.08837151,0.00558093,0.03938475
1757984151425,-0.08888749,-0.07174956,0.07801566,-0.00251772,0.00073213,0.00037009,0.99529773,0.08831348,0.00559781,0.03939328
1757984151457,-0.02148997,-0.08371225,-0.05385820,-0.01748064,0.00558311,0.00419461,0.99531954,0.08803116,0.00568797,0.03946103
1757984151489,-0.06663737,0.01434622,0.07682029,-0.03688765,0.00867863,0.02206439,0.99535613,0.08745018,0.00582466,0.03980854
1757984151499,-0.93629569,0.49542905,0.48642498,-0.08131806,0.07175261,0.09281846,0.99537195,0.08701513,0.00620854,0.04030512
1757984151543,0.23354670,-0.11567460,-0.09423241,-0.02877713,0.02698232,0.01114431,0.99541307,0.08638491,0.00679945,0.04054918
1757984151555,-1.01657198,-1.01598691,0.76368946,-0.22768886,0.08990768,0.00190033,0.99552077,0.08508709,0.00731193,0.04056001
1757984151588,0.32841991,0.27663469,-0.21244415,-0.03642301,0.00671304,0.01799432,0.99555957,0.08447700,0.00742437,0.04086142
1757984151610,0.01861325,0.03708721,0.06300965,0.00559788,-0.01204292,0.02398735,0.99554480,0.08453718,0.00729491,0.04111928
1757984151621,-0.14795057,-0.06830205,0.56444179,-0.03839262,0.01667397,0.05922490,0.99554873,0.08431450,0.00739162,0.04146279
1757984151643,0.08825725,0.08723022,-0.29594715,0.00120377,0.03296356,0.02623732,0.99553286,0.08432768,0.00775257,0.04175008
1757984151667,-0.00985143,0.14008222,-0.18682314,0.03385320,0.02642890,0.01563746,0.99548833,0.08473053,0.00806707,0.04193617
1757984151689,-0.00865768,0.05856249,-0.20377498,0.02178468,0.02436131,-0.02593985,0.99547778,0.08496799,0.00833261,0.04165343
1757984151723,0.03035329,-0.04000490,0.13862824,-0.03103707,0.02400006,-0.01482329,0.99552983,0.08443881,0.00874181,0.04140069
1757984151746,-0.19973695,-0.11649621,0.50209535,-0.04778801,0.07112056,0.04369918,0.99554753,0.08389641,0.00954903,0.04189667
1757984151782,0.14856842,0.04502725,-0.20229489,0.00891995,0.00525278,-0.00827231,0.99553926,0.08405831,0.00964437,0.04174653
1757984151812,-0.05403309,0.04111050,0.11961889,0.00513193,0.00866510,0.03391752,0.99550953,0.08413657,0.00977651,0.04226377
1757984151833,-0.08999667,-0.05517009,-0.10830339,-0.01616300,0.03301953,0.06536996,0.99549147,0.08397090,0.01011496,0.04293382
1757984151857,0.00655511,0.01274864,-0.25874079,0.02321533,0.02823898,0.01733679,0.99545574,0.08424716,0.01045100,0.04314012
1757984151889,0.04548562,-0.00454520,-0.08023461,0.01832108,0.02584096,-0.00196946,0.99542782,0.08454030,0.01086446,0.04310861
1757984151912,-0.06288768,-0.04906052,-0.10033991,0.00982583,0.03114586,0.03603581,0.99539538,0.08465624,0.01123198,0.04353383
1757984151946,0.01678187,-0.02532764,0.02713511,-0.01327998,0.02989170,0.02334996,0.99539136,0.08443580,0.01172818,0.04392144
1757984151967,-0.18879704,-0.32177952,-0.57351843,-0.08228699,0.04669044,0.05273865,0.99543478,0.08355121,0.01223011,0.04448838
1757984151990,0.17581716,0.14035205,0.45051302,-0.01962000,0.00458293,0.02931410,0.99543789,0.08332754,0.01228235,0.04482257
1757984152022,0.09734006,0.06223538,-0.00832063,-0.03135939,-0.00644574,0.01028929,0.99547361,0.08282579,0.01217922,0.04498719
1757984152034,0.27990043,-0.49547050,-1.00543499,-0.09368818,-0.04120595,0.01185812,0.99552192,0.08224024,0.01192168,0.04506131
1757984152067,-0.00416283,0.19319361,0.38443860,-0.02733601,-0.02234763,-0.00023973,0.99556285,0.08179740,0.01155965,0.04505742
1757984152079,0.13167310,-0.63819079,-0.84176210,-0.08371492,-0.05175325,0.01541376,0.99560302,0.08129929,0.01125172,0.04514914
1757984152113,-0.06677934,0.19668783,0.33445044,-0.02420688,-0.02309984,0.00012102,0.99564070,0.08088899,0.01086018,0.04515119
1757984152135,0.15920139,-0.11474594,-0.09251250,-0.07286544,-0.03260805,-0.02687786,0.99572344,0.08008018,0.01049823,0.04485284
1757984152145,0.52429754,-0.76525525,-1.08600397,-0.13869583,-0.04926455,0.02666078,0.99577656,0.07937283,0.01024698,0.04498881
1757984152167,-0.32620045,0.46847778,0.31062868,-0.03685573,0.00230832,0.00503224,0.99580576,0.07897111,0.01027214,0.04504366
1757984152189,-0.04594171,0.01520504,-0.12824685,-0.06651527,0.00611216,-0.01167400,0.99586947,0.07822946,0.01034029,0.04491350
1757984152201,0.18292742,-0.45045410,-0.31387760,-0.17164343,0.00703566,-0.06580471,0.99596389,0.07723393,0.01038110,0.04453183
1757984152235,-0.08352249,0.15472825,0.36549089,-0.06090387,-0.00418518,-0.00809035,0.99605254,0.07617420,0.01030827,0.04439106
1757984152246,1.44206049,-2.69242545,-3.46564511,-0.30776178,-0.01361761,-0.10960611,0.99620240,0.07454306,0.01023610,0.04381015
1757984152278,-0.33222669,0.80972068,0.96189350,-0.05660939,-0.03307645,-0.01023776,0.99628274,0.07363165,0.00970357,0.04364532
1757984152290,0.84627328,-0.06319987,-1.88732830,-0.13516440,-0.09213481,-0.01912784,0.99634913,0.07286122,0.00917840,0.04353629
1757984152312,-0.29566838,0.08089001,0.76230917,-0.06270462,-0.02694094,0.00728139,0.99640008,0.07214952,0.00887262,0.04361893
1757984152334,-0.11804186,0.05120672,0.27537943,-0.04652691,-0.01927578,-0.00742445,0.99644206,0.07164237,0.00866252,0.04353801
1757984152345,0.97928008,-0.63744762,-1.32995466,-0.13686117,-0.04863522,-0.02559933,0.99650376,0.07089648,0.00839745,0.04339849
1757984152357,-0.48951302,0.45011824,0.70883806,-0.05460994,-0.02489111,-0.00419758,0.99652936,0.07056882,0.00824811,0.04337331
1757984152390,-0.23378542,0.16458156,0.32887894,-0.02262174,-0.00600319,-0.00881404,0.99656265,0.07019783,0.00814965,0.04322876
1757984152400,2.13361976,-0.45134704,-2.67252842,-0.14886913,-0.02342850,-0.03254326,0.99662639,0.06940882,0.00802548,0.04305628
1757984152434,-0.66066024,0.12364612,0.82786612,-0.00492527,-0.00732430,-0.00188582,0.99663462,0.06932484,0.00790060,0.04302412
1757984152457,0.32389070,0.07393512,-0.47595524,0.01282182,-0.01724538,0.00380050,0.99662448,0.06946588,0.00771090,0.04306593
1757984152496,-0.18387758,-0.01618835,0.26344994,0.01316202,-0.00127456,-0.00921575,0.99661440,0.06972517,0.00768580,0.04288438
1757984152526,0.10344838,0.01630194,0.09670052,0.06771487,0.01686753,0.01297242,0.99653354,0.07072735,0.00793544,0.04307637
1757984152546,-0.03568832,0.53545712,-0.29471126,0.11703676,0.05023231,0.04734648,0.99642398,0.07190943,0.00844278,0.04355457
1757984152582,-0.08863549,-0.22816058,0.11015627,0.02496635,0.02120748,0.00578236,0.99638268,0.07236881,0.00883300,0.04366096
1757984152613,0.14969247,-0.04282659,-0.23659945,0.00931001,0.01515356,-0.01042829,0.99637726,0.07251032,0.00906333,0.04350245
1757984152635,0.13405015,-0.19334536,-0.44731736,0.02031678,-0.02465049,-0.01676350,0.99637149,0.07273177,0.00879464,0.04331973
1757984152658,-0.08675608,-0.03947481,0.16611188,-0.03841270,-0.02706421,0.00202943,0.99640561,0.07228618,0.00848070,0.04334327
1757984152702,-0.09643143,0.05192853,0.16299718,-0.01440166,-0.01350343,-0.00803153,0.99643885,0.07196791,0.00818227,0.04316578
1757984152723,0.49409369,-0.45772675,-1.80328132,-0.15333304,-0.04323079,-0.09896187,0.99660498,0.07032724,0.00771970,0.04210689
1757984152746,-0.41721892,0.25924131,1.21108349,-0.08409431,-0.00026475,-0.02004398,0.99668048,0.06938539,0.00771674,0.04188239
1757984152768,0.09184560,-0.01625791,-0.01445439,-0.01804421,-0.00397640,-0.00015177,0.99669443,0.06919051,0.00767379,0.04188075
1757984152791,-0.23213315,0.12707498,0.38872518,0.00149683,-0.00875282,-0.00525426,0.99669662,0.06920832,0.00756963,0.04181823
1757984152802,0.36208116,-0.19127092,-2.24710356,-0.01912503,0.04117820,0.02437966,0.99669654,0.06910505,0.00779200,0.04194988
1757984152836,-0.15936164,0.08388508,0.82502236,-0.00443199,0.01476732,0.01320782,0.99669040,0.06903103,0.00803861,0.04217045
1757984152869,0.05255435,-0.00751066,-0.27036666,-0.00356068,0.02902314,0.01050682,0.99668309,0.06897193,0.00852039,0.04234486
1757984152891,-0.12165832,0.17193136,-0.74658849,0.02435624,0.07105350,-0.00093292,0.99665727,0.06924715,0.00932330,0.04233432
1757984152924,0.03432065,-0.05569824,0.47721286,-0.01546741,0.04372167,-0.00719181,0.99667281,0.06899503,0.01003596,0.04221709
1757984152935,0.32273410,0.40216026,-1.98278517,0.06248125,0.04015524,-0.00385164,0.99664738,0.06934180,0.01025882,0.04219572
1757984152958,-0.08537724,-0.13641339,0.91979135,0.05071612,0.02359888,0.00140367,0.99660408,0.06991236,0.01052431,0.04221151
1757984152981,0.04932134,-0.14287179,0.02828937,0.00968549,0.02145571,0.00742794,0.99658988,0.07002471,0.01077320,0.04229767
1757984152991,0.24451731,0.33391672,-0.98643042,0.00723814,0.02934950,0.00384971,0.99658472,0.07006235,0.01092582,0.04231769
1757984153023,-0.10551706,0.01398663,0.54596995,0.02629702,0.00565774,-0.00892247,0.99656011,0.07048310,0.01101634,0.04217493
1757984153047,0.08007341,0.00474055,-0.38661257,0.04322392,0.00827590,-0.01558691,0.99653059,0.07099314,0.01111399,0.04199101
1757984153058,0.30199165,-0.64976184,-2.14187900,0.01034337,0.01594544,-0.01556626,0.99652909,0.07105262,0.01120568,0.04190150
1757984153093,-0.14430811,0.14468837,1.06193895,-0.00735994,-0.00236537,-0.00503693,0.99654235,0.07092456,0.01116452,0.04181386
1757984153126,0.06510158,0.04601003,-0.41051503,0.00701306,-0.01069113,-0.01292700,0.99654498,0.07103957,0.01098919,0.04160185
1757984153169,-0.03987479,-0.08469539,-0.03605292,0.02214388,-0.00763680,0.00390642,0.99650872,0.07152231,0.01082271,0.04168701
1757984153192,0.29546842,0.22423347,-1.00646795,0.02293949,-0.00705057,0.04229969,0.99647150,0.07177694,0.01074445,0.04215654
1757984153235,-0.21647429,-0.07919147,0.73233601,0.03186729,0.00564508,-0.01508289,0.99643357,0.07247483,0.01086807,0.04182623
1757984153270,0.09457569,-0.04323638,-0.32585414,-0.01359035,-0.00916526,-0.01529908,0.99646300,0.07224311,0.01071180,0.04156538
1757984153280,-1.56776041,-0.87448343,-6.53452884,0.05717225,-0.06073749,0.01251670,0.99644223,0.07253755,0.01039901,0.04162984
1757984153326,0.24420197,0.15171302,1.70880340,-0.01810831,-0.00919156,0.00837336,0.99646648,0.07212287,0.01018852,0.04182159
1757984153371,0.02372834,0.05579995,0.12831259,-0.02804509,-0.00420420,0.01273422,0.99650069,0.07149466,0.01009435,0.04210683
1757984153405,-0.00385948,0.01927182,-0.35256245,-0.02842037,0.02269336,0.00828667,0.99652565,0.07100441,0.01048581,0.04224978
1757984153437,-0.08405125,0.09571630,0.23469162,-0.00893643,0.00144281,-0.01431102,0.99654496,0.07086366,0.01050853,0.04202438
1757984153473,-0.01255489,0.04791050,0.06950744,0.03103190,0.00525709,-0.00000665,0.99650397,0.07142379,0.01060342,0.04202426
1757984153508,-0.02900385,-0.17374081,0.12083050,0.00565104,-0.01220054,-0.00227069,0.99650074,0.07152466,0.01038564,0.04198373
1757984153555,0.01695627,0.08536509,-0.00694575,0.04530768,-0.00843043,0.00776711,0.99641915,0.07257580,0.01019006,0.04216393
1757984153586,-0.26904908,-0.16535474,-0.29953675,-0.00622793,0.01985749,-0.01414128,0.99643240,0.07247802,0.01050182,0.04194191
1757984153630,0.11624643,0.11057687,0.21580237,0.02632638,-0.02213691,-0.00569854,0.99640060,0.07305325,0.01001813,0.04181739
1757984153664,0.00537451,0.00499244,-0.03455873,0.02516557,-0.03032676,-0.00459005,0.99637754,0.07347981,0.00950409,0.04173959
1757984153727,0.03865476,0.01081133,0.09688822,0.00969607,-0.01591116,0.01471328,0.99634004,0.07378572,0.00900209,0.04220380
1757984153765,-0.16620648,0.06843595,-0.25435927,0.03339298,0.00559868,0.00040591,0.99629143,0.07442185,0.00910875,0.04221153
1757984153803,0.39627854,-0.00402025,0.07072031,-0.01077697,-0.00700714,0.02735898,0.99628581,0.07421925,0.00897701,0.04272588
1757984153854,0.01330801,-0.06499745,0.06415652,-0.02068812,-0.00818666,-0.00001661,0.99632733,0.07368549,0.00876580,0.04272545
1757984153917,0.04478847,-0.05070560,-0.02272429,-0.01844954,0.01436042,0.01463132,0.99634627,0.07310156,0.00922030,0.04318853
1757984153957,0.77639682,-0.32500966,-0.72381824,-0.15700314,0.05051648,-0.04681327,0.99659759,0.07001645,0.01021295,0.04226865
1757984154018,-0.32917512,-0.08636425,0.08933337,-0.15664836,0.01427037,-0.00918901,0.99693113,0.06520735,0.01065105,0.04198655
1757984154051,0.75081842,-0.61621936,-0.64963395,-0.46053811,-0.04057262,0.05656931,0.99736260,0.05767755,0.00998769,0.04291146
1757984154095,-0.22682087,0.31740843,0.17437806,-0.28970869,-0.02219268,-0.02583771,0.99774467,0.05121705,0.00949279,0.04233527
1757984154140,-0.03013480,0.23207592,0.28748162,-0.14133407,-0.02235442,-0.05382667,0.99795444,0.04809356,0.00899876,0.04114571
1757984154172,0.79192615,-0.36034417,-0.62203817,-0.17939570,-0.09513220,-0.09525439,0.99816475,0.04519632,0.00746238,0.03960735
1757984154193,0.12351622,0.13727522,-0.76275448,-0.18281357,-0.05220232,-0.04139880,0.99827388,0.04322194,0.00689859,0.03916024
1757984154230,-0.81496202,0.29595689,1.04872630,-0.09336128,-0.00623610,0.02547244,0.99832878,0.04151342,0.00678447,0.03962639
1757984154262,0.00636617,0.10972677,0.03439468,-0.05617508,0.01290538,-0.00406529,0.99836726,0.04060620,0.00699289,0.03956073
1757984154284,1.55574213,0.13940368,-0.94839045,-0.17313347,-0.00828455,-0.09272283,0.99848394,0.03869307,0.00690135,0.03853614
1757984154316,-0.99556601,0.01354958,0.93601641,-0.07172654,-0.01218353,-0.01245010,0.99853528,0.03757772,0.00671189,0.03834254
1757984154326,5.77117694,-2.06038416,-2.81894704,-0.30472922,-0.11997804,-0.09719368,0.99861462,0.03603884,0.00610600,0.03785172
1757984154361,-1.87456596,0.58966099,1.03278546,-0.05978501,-0.05806817,-0.03803056,0.99868386,0.03497168,0.00506949,0.03717287
1757984154392,0.03991471,0.20004616,-0.04222879,-0.00355723,-0.07475482,-0.02308286,0.99870407,0.03491708,0.00392200,0.03681855
1757984154403,6.95763439,-1.34759856,-3.50649134,0.11077559,-0.17920031,0.09927334,0.99866461,0.03554296,0.00290952,0.03737944
1757984154427,-3.22644235,0.49618959,1.74927145,-0.02501558,-0.03613181,-0.00329506,0.99867763,0.03524902,0.00248497,0.03734073
1757984154462,-0.30143551,-0.00198206,0.15430153,-0.03277735,-0.02310433,-0.01034193,0.99870593,0.03466395,0.00207256,0.03715612
1757984154482,0.89481821,0.13463187,-0.38016796,-0.05429773,-0.02116413,-0.01615711,0.99873092,0.03412369,0.00186197,0.03699536
1757984154493,3.37365506,0.22988132,-2.95360456,-0.02641159,0.00470908,0.04267125,0.99872735,0.03398767,0.00188623,0.03721512
1757984154526,-1.45852793,-0.10131473,0.96581224,0.00956398,0.00745589,0.00045829,0.99872134,0.03414834,0.00201149,0.03722282
1757984154537,4.64129975,-0.76531121,-2.90624249,0.06056549,0.02763355,-0.05027880,0.99871984,0.03448145,0.00216347,0.03694628
1757984154571,-1.35175488,0.19279941,0.79493705,0.01552650,0.01009346,-0.00409999,0.99871286,0.03474618,0.00233556,0.03687638
1757984154583,5.58188232,-3.13715534,-5.76811897,0.01479958,0.05848441,-0.00018672,0.99870919,0.03482906,0.00266308,0.03687533
1757984154605,-1.74212296,0.96069724,1.73160971,-0.07114700,0.02446875,-0.01278346,0.99874089,0.03403932,0.00293468,0.03673344
1757984154628,-0.82284378,0.49882179,0.62562794,-0.05855912,0.00691314,-0.00151567,0.99876442,0.03335418,0.00301556,0.03671570
1757984154639,7.09276330,-3.18305879,-7.44716649,-0.08247140,0.02803529,0.01989538,0.99877458,0.03291708,0.00316415,0.03682115
1757984154673,-2.39054161,0.82006629,2.44143656,-0.04491397,0.01164667,0.00440219,0.99879635,0.03214232,0.00336506,0.03689709
1757984154706,1.27295771,-0.39048028,-1.19328481,-0.16396359,0.01990967,-0.00081673,0.99887837,0.02946151,0.00369058,0.03688373
1757984154741,0.25792144,0.10444201,-0.38000949,-0.05118493,0.03520778,0.02751017,0.99888395,0.02857857,0.00429791,0.03735828
1757984154752,22.43236790,-5.67035092,-22.23793423,-0.36571133,0.13801505,0.06422173,0.99892364,0.02651230,0.00507770,0.03772114
1757984154788,-7.39781460,1.83956598,7.21070946,-0.02553780,0.03393230,0.02592545,0.99891473,0.02605390,0.00568678,0.03818650
1757984154822,0.00674313,-0.09895721,0.03390167,-0.09004799,0.04521440,-0.03244942,0.99897022,0.02450958,0.00646221,0.03762999
1757984154857,1.14316793,-0.12783045,-1.05361687,-0.15405139,0.07913704,-0.03338359,0.99904504,0.02179827,0.00785502,0.03704244
1757984154888,0.20877056,0.21814271,-0.40088573,-0.08708629,0.12364517,-0.00868060,0.99906152,0.02046150,0.00975297,0.03690919
1757984154919,0.02115899,0.57874604,0.46006407,0.11242376,0.11545754,-0.05932334,0.99903836,0.02223217,0.01157143,0.03597485
1757984154965,-0.84302594,-0.13270336,0.95841303,-0.03840543,0.07824133,0.00512543,0.99903107,0.02136421,0.01333968,0.03609068
1757984154996,1.60314597,-0.07339583,-1.42699260,-0.01740774,0.20091762,-0.04553709,0.99901562,0.02109439,0.01645391,0.03538486
1757984155029,-0.92648979,0.26840661,1.13897727,-0.21789601,0.14451882,-0.12884038,0.99911678,0.01746642,0.01886015,0.03323967
1757984155040,15.79869220,-2.79440735,-9.35103593,-0.51646035,0.24965069,-0.12144374,0.99915624,0.01472918,0.02018330,0.03259601
1757984155072,-6.31669809,0.95958143,4.28132903,-0.13856414,0.03300086,-0.02398023,0.99918855,0.01247751,0.02071956,0.03220634
1757984155094,0.64368316,0.06590719,0.00112577,-0.11432649,-0.01967417,-0.04611208,0.99922478,0.01119706,0.02049921,0.03168988
1757984155143,-0.80575743,-0.02227630,0.40016085,-0.00230651,-0.00344100,-0.00242356,0.99922900,0.01114078,0.02041525,0.03163075
1757984155175,1.18345902,0.05855054,0.40032329,0.05689448,0.09103173,-0.06626373,0.99922058,0.01205394,0.02187631,0.03056721
1757984155200,-0.45410756,1.02625712,0.82400069,0.09993511,0.11547959,-0.06171145,0.99919604,0.01327314,0.02328516,0.02981433
1757984155243,-0.89287414,-0.53963160,-0.30846974,0.07855454,0.07232139,-0.02163538,0.99914862,0.01495814,0.02483645,0.02935025
1757984155275,0.16251427,0.38326970,0.98474117,0.08927567,0.19509502,-0.10440059,0.99909162,0.01638209,0.02794822,0.02768506
1757984155295,-0.46355058,0.53622274,0.41279179,0.24173647,0.34295006,-0.07427199,0.99896085,0.01892032,0.03154919,0.02690521
1757984155340,-0.28460381,-0.47897014,-0.83390725,0.10781551,0.13629190,-0.01760608,0.99882328,0.02130843,0.03456806,0.02651523
1757984155374,-0.29621417,-0.28107701,0.81297455,0.08365148,0.31162117,-0.06183203,0.99862314,0.02272214,0.03983446,0.02547027
1757984155387,-0.83067576,-1.75151150,1.59001607,0.29313799,0.67060462,0.10001751,0.99837578,0.02464220,0.04422692,0.02612539
1757984155437,0.29847102,0.59062187,-1.12073391,0.02880384,0.15195203,0.03348920,0.99815862,0.02536661,0.04804851,0.02696764
1757984155470,0.06869400,0.02712860,0.05264732,0.20786485,0.29680570,0.02721835,0.99780213,0.02882756,0.05299033,0.02742083
1757984155504,-0.13049250,-0.15905470,0.18123963,0.15833021,0.27619501,0.04981547,0.99743664,0.03151918,0.05768564,0.02826769
1757984155553,-0.11237249,0.59731987,-0.39019051,0.19204319,0.44743443,-0.07310801,0.99664042,0.03617622,0.06853593,0.02649482
1757984155584,-0.00970514,-0.63455338,-0.38185789,0.17907841,0.62206209,-0.15996839,0.99587826,0.03898776,0.07830230,0.02398332
1757984155620,-0.27267561,-0.01873676,0.11495173,-0.05964291,0.54223220,-0.13617003,0.99516023,0.03791418,0.08806248,0.02153226
1757984155640,-1.22532061,1.31938553,-1.34362832,0.13769286,1.14329714,-0.18854497,0.99407945,0.03927734,0.09938112,0.01966566
1757984155673,0.12228483,-0.94256156,0.82997248,-0.07416171,0.86418632,-0.13216833,0.99262019,0.03803884,0.11381303,0.01745845
1757984155719,0.07669465,0.13228710,0.12402152,-0.02485649,0.62017092,-0.05301497,0.99093887,0.03747211,0.12795293,0.01624971
1757984155741,-6.03636869,1.05133919,0.64967291,0.29702928,2.84484864,-0.36975533,0.98632272,0.04073944,0.15924627,0.01218240
1757984155784,2.42186218,-0.62425102,0.06906116,0.07450143,1.13744870,-0.10641208,0.98200917,0.04234494,0.18375828,0.00988922
1757984155819,-2.74543786,0.11244105,0.77497926,0.13649100,2.79197950,-0.26587838,0.97152478,0.04473353,0.23261793,0.00523635
1757984155840,-2.54083214,0.84989250,1.26282245,0.26330939,3.56040993,-0.17438182,0.96158013,0.04752461,0.27035827,0.00338790
1757984155885,3.34771730,-0.44794430,-0.90019932,0.01499915,1.19323070,-0.08743066,0.95368645,0.04785909,0.29696732,0.00143820
1757984155924,-0.66270387,0.13071207,-0.01294467,0.02016870,1.53585257,-0.07253528,0.94384726,0.04825138,0.32683965,0.00002739
1757984155935,-23.19990842,3.74519313,9.47758907,0.48000872,5.81207586,-0.30898595,0.93190898,0.05091542,0.35909667,-0.00168749
1757984155984,6.04632499,-0.83707319,-2.40905381,0.10838064,0.91745414,-0.02484959,0.92272377,0.05358701,0.38171191,-0.00230003
1757984156043,0.38442079,-0.05777644,-0.12094922,0.05479657,0.58844203,-0.01559747,0.91525260,0.05520351,0.39907095,-0.00276015
1757984156085,-1.06821081,0.20671879,0.04311464,0.18378358,1.16275440,-0.03139489,0.90416221,0.05899864,0.42308183,-0.00340846
1757984156096,-4.84514449,1.38960069,-2.48923421,0.36986059,2.30730243,-0.26772992,0.89785746,0.06106986,0.43600273,-0.00490775
1757984156130,2.45774574,-0.69173057,0.62810847,0.09126803,0.65122567,-0.00614282,0.89222189,0.06263967,0.44720381,-0.00501340
1757984156175,0.42191063,-0.02207049,-0.07191501,0.01693657,0.35345203,-0.02359334,0.88820677,0.06301650,0.45506811,-0.00553835
1757984156185,-1.79665175,0.77756771,-4.58926849,0.03986891,0.78088895,-0.16168384,0.88613502,0.06321984,0.45905065,-0.00636294
1757984156208,1.10474216,-0.32914161,1.21751795,0.07300018,0.25198963,0.01223980,0.88453419,0.06407759,0.46201153,-0.00621912
1757984156220,-2.02675183,0.47577730,0.25323643,0.07891627,0.31898058,-0.03485674,0.88356532,0.06451952,0.46379782,-0.00641432
1757984156258,0.81910852,-0.30703022,0.17299864,0.02550791,0.07671600,-0.00263102,0.88275639,0.06500800,0.46526693,-0.00646471
1757984156260,-71.20424445,-12.77264026,-105.24912347,0.12105880,1.09664793,0.12936715,0.88205195,0.06515327,0.46658291,-0.00630947
1757984156302,4.21261909,0.61955865,5.79550423,-0.01758973,0.01095600,-0.00401268,0.88195681,0.06478388,0.46681298,-0.00639373
1757984156337,-0.15658324,0.10909835,-0.71684441,0.03021897,-0.06340066,0.02109464,0.88250052,0.06530667,0.46571615,-0.00602879
1757984156370,0.31399359,-0.37120415,-0.49372695,-0.01674675,-0.17396183,0.04327462,0.88402038,0.06503286,0.46287188,-0.00532125
1757984156414,0.15592922,0.04774782,0.15617277,-0.08037824,-0.24059565,0.02170127,0.88692836,0.06324846,0.45753065,-0.00483949
1757984156445,0.70311986,-0.82111531,-2.16418921,-0.12830369,-0.67615195,0.09343232,0.89241964,0.06125334,0.44701649,-0.00338661
1757984156477,0.72827993,-0.35028305,-0.13597325,-0.23147208,-0.92435870,0.09567185,0.89987888,0.05757294,0.43231919,-0.00186543
1757984156508,0.62573993,-0.25398305,-0.57095533,-0.29341555,-1.15058674,0.20654777,0.90859028,0.05298098,0.41431250,0.00136704
1757984156550,-0.11192785,0.31291139,0.61478854,-0.25627287,-1.00443832,0.20800116,0.91817177,0.04761207,0.39326952,0.00572467
1757984156583,0.80246849,-0.68640716,-0.84727678,-0.39623615,-1.29100362,0.30981644,0.92732622,0.04103455,0.37183886,0.01086762
1757984156615,-0.09744191,0.54738919,-0.46222972,-0.28251912,-1.27506466,0.27651659,0.93530103,0.03655662,0.35162909,0.01525041
1757984156649,-0.13369606,0.63719292,-0.61746028,-0.06528058,-1.21142744,0.19256235,0.94266450,0.03546317,0.33133768,0.01847583
1757984156679,0.15056776,-0.48613844,-0.34668580,-0.17287437,-1.29613746,0.13752645,0.94953964,0.03278361,0.31124755,0.02060749
1757984156711,-0.55468454,-0.12943174,0.14187874,-0.16706940,-1.16416119,0.10994835,0.95551053,0.03010215,0.29256276,0.02237216
1757984156746,0.00430820,0.60258239,0.14902504,-0.24260937,-1.18399211,0.16318249,0.96156222,0.02592927,0.27219809,0.02517890
1757984156756,1.92679880,3.04405826,-46.83658995,-0.38391431,-3.46637654,0.72989048,0.96647333,0.02391372,0.25399962,0.02901082
1757984156789,-1.70929180,-0.10795946,13.19882562,0.16778359,-1.12818495,0.15334795,0.97099746,0.02666537,0.23549738,0.03152573
1757984156838,-0.69740156,0.35148504,2.29374851,0.29613492,-0.48223539,0.02811415,0.97354373,0.03393548,0.22365850,0.03221593
1757984156872,-0.23748566,-0.02263191,-3.48027311,0.66071308,-0.87175260,-0.18667060,0.97645854,0.04510153,0.20892589,0.02906120
1757984156893,-0.22652503,0.88807749,-9.04294296,1.27757191,-1.61897687,-0.27183320,0.97928779,0.05838828,0.19208853,0.02623413
1757984156938,-0.13493874,-0.90313830,6.56085777,0.32898202,-0.41096887,0.00014841,0.98058219,0.06575748,0.18288282,0.02623746
1757984156970,-2.02595209,-0.55582419,-8.05696056,0.65105748,-0.94672815,0.02508519,0.98255674,0.07636972,0.16745116,0.02664634
1757984157002,-0.65550537,-0.77211493,1.05631779,0.29850009,-0.64979904,-0.07173145,0.98392433,0.08116064,0.15702188,0.02549505
1757984157036,-1.04832440,-0.37575079,-0.56253532,0.11288425,-0.53010669,-0.07276680,0.98518433,0.08306839,0.14806308,0.02426530
1757984157047,-37.00475080,-12.46280517,-84.67597583,0.17982462,-1.51844694,-0.20229616,0.98633604,0.08404843,0.13978754,0.02316278
1757984157104,7.43355172,2.87011710,18.20841565,0.12137286,-0.41978510,-0.05985706,0.98768690,0.08748328,0.12790762,0.02146883
1757984157136,-2.83815117,-0.20186431,-6.02364430,0.15096100,-0.85981446,-0.19982710,0.98922335,0.08990621,0.11410760,0.01826160
1757984157156,-7.77069623,-0.82682738,-17.16985493,0.49455823,-1.65522069,0.33629163,0.99047998,0.09492597,0.09730711,0.02167496
1757984157187,5.41862111,1.07657534,13.46026137,0.10613775,-0.70407702,0.26637972,0.99124032,0.09658703,0.08628831,0.02584380
1757984157239,0.26131283,0.62984881,0.80105823,0.05306094,-0.57456936,0.15070439,0.99217771,0.09795865,0.07143569,0.02973951
1757984157272,-5.89609515,2.29393997,-10.98003324,0.09234187,-0.96083104,0.26489638,0.99289111,0.09945921,0.05582218,0.03404408
1757984157307,1.82365803,0.59050297,3.66076870,0.06232051,-0.62236504,0.23742169,0.99318456,0.10055917,0.04483744,0.03823457
1757984157352,0.21643665,0.35713904,-0.70443744,0.00761658,-0.58927896,0.20849459,0.99348420,0.10072940,0.03166706,0.04289443
1757984157385,-1.50120117,0.46573735,-5.67170898,-0.22621301,-0.65430294,0.14657507,0.99404229,0.09692902,0.02067477,0.04535689
1757984157427,3.20012401,-1.81475820,6.36560628,-0.32052589,-0.42241074,0.07403348,0.99473763,0.09031016,0.01195198,0.04688568
1757984157463,0.74059800,-0.25654473,-0.62409029,-0.23243308,-0.37489558,-0.08072626,0.99523674,0.08610312,0.00516637,0.04542453
1757984157495,-1.69004585,-0.12065792,-7.52650429,-0.27916623,-0.56692801,0.03612799,0.99559134,0.08165042,-0.00387613,0.04600077
1757984157536,3.05326741,-1.12003670,7.99307869,-0.27686595,-0.26440988,0.06777242,0.99593956,0.07597467,-0.00929653,0.04739011
1757984157566,-0.23725908,1.56150505,-3.38004682,-0.30570801,-0.25812667,0.06394364,0.99619592,0.07125148,-0.01328459,0.04837804
1757984157613,1.37193926,-1.13563582,4.31129965,-0.09450646,-0.13815358,0.04081393,0.99625633,0.06904475,-0.01651047,0.04933104
1757984157646,-0.23923044,0.20571843,-7.91905099,-0.32688878,-0.26046512,-0.11736557,0.99662793,0.06366743,-0.02079512,0.04740038
1757984157679,1.20349803,-0.34032733,3.72027948,-0.09365263,-0.22665470,-0.00409257,0.99664365,0.06211280,-0.02455759,0.04733244
1757984157711,1.43483958,-0.17945793,0.19955993,-0.10255097,-0.18853992,-0.04133736,0.99669552,0.06051813,-0.02748939,0.04668965
1757984157748,0.41227569,0.21021743,2.41846137,0.09961698,-0.14910149,-0.03018251,0.99652567,0.06238595,-0.03028504,0.04612372
1757984157778,1.71195810,-0.45651886,-2.86065076,0.08493595,-0.05027037,0.00631441,0.99641604,0.06367697,-0.03104915,0.04621970
1757984157810,0.82249863,-0.63873146,0.57427218,0.02891014,-0.05503061,-0.08042679,0.99641741,0.06413809,-0.03192689,0.04493690
1757984157851,0.27338905,0.28311490,2.36464595,0.07722056,-0.02517519,-0.08378733,0.99637368,0.06571725,-0.03244172,0.04322345
1757984157887,1.06366594,-0.91704741,-1.51008259,0.17192825,0.03091115,-0.06407626,0.99623412,0.06876898,-0.03189305,0.04208609
1757984157928,2.03402851,0.00541558,-1.13555535,0.07255430,-0.00086217,-0.12766932,0.99623687,0.07027811,-0.03191098,0.03943057
1757984157959,1.73561147,0.06226147,0.24505790,0.41335126,0.11270992,-0.28829619,0.99598463,0.07670572,-0.03015834,0.03494756
1757984157992,1.54561341,0.50598284,1.46227691,0.44342100,-0.21762620,-0.29226726,0.99544544,0.08391131,-0.03369477,0.03019822
1757984158026,0.17851482,1.96185552,0.26172613,0.31525447,-0.12511593,-0.10103742,0.99495997,0.08922335,-0.03580297,0.02849574
1757984158047,11.00372803,5.61999673,-13.23298351,0.87146136,-0.36970132,-0.17130629,0.99398985,0.09846084,-0.03972181,0.02667989
1757984158092,-6.51187946,-1.43687273,8.03077955,0.17569923,-0.20974513,-0.11853760,0.99345970,0.10240529,-0.04443058,0.02401873
1757984158149,-1.50312002,-0.28255064,1.55314046,0.04343781,-0.16878880,-0.04858228,0.99313640,0.10364544,-0.04924950,0.02263170
1757984158161,109.86749484,35.39854795,-146.74114424,0.22640827,-2.12124430,-1.18089141,0.99240310,0.10502653,-0.06218909,0.01542826
1757984158227,-20.69841730,-6.88863697,27.25639173,0.01903193,-0.33808189,-0.06554890,0.99159899,0.10565934,-0.07343032,0.01324876
1757984158261,3.05853930,0.15833968,-5.19055637,0.12708989,-0.66911313,-0.09740102,0.99049643,0.10778809,-0.08463796,0.01161730
1757984158293,-0.91121980,-1.43218925,-0.12856979,-0.07710959,-0.71636848,-0.02526287,0.98958538,0.10655049,-0.09613568,0.01121183
1757984158327,-1.03952876,-0.19509192,1.10844975,-0.10258400,-0.68243355,0.05548700,0.98857452,0.10482195,-0.10763468,0.01214678
1757984158360,-1.11158466,0.45264890,-0.00032028,-0.07964316,-0.68610694,0.14058843,0.98737600,0.10349987,-0.11902406,0.01448055
1757984158390,-0.46762481,-0.07240460,-0.96349459,-0.16087528,-0.63627476,0.12529728,0.98638239,0.10104652,-0.12872725,0.01639133
1757984158431,-1.58919879,0.34313410,2.49532499,-0.18239971,-0.36771434,0.19131288,0.98567808,0.09733469,-0.13621023,0.02028455
1757984158453,2.56245406,-0.17540555,-20.09976363,-0.40200625,-0.57694295,0.07472109,0.98519473,0.09295282,-0.14249891,0.02109901
1757984158496,-2.67692688,-0.38410291,12.25284037,-0.22572042,-0.17073955,0.00016942,0.98510175,0.08805469,-0.14620396,0.02110269
1757984158532,-0.24985645,-0.13809884,-3.67915832,-0.21993523,-0.10281298,0.08681173,0.98513608,0.08417283,-0.14801861,0.02263491
1757984158565,-0.58185934,-0.60748874,-1.08222634,-0.23422916,-0.12174458,0.08609132,0.98512126,0.08031976,-0.15002131,0.02405112
1757984158595,-0.76622824,-0.02518036,-2.20510688,-0.21474772,-0.07746364,0.11626120,0.98515724,0.07705559,-0.15119875,0.02581829
1757984158628,-0.31732646,0.15297983,0.71811046,-0.12253984,-0.15034883,0.18634823,0.98484108,0.07501531,-0.15370206,0.02892098
1757984158665,-0.09061157,-0.05993955,1.03135616,0.13984635,-0.20114043,0.19610496,0.98394667,0.07758149,-0.15739299,0.03251951
1757984158697,-1.67507598,-0.03932820,-6.94490799,0.20499639,-0.59222274,0.18758852,0.98202800,0.08084093,-0.16680933,0.03550217
1757984158742,0.32252392,0.09206392,5.54556764,0.19927725,-0.18825924,0.12139285,0.98080025,0.08538445,-0.17110164,0.03826992
1757984158763,-6.03590568,-1.59734963,-19.85381678,0.17879938,-0.22217903,0.20687764,0.98015063,0.08722608,-0.17339009,0.04040076
1757984158794,0.76682405,-0.16834575,5.98678116,0.10099940,0.04884250,0.16459476,0.98003405,0.08880672,-0.17262570,0.04297667
1757984158835,1.62617993,0.74638554,5.96692696,0.01802777,0.08738539,0.07723722,0.98024215,0.08917359,-0.17084741,0.04454845
1757984158845,-49.81898773,-14.32718748,-130.16981468,-0.20844965,0.88353784,0.40129066,0.98103278,0.08808965,-0.16625301,0.04663516
1757984158883,11.09908424,2.71678119,30.72579619,-0.21093627,0.41832553,0.10741376,0.98258681,0.08411350,-0.15836757,0.04865991
1757984158924,1.45932730,0.87953794,4.08338385,-0.17674949,0.31385008,0.05906450,0.98383272,0.08052549,-0.15199642,0.04985892
1757984158947,-11.13542000,0.08524680,-23.47141900,-0.29163347,1.08258267,0.13197198,0.98590821,0.07709879,-0.13927607,0.05140959
1757984158969,4.52945308,0.78302786,11.00401787,-0.38467221,1.00574144,0.09265948,0.98769095,0.07282893,-0.12811234,0.05243811
1757984158981,-27.19794687,2.45091581,-53.22674172,-0.68908938,2.11163987,0.04486285,0.98946014,0.06886667,-0.11597041,0.05269607
1757984159016,11.57490515,0.50798559,24.53780308,-0.23094877,0.76010344,0.01592245,0.99121894,0.06474423,-0.10240257,0.05298029
1757984159020,-548.08840784,122.44444226,-1023.45995293,-1.50627977,9.34631998,0.18094323,0.99296857,0.06203293,-0.08557919,0.05330599
1757984159066,44.07678290,-9.64626589,82.87989319,-0.11432596,0.82416354,-0.00814081,0.99457834,0.05942630,-0.06678826,0.05312038
1757984159076,-85.84505284,8.06445746,-149.43717727,-1.01537130,5.14760638,-0.39076660,0.99644990,0.05404483,-0.03950595,0.05104931
1757984159119,21.35322756,-2.41181194,37.13738345,-0.16711943,0.79518341,-0.04107383,0.99721259,0.05046012,-0.02244926,0.05016828
1757984159152,-4.64426305,-0.81161385,-7.90459078,-0.36578760,1.53104984,-0.12307467,0.99784924,0.04440633,0.00288961,0.04813139
1757984159184,0.59524543,0.03748252,-0.33942644,-0.34445487,1.38497821,-0.16039793,0.99789432,0.03901561,0.02456452,0.04562117
1757984159218,3.47312544,0.14563202,6.90605005,-0.18636172,0.82949500,-0.05169076,0.99759683,0.03577292,0.03899773,0.04472175
1757984159260,-1.90092805,0.28294004,-4.30280340,-0.20690936,1.28615132,-0.26668879,0.99655993,0.03143817,0.06594260,0.03913462
1757984159291,-1.07742168,0.70819012,-3.85244871,-0.40339625,1.50720780,-0.11592058,0.99499162,0.02520570,0.08922896,0.03734364
1757984159336,3.28121348,-0.10733314,6.13992282,-0.11283586,0.82387282,-0.10748007,0.99330403,0.02266689,0.10776610,0.03492534
1757984159374,0.22666827,0.19077957,-3.14552901,-0.06642654,0.63134482,-0.19640375,0.99207819,0.02140146,0.11979322,0.03118385
1757984159408,1.76311865,-0.81728444,2.61273694,-0.07335632,0.39309853,-0.00458555,0.99127456,0.02015074,0.12649555,0.03110567
1757984159440,1.11633336,0.40865521,-1.00189599,0.08183839,0.20482610,-0.08413961,0.99086731,0.02145197,0.12975229,0.02976785
1757984159473,0.99091307,-0.80009190,0.65840270,-0.00066484,0.11638125,-0.05030920,0.99063670,0.02144090,0.13169003,0.02893020
1757984159509,0.97708305,0.38740432,1.05197083,-0.01508453,0.04720884,-0.02042280,0.99054014,0.02117013,0.13253743,0.02856361
1757984159542,0.55889092,-0.17051299,-1.25263838,0.03561616,0.12396781,-0.06220589,0.99028779,0.02174177,0.13452712,0.02756520
1757984159574,1.11562131,-0.36094809,-0.03853352,0.04487045,0.15417859,-0.06726622,0.98995879,0.02246867,0.13702481,0.02647549
1757984159597,3.54861472,0.42414615,-8.31467230,0.08770200,0.11557680,0.10756139,0.98971876,0.02346848,0.13834238,0.02770169
1757984159644,-1.13957242,-0.24362661,6.26998997,-0.04364628,0.04767487,0.01780984,0.98957132,0.02242751,0.13947943,0.02812646
1757984159676,2.64708722,-0.15486986,-4.34435280,-0.07718014,-0.00086373,0.05792782,0.98957368,0.02122350,0.13946596,0.02903013
1757984159708,0.76741039,0.07741984,-0.81555143,0.13727152,-0.00955908,0.07140985,0.98951048,0.02345416,0.13931062,0.03019054
1757984159744,0.33661235,0.15717687,0.65312350,0.05921864,-0.01231807,-0.00419477,0.98951801,0.02450233,0.13909259,0.03011629
1757984159767,6.51372551,-1.34053878,-10.29855690,0.10969226,0.00505370,0.01977793,0.98946939,0.02580219,0.13915248,0.03035066
1757984159808,-2.87016346,0.42923946,6.65665353,-0.12043681,0.02703002,-0.00075536,0.98945313,0.02333925,0.13970524,0.03033521
1757984159843,1.60549200,0.61609600,-1.59001536,-0.20817988,-0.00717951,0.02302617,0.98953698,0.01972733,0.13958068,0.03073472
1757984159881,-0.16456202,0.15581111,0.81042912,-0.16460353,0.04620656,-0.07083943,0.98951054,0.01655049,0.14047246,0.02936752
1757984159904,19.12653397,5.74918512,-23.85031539,-0.26145112,-0.03066576,-0.08374294,0.98963334,0.01356994,0.14012287,0.02841285
1757984159948,-9.45932973,-1.74153007,13.13143074,-0.03490007,-0.04134682,-0.04892225,0.98979958,0.01281436,0.13922772,0.02735368
1757984159971,4.08939542,1.26913020,-3.86511618,-0.16085319,-0.20650832,-0.05893465,0.99017462,0.01094846,0.13683222,0.02667004
1757984160009,-4.77572105,-1.12553739,5.61052588,-0.00729432,-0.13425391,-0.00354109,0.99053354,0.01080731,0.13423441,0.02660152
1757984160045,6.74364261,0.54096157,-7.35250948,-0.06166190,-0.35980215,0.00936004,0.99138492,0.00971282,0.12784792,0.02676766
1757984160078,-1.77508926,-1.08663747,1.94276350,-0.02475326,-0.36542187,0.02112419,0.99213607,0.00930562,0.12183673,0.02711515
1757984160108,0.86985884,0.14484947,-0.78898279,0.02235551,-0.51510800,0.01451593,0.99305695,0.00964543,0.11400709,0.02733579
1757984160140,-1.14547490,-0.99671616,1.19821104,0.01722046,-0.52706494,-0.03511081,0.99399292,0.00991837,0.10565311,0.02677929
1757984160161,9.96939720,-1.01099956,-11.05184000,-0.02149889,-1.13526464,-0.05404652,0.99519422,0.00969478,0.09384635,0.02621720
1757984160213,-8.68406353,0.26259898,9.44353701,-0.05576693,-0.32555268,-0.01772615,0.99598840,0.00823090,0.08530060,0.02575189
1757984160247,6.98406292,-1.39908406,-8.36730976,-0.32759531,-0.95672726,-0.09531296,0.99730131,0.00274368,0.06927541,0.02415540
1757984160321,-2.87635494,0.61783101,3.13211926,-0.21933853,-0.57358609,-0.00342839,0.99855054,-0.00544861,0.04785197,0.02402735
1757984160366,6.19284389,-0.72589318,-8.56950075,-0.73625132,-1.81107177,0.11071170,0.99938262,-0.02175658,0.00773673,0.02647961
1757984160405,-3.97163373,0.27571465,3.55801443,-0.31123047,-1.44416440,0.28047062,0.99888145,-0.02790338,-0.02078551,0.03201891
1757984160428,3.39721011,-1.63066361,-9.14819040,-0.39395350,-1.96910735,0.17521350,0.99797049,-0.03235506,-0.04303643,0.03399882
1757984160471,-4.87162203,0.64910457,7.39722571,-0.22755430,-0.97645836,0.04150814,0.99662748,-0.03729298,-0.06422557,0.03489955
1757984160494,0.95703894,-0.76898981,-6.87553949,-0.19928238,-1.21726715,0.02183711,0.99556047,-0.03952495,-0.07785896,0.03514412
1757984160538,-2.84482541,0.68322355,6.94800507,-0.10493712,-0.44807678,0.03189922,0.99462094,-0.04183356,-0.08771665,0.03584591
1757984160548,29.01017718,-17.16633752,-103.06577710,-0.67618084,-2.47970758,-0.01090945,0.99324717,-0.04534970,-0.10061113,0.03578918
1757984160571,-10.92240202,6.48126848,38.02109273,-0.17323555,-0.75165033,0.01907691,0.99221420,-0.04737656,-0.10940544,0.03601238
1757984160615,-1.89901820,0.65252889,4.18105247,-0.06265465,-0.35387657,0.03028898,0.99124736,-0.04873617,-0.11708456,0.03666965
1757984160627,7.40541969,-11.72983962,-76.64916312,-0.24945015,-1.56354015,0.08181331,0.98995794,-0.05028276,-0.12677851,0.03717689
1757984160661,-3.29587964,3.94756997,25.75423404,-0.05624983,-0.36109926,-0.00555644,0.98910435,-0.05124182,-0.13293525,0.03708215
1757984160669,-4.61813758,-17.34924048,-138.26065088,-0.04169118,-1.48741344,0.16489705,0.98830716,-0.05139816,-0.13851305,0.03770052
1757984160713,0.28783916,3.41512823,26.40070013,0.01419289,-0.15894152,0.02360597,0.98781047,-0.05108804,-0.14198593,0.03821631
1757984160759,-0.77540551,-0.54068162,-5.49500243,0.02681324,-0.33691654,0.03874231,0.98663930,-0.05045927,-0.14988662,0.03912482
1757984160794,-1.75107490,-0.55129745,-5.64247041,0.19246656,-0.30754895,-0.00528527,0.98599254,-0.04716810,-0.15514571,0.03903444
1757984160816,-5.81333434,0.18847955,-20.91491432,0.23226938,-0.29359787,-0.00691614,0.98559182,-0.04455506,-0.15844868,0.03895663
1757984160862,3.42003026,1.38511360,16.08259762,0.09999549,-0.03488833,0.01188858,0.98555293,-0.04225517,-0.15925111,0.03923007
1757984160883,-12.38433080,5.82632639,-42.29970235,0.01696168,0.10876586,0.02869773,0.98573407,-0.04207537,-0.15809820,0.03953426
1757984160906,6.58763353,-2.21016262,24.67020425,0.16805868,0.29671884,0.21137280,0.98624210,-0.04019312,-0.15477494,0.04190164
1757984160958,2.14607700,-0.85084647,8.16489793,0.02579553,0.14598683,-0.02474700,0.98688449,-0.03952243,-0.15097929,0.04125822
1757984160999,-2.39367412,1.00148119,-8.33988119,0.21543446,0.35854223,-0.03909765,0.98818703,-0.03508448,-0.14359332,0.04045281
1757984161039,-0.78497023,-0.65360885,0.23435534,0.16200480,0.65268236,-0.16206127,0.99025693,-0.03180389,-0.13037650,0.03717107
1757984161078,-0.33510214,-0.73668775,-0.57938728,-0.00532334,0.76375604,-0.19306806,0.99223462,-0.03190769,-0.11548326,0.03340624
1757984161117,1.35385244,-0.34125774,3.75837946,-0.00101541,0.73983439,-0.17463222,0.99389544,-0.03192724,-0.10124144,0.03004457
1757984161153,-0.96418444,-0.21943992,-3.88463724,-0.09629633,1.01951475,-0.19330645,0.99565305,-0.03367983,-0.08268628,0.02652639
1757984161189,2.12530781,0.38616483,3.59873159,-0.12365301,0.78594566,-0.29850913,0.99675523,-0.03585612,-0.06885363,0.02127263
1757984161224,0.92647880,0.29526048,1.12687818,-0.29288343,0.69231799,-0.16794280,0.99738523,-0.04104016,-0.05659960,0.01830004
1757984161251,0.99087335,0.01701709,-10.47959785,-0.23821999,0.77310425,-0.49663485,0.99788728,-0.04426804,-0.04612404,0.01157064
1757984161307,1.55878761,-0.28630870,8.38279144,-0.02997544,0.05528627,-0.15751149,0.99796133,-0.04510586,-0.04457879,0.00716819
1757984161340,2.84428242,-0.57453191,-6.85985457,-0.21658874,-0.40728364,-0.20003011,0.99749180,-0.04865791,-0.05125824,0.00388770
1757984161362,4.50246725,-0.49103800,-3.96068720,-0.21721669,-0.95591064,-0.05687311,0.99677861,-0.05104729,-0.06177326,0.00326210
1757984161383,-0.15464983,-0.46018622,8.81452652,-0.25301487,-0.94149456,-0.09867299,0.99595142,-0.05379251,-0.07198847,0.00219149
1757984161406,0.64617476,0.12087396,2.15616168,-0.22861612,-0.90455680,0.02120169,0.99500310,-0.05641016,-0.08234565,0.00243425
1757984161454,-2.36794620,0.41363906,4.24796111,-0.06200940,-0.39215032,0.00715588,0.99409932,-0.05788908,-0.09169844,0.00260492
1757984161485,5.65509601,-1.04486944,-5.22339607,-0.13287332,-0.96061288,-0.03755916,0.99249791,-0.05994198,-0.10653990,0.00202463
1757984161528,-1.44829590,0.46182424,2.72177046,-0.09963546,-0.67000826,-0.02427175,0.99070148,-0.06209909,-0.12104558,0.00149915
1757984161551,25.06030009,-1.94473560,-14.28664327,-0.08086382,-2.21028176,-0.06822708,0.98728884,-0.06300880,-0.14591125,0.00073159
1757984161597,-12.06615931,1.02358451,8.76440834,-0.04109871,-0.59939090,0.00584552,0.98508185,-0.06395818,-0.15975718,0.00086663
1757984161618,31.57536705,-2.05054961,-9.80637094,-0.15330005,-2.15142801,0.02278534,0.98104492,-0.06556783,-0.18234718,0.00110587
1757984161639,-15.46746432,3.00457179,7.52189488,0.02749259,-1.28806975,0.02450045,0.97844055,-0.06527779,-0.19593631,0.00136435
1757984161685,-6.65649086,0.21953869,1.86368435,0.02114879,-0.56132280,0.02176448,0.97581576,-0.06479454,-0.20876254,0.00186167
1757984161706,24.18347536,2.63684109,-5.41833814,0.20312010,-1.74929701,0.05378418,0.97172444,-0.06260084,-0.22765495,0.00244254
1757984161719,13.35313366,-0.60755755,1.10829498,-0.03206330,-2.13991252,-0.00747683,0.96845408,-0.06280284,-0.24113640,0.00239543
1757984161753,-17.18390461,-0.60178339,2.87504231,-0.07999546,-0.82153385,0.00122720,0.96479091,-0.06415876,-0.25506139,0.00241624
1757984161787,0.64123547,0.52064436,-0.40291030,0.12217671,-0.85920628,0.03995068,0.96089842,-0.06205732,-0.26983974,0.00310339
1757984161807,30.27108000,3.61458528,-4.02991162,0.36763403,-2.19182226,0.04041819,0.95470239,-0.05838098,-0.29175796,0.00350757
1757984161818,27.59751702,1.99319964,-0.29437798,0.12221859,-2.74478054,-0.11256660,0.95000096,-0.05770878,-0.30685426,0.00288845
1757984161851,-26.06214990,-3.17143591,3.41154966,0.05465929,-0.93807367,0.00398449,0.94488420,-0.05680144,-0.32242628,0.00295460
1757984161861,96.78369920,8.18156902,-8.50457064,0.16300497,-3.18026095,0.10466602,0.93946858,-0.05600271,-0.33800956,0.00346746
1757984161903,-27.73812839,-2.54786058,2.70047506,0.02804910,-0.49337975,0.03289938,0.93573561,-0.05541789,-0.34829653,0.00415341
1757984161940,7.83694305,0.46088135,-0.45318684,0.02876884,-1.18500371,0.07848633,0.92742259,-0.05489286,-0.36992284,0.00558579
1757984161974,6.11577886,-0.12120698,0.08485515,-0.02958423,-1.74147267,0.22153515,0.91469189,-0.05540762,-0.40022447,0.00944050
1757984162009,-4.75257080,-0.61177122,0.65270627,0.04069696,-1.32659788,0.06251854,0.90417921,-0.05469339,-0.42350626,0.01053770
1757984162041,7.09147909,-1.37698366,0.51458032,0.06006148,-1.89890577,0.02546430,0.88951427,-0.05374142,-0.45360392,0.01094131
1757984162094,-7.75558323,0.37684040,0.01918174,0.00956767,-0.85982112,0.00278650,0.87744366,-0.05348596,-0.47656114,0.01101571
1757984162130,9.74738261,-1.15707972,-0.25365546,-0.02743835,-1.56402967,-0.01357002,0.86189700,-0.05396887,-0.50408806,0.01077688
1757984162152,2.69972501,-0.96391787,-1.09628220,-0.04551599,-1.55935405,-0.06296280,0.85151411,-0.05447410,-0.52139689,0.01007799
1757984162185,-8.51376499,1.12281251,-0.27847651,-0.02100902,-0.89686049,-0.12305627,0.84215930,-0.05482495,-0.53637446,0.00802295
1757984162230,-5.12447804,1.08247809,0.00705681,-0.00545298,-0.47312791,-0.10383091,0.83531046,-0.05494737,-0.54699619,0.00569194
1757984162266,3.47079068,-0.73314266,-0.91903110,-0.05403092,-0.66677495,-0.05183532,0.82735819,-0.05590912,-0.55886478,0.00476928
1757984162297,1.36158650,-0.02203171,-1.27904433,-0.10461468,-0.73548036,-0.13101253,0.81923178,-0.05757250,-0.57055892,0.00268618
1757984162319,8.80938109,-1.20511456,-3.96025222,-0.18228118,-1.05878068,-0.05018898,0.81093041,-0.05955936,-0.58209963,0.00213912
1757984162341,0.90652571,-1.40638603,-2.88613788,-0.28073563,-1.01057474,-0.06572302,0.80290818,-0.06253516,-0.59281172,0.00144245
1757984162363,-8.04613141,1.39200303,2.46059140,-0.08815628,-0.65847500,0.00843464,0.79738240,-0.06351369,-0.60012079,0.00153608
1757984162386,-4.10728969,0.03665328,0.65871861,-0.05653746,-0.47706010,0.08515887,0.79307658,-0.06417801,-0.60572625,0.00253669
1757984162430,-5.49082157,0.55406094,2.78882870,-0.03148532,-0.14013828,0.01664782,0.79067113,-0.06486596,-0.60878827,0.00290045
1757984162441,110.76629251,-22.04947401,-70.48897121,-0.34084325,-1.65497272,-0.11640624,0.78308943,-0.06682581,-0.61830436,0.00223111
1757984162464,-44.49577822,9.38772233,27.03222629,-0.08792416,-0.43775981,-0.00311607,0.77903664,-0.06782815,-0.62329482,0.00219559
1757984162478,4.23282047,-1.73097147,-4.05878125,0.04839860,-0.45138402,0.03838844,0.77665279,-0.06750630,-0.62629653,0.00245087
1757984162519,-7.46808595,1.35350336,5.43825149,-0.01232344,-0.11587186,-0.01475940,0.77466733,-0.06776447,-0.62872404,0.00214166
1757984162542,24.43591746,-3.49204642,-20.44152108,-0.14080677,-0.76557631,-0.14480952,0.76755561,-0.06932743,-0.63722194,0.00053428
1757984162576,-11.40393375,2.08792533,9.19532939,-0.00134580,-0.31043191,-0.01831301,0.76305011,-0.06935078,-0.64260793,0.00021655
1757984162609,4.41967715,-0.34498924,-4.34334720,0.11821771,-0.50373393,0.05642767,0.75621137,-0.06741792,-0.65084398,0.00113914
1757984162619,89.92087059,-12.50974409,-83.44394034,0.46088039,-1.59652010,-0.01285374,0.74940271,-0.06509047,-0.65890641,0.00107423
1757984162673,-21.21188098,3.16855267,19.53164391,-0.04755363,-0.21184883,-0.07611699,0.74424063,-0.06636966,-0.66460514,-0.00097332
1757984162705,12.38163760,2.38981173,-10.15563278,0.10384080,-0.64090574,0.03679046,0.73504558,-0.06469783,-0.67492373,-0.00038099
1757984162740,-4.47953804,-1.06090512,4.24753848,-0.10590190,-0.44138592,-0.07068197,0.72783592,-0.06651934,-0.68251556,-0.00159672
1757984162773,0.95104852,0.80114310,0.71190409,-0.02332533,-0.53559325,-0.08773162,0.71932896,-0.06690771,-0.69143319,-0.00305745
1757984162805,0.54207274,0.32813085,0.67194784,0.23181719,-0.57978929,0.01030591,0.71063585,-0.06319863,-0.70070982,-0.00289256
1757984162840,-1.59642113,-0.74755918,1.70824395,0.13787808,-0.56379096,-0.12722059,0.70108312,-0.06081334,-0.71046340,-0.00509348
1757984162875,-0.79973084,-0.73204015,1.27618462,0.10660149,-0.55861869,-0.18897719,0.69107940,-0.05893182,-0.72032302,-0.00842892
1757984162898,-1759.31806533,-111.50833480,4720.44333852,0.83700525,58.24367990,3.33522283,0.99719650,-0.04926441,-0.04760852,0.03009290
1757984162946,838.85837412,53.16593080,-2277.93908006,0.05426456,-0.67042934,-0.16623623,0.99647594,-0.04796478,-0.06366530,0.02611154
1757984162969,-0.99373390,-2.24702096,-14.88168910,-0.19161619,-1.79866448,-0.20662165,0.99485785,-0.05020669,-0.08470968,0.02369407
1757984163024,1.85706763,0.69813700,7.40663831,-0.09656607,-0.74172717,-0.10483229,0.99286124,-0.05283328,-0.10488466,0.02084263
1757984163056,1.93181345,0.26064168,-5.52829024,-0.29711975,-1.56833070,-0.18959843,0.98964991,-0.05763177,-0.13021320,0.01778062
1757984163087,1.75173012,0.29892214,3.16176483,-0.21235257,-1.42866946,-0.06638415,0.98632692,-0.06090200,-0.15221471,0.01675830
1757984163109,4.02898932,0.72925493,-2.07135093,-0.31796326,-1.97858042,-0.12339886,0.98237258,-0.06452678,-0.17477052,0.01535155
1757984163132,-0.40342348,0.71784895,5.11583030,0.03734713,-1.52054939,-0.04538119,0.97918111,-0.06410289,-0.19202876,0.01483648
1757984163180,-2.31846128,-0.56219723,3.02751018,0.00656125,-0.58651953,0.01878279,0.97633710,-0.06394640,-0.20601725,0.01528445
1757984163215,3.25976047,0.07135134,-1.15802552,-0.18127555,-1.18769183,0.02470359,0.97148380,-0.06712779,-0.22686124,0.01571799
1757984163250,2.98333950,0.71362700,-0.43188876,-0.18958534,-1.57180609,-0.08012701,0.96438947,-0.07046449,-0.25452503,0.01430776
1757984163296,-2.21280323,-0.52713701,2.15596807,-0.05477565,-0.87026760,-0.00764466,0.95879249,-0.07172433,-0.27454118,0.01413193
1757984163321,11.50207908,0.44043921,1.35967966,-0.03388376,-1.79524426,-0.12085482,0.95204192,-0.07214957,-0.29707150,0.01261520
1757984163357,-4.15468942,-0.91116492,0.86603554,0.10881041,-1.07698290,-0.14235453,0.94595296,-0.07019098,-0.31645719,0.01005282
1757984163400,-0.99492597,-0.34649357,0.17821244,0.03396155,-0.80237576,-0.12220807,0.94014075,-0.06946760,-0.33354780,0.00744979
1757984163421,-37.50826794,126.32591888,238.61630220,0.60088694,24.98818930,1.83265701,0.99536386,-0.06306816,-0.06742358,0.02696759
1757984163465,22.12276923,-61.10782419,-121.81478396,-0.14021738,-1.00640487,-0.06652603,0.99346909,-0.06613191,-0.08941353,0.02551399
1757984163499,-0.02433204,1.03142651,-0.68821608,-0.01642558,-1.01272692,-0.13631991,0.99181255,-0.06641032,-0.10657925,0.02320337
1757984163535,-8.65415157,-0.85825691,4.31515645,-0.05041195,-0.31342698,-0.03161767,0.99113054,-0.06733286,-0.11231496,0.02262477
1757984163568,8.12239709,-0.34351516,-3.30746720,-0.15559562,-0.87060901,-0.09223984,0.98927072,-0.06987685,-0.12654942,0.02111665
1757984163599,2.45378875,0.60279833,-1.01642320,-0.21468970,-1.04149979,-0.06085308,0.98685000,-0.07320454,-0.14269267,0.02017342
1757984163610,94.69600195,1.95088829,-38.40853376,-0.63767101,-2.78108886,-0.16103139,0.98439066,-0.07655231,-0.15729338,0.01932801
1757984163633,-44.77937733,-0.70585986,18.18928622,-0.12534511,-0.84988519,-0.04692693,0.98266087,-0.07800631,-0.16715205,0.01878366
1757984163682,-5.19670784,-0.04772942,2.29068320,-0.07851680,-0.36185428,-0.00949174,0.98095410,-0.07993783,-0.17605367,0.01855016
1757984163713,8.45315520,0.23664054,-2.76675159,-0.11756709,-0.83156608,-0.06205345,0.97838654,-0.08178363,-0.18910925,0.01757592
1757984163749,-1.59673589,-0.13071975,0.63461534,-0.08926506,-0.73139660,-0.11424281,0.97568011,-0.08337255,-0.20212811,0.01554240
1757984163790,1.21480041,-0.33888457,-0.89685518,0.02400715,-0.72870023,-0.06402995,0.97248796,-0.08287440,-0.21724864,0.01421378
1757984163804,66.10677494,-11.50994833,-23.86096576,-1.09523401,-1.75262899,-0.34024523,0.96906330,-0.09043151,-0.22934178,0.01186609
1757984163837,-31.36577706,4.44493337,11.39337940,-0.26148316,-0.46814095,-0.12292295,0.96684015,-0.09469369,-0.23697248,0.00986244
1757984163896,-1.41400666,0.07187883,0.55041233,-0.01547800,-0.34440042,-0.03186694,0.96426641,-0.09514874,-0.24709785,0.00892555
1757984163919,24.62628611,-2.91668207,-8.17647612,-0.40185063,-1.12940130,-0.21754998,0.96030915,-0.09987049,-0.26036832,0.00636934
1757984163954,-10.49485475,1.11642132,3.66366824,-0.11711197,-0.63181469,-0.08394682,0.95709274,-0.10188481,-0.27123553,0.00492546
1757984163999,-5.24957735,0.15435356,1.87673721,-0.12783339,-0.29829999,-0.06580634,0.95486049,-0.10476107,-0.27794728,0.00344481
1757984164019,31.68887079,-2.24830753,-7.59853129,-0.29775894,-1.24213003,-0.26264963,0.95070612,-0.10782798,-0.29074122,0.00073952
1757984164075,-11.24783213,0.93272280,2.97851971,-0.07001515,-0.40735878,-0.03038173,0.94695243,-0.10977090,-0.30204543,-0.00010357
1757984164108,6.61711606,-1.18003414,-1.76542957,-0.08264228,-0.79866927,-0.06313677,0.94236242,-0.11117169,-0.31558287,-0.00117374
1757984164130,6.34246070,1.28935377,-3.00273506,-0.14467330,-1.08333663,-0.25270479,0.93814950,-0.11274139,-0.32733707,-0.00391559
1757984164179,-7.18883926,0.30358715,2.22030743,-0.09527256,-0.52688228,-0.09483696,0.93323763,-0.11508034,-0.34027203,-0.00624383
1757984164212,5.67826760,-0.26057848,-2.43889386,-0.47539355,-0.86039802,-0.15925105,0.92706776,-0.12273417,-0.35412444,-0.00880778
1757984164234,1.45064076,2.89631193,-3.56979429,-0.12211411,-0.94799879,-0.12316567,0.92280379,-0.12408353,-0.36459983,-0.01016876
1757984164278,-7.05418486,-0.50801236,3.41780399,0.08489591,-0.33544158,-0.01355546,0.92008184,-0.12220309,-0.37202986,-0.01046901
1757984164289,55.98660701,0.74169789,-29.59220389,0.21127114,-1.52868112,-0.08368700,0.91666459,-0.12099884,-0.38074334,-0.01094603
1757984164312,-23.61469221,-0.67669497,11.81215829,0.03622063,-0.52395532,-0.11506903,0.91426416,-0.12059679,-0.38655924,-0.01222329
1757984164358,-3.47620316,-0.17084250,1.78048587,0.00067589,-0.25332178,-0.02549561,0.91176730,-0.12058122,-0.39239831,-0.01281097
1757984164378,15.37544218,-0.98155920,-10.52220329,-0.09992487,-0.91533704,-0.08404552,0.90750178,-0.12161044,-0.40182628,-0.01367663
1757984164415,-7.81504927,0.25802078,4.81633434,-0.04287011,-0.33549998,-0.02797135,0.90466041,-0.12239068,-0.40793238,-0.01418571
1757984164446,4.32641144,-0.36448493,-3.71508596,0.00701485,-0.63288954,-0.03596095,0.90011977,-0.12228054,-0.41786875,-0.01475030
1757984164480,-0.75592884,-0.33606227,-0.28170058,0.01790942,-0.57303978,0.02836638,0.89564992,-0.12198056,-0.42746716,-0.01427516
1757984164515,-0.61156365,-0.28332059,-0.13538342,0.05730972,-0.53538050,0.02072428,0.89124756,-0.12097478,-0.43686309,-0.01391145
1757984164574,-1.89413824,0.29137757,1.60941099,-0.02080102,-0.31146883,-0.01281059,0.88657076,-0.12159153,-0.44609814,-0.01429129
1757984164605,11.55296490,-1.99776367,-16.03198513,-0.07481288,-1.06053227,0.11707242,0.87788785,-0.12276235,-0.46269547,-0.01245910
1757984164653,-6.63763109,1.30007054,7.85412310,0.05595399,-0.40194320,0.09526849,0.87292161,-0.12141106,-0.47240240,-0.01015837
1757984164684,6.26062286,2.90123803,-10.67335917,0.40306332,-0.70881234,0.26760779,0.86786149,-0.11526434,-0.48321179,-0.00607735
1757984164730,-3.71098285,0.14452608,5.54351116,0.11950392,-0.29328233,0.19957601,0.86443847,-0.11250380,-0.48998661,-0.00146714
1757984164762,2.47075747,1.44758215,-3.86415815,0.18782952,-0.13131186,0.41125516,0.86361665,-0.10949853,-0.49208760,0.00511294
1757984164794,0.12103708,0.18099865,0.19950229,0.27797035,0.03870744,0.34350691,0.86447648,-0.10502321,-0.49146441,0.01064340
1757984164826,-0.18688859,-0.77482724,1.01038715,0.43971570,0.13582321,0.18244158,0.86644882,-0.09814166,-0.48933878,0.01349861
1757984164845,8.47812267,-1.24198404,-10.96051083,0.46757825,0.24913931,0.12003579,0.86830067,-0.09358277,-0.48690967,0.01466896
1757984164896,-6.44414976,-1.05091973,9.56253383,0.01310011,0.04921871,-0.06490633,0.86905958,-0.09325134,-0.48566444,0.01302683
1757984164929,5.52638311,0.95446010,-5.98406519,0.25224788,-0.01576374,-0.00973422,0.86935745,-0.08902618,-0.48592848,0.01286378
1757984164970,-2.71721910,-0.61482233,3.65312214,0.05044995,-0.01538644,-0.01599022,0.86929198,-0.08800457,-0.48624005,0.01253998
1757984165006,0.32888961,0.29967014,0.15701779,0.13691183,0.00253869,0.04162394,0.86955522,-0.08551278,-0.48619385,0.01329753
1757984165028,10.34826325,3.13849160,-8.57503967,0.44971839,0.02003975,0.09473658,0.87011871,-0.08070079,-0.48597943,0.01431122
1757984165085,-5.40704264,-1.12088082,5.28684773,0.22978862,0.02598451,0.07675605,0.87107388,-0.07416330,-0.48524017,0.01649493
1757984165115,4.05280722,2.11055101,-2.09437424,0.78746871,0.07252857,0.24318441,0.87256320,-0.06203629,-0.48412323,0.02023997
1757984165145,-1.27572862,-0.78348709,2.19963846,0.69617131,0.03026128,0.23307278,0.87340637,-0.05159372,-0.48366931,0.02373606
1757984165201,-1.98688409,-0.61650645,1.31000800,0.38043138,0.07258747,0.18676727,0.87491405,-0.04109381,-0.48166589,0.02889083
1757984165224,8.69994688,3.23694665,1.36617938,1.18132588,0.24987286,0.62372029,0.87682203,-0.02697697,-0.47867991,0.03634429
1757984165282,-3.96059099,-1.72552552,0.34441434,0.29605283,0.13154244,0.20353268,0.87884141,-0.01843584,-0.47488491,0.04221621
1757984165326,0.88885628,0.28222796,1.02392691,0.42052300,0.24140953,0.25753316,0.88156383,-0.00912126,-0.46953769,0.04792057
1757984165362,0.64508330,-0.63456208,0.96432976,0.18017909,0.32127340,0.02099178,0.88461818,-0.00588704,-0.46377083,0.04829737
1757984165396,-0.12650770,1.29653835,-0.81590159,0.31269498,0.29896639,0.07876479,0.88720959,-0.00057123,-0.45868840,0.04963637
1757984165438,-0.68448855,-0.55349475,-0.33169425,0.14736691,0.21725937,-0.00707144,0.88951407,0.00246453,-0.45421286,0.04949070
1757984165470,2.12784392,0.07838132,1.16601881,0.19755276,0.30790453,-0.09349964,0.89208787,0.00563525,-0.44927099,0.04799003
1757984165491,0.72256868,-0.28905089,0.45584338,0.19328237,0.12362301,-0.12738122,0.89281629,0.00772270,-0.44793587,0.04661431
1757984165526,-3.37132573,-0.40519494,-2.08849534,0.08338744,0.06779443,0.00163556,0.89338699,0.00916114,-0.44676641,0.04664253
1757984165541,3.37649226,0.78510928,1.88965376,0.12906138,0.11138986,-0.02892984,0.89382460,0.01017427,-0.44589200,0.04641543
1757984165588,-1.97995895,-0.35217751,-1.05053886,0.04216262,0.02978582,0.00449726,0.89415331,0.01115666,-0.44519799,0.04652021
1757984165628,0.89967430,0.54337699,0.57677903,0.20402840,0.13038922,0.07476639,0.89529651,0.01519642,-0.44261629,0.04800059
1757984165636,19.47466696,15.07082750,17.10802997,1.05448999,0.49810168,0.15224025,0.89615380,0.01936165,-0.44064878,0.04860194
1757984165659,-7.79198196,-4.96279874,-5.89843092,0.27142185,0.08022279,0.08424841,0.89648095,0.02248301,-0.43972622,0.04957079
1757984165681,-0.25011011,-0.26402429,0.30457843,0.28160788,0.07127224,0.10668379,0.89672060,0.02563701,-0.43892797,0.05076565
1757984165696,-0.51116186,-0.80689049,0.09046187,0.19741409,0.04527949,0.06219103,0.89681667,0.02711762,-0.43858838,0.05123209
1757984165709,0.04542138,0.08111632,-0.43685820,0.13557294,-0.00402382,0.01244568,0.89677287,0.02798529,-0.43861413,0.05131174
1757984165723,-0.65612948,-0.26948320,-0.71443905,0.08914130,-0.00764933,0.00030339,0.89672587,0.02862265,-0.43866882,0.05131391
1757984165731,2.55314991,0.88132021,3.09005299,0.17726803,-0.03765094,0.05852777,0.89662274,0.02928740,-0.43881001,0.05153339
1757984165740,-1.20678710,-0.08266943,-1.47568062,0.10748594,-0.03108827,0.01888815,0.89652747,0.02980333,-0.43895924,0.05162405
1757984165759,-0.82446561,-0.63125926,-1.17946301,0.05263671,-0.02120327,0.00138878,0.89641436,0.03029022,-0.43915537,0.05163690
1757984165766,6.35975067,3.96083518,8.92428283,0.05072324,-0.09503635,0.09801417,0.89622818,0.03046522,-0.43948324,0.05197505
1757984165771,2.80970694,1.84579438,4.18506845,0.08002084,-0.10445237,0.14278947,0.89606936,0.03066927,-0.43974960,0.05233916
1757984165781,-3.19452504,-2.14218429,-4.84254714,0.09552056,-0.06916714,0.07485444,0.89584863,0.03117553,-0.44011618,0.05273589
1757984165792,-0.30478021,0.03792616,-1.14684802,0.16548909,-0.06839700,0.04948157,0.89561550,0.03208572,-0.44049236,0.05300804
1757984165803,-0.04334883,0.06628554,-0.05812684,0.14215584,-0.08068974,0.03261825,0.89535810,0.03286758,-0.44093616,0.05318744
1757984165836,-0.82821407,-0.52520413,-0.86174914,0.02898144,-0.02660085,-0.00815789,0.89513554,0.03333853,-0.44136842,0.05305487
1757984165838,187.42818099,115.56393539,228.04370293,0.29539556,-0.96876855,-0.33242969,0.89466581,0.03363392,-0.44233719,0.05272244
1757984165857,-19.12962438,-11.95566963,-23.36843560,0.03131798,-0.03878259,-0.01667201,0.89447970,0.03393457,-0.44270950,0.05256239
1757984165867,1.66507805,0.69141039,1.86990989,0.10804829,-0.07135501,-0.00918982,0.89427532,0.03450183,-0.44308412,0.05251414
1757984165880,-0.24669954,-0.01004999,-0.64447094,0.10912003,-0.05508545,0.01239338,0.89408000,0.03516200,-0.44341738,0.05258912
1757984165882,102.30669305,34.92814481,76.35133326,0.82813923,-0.43011408,0.08898293,0.89382835,0.03599014,-0.44384750,0.05267811
1757984165893,-17.26344536,-6.19215827,-13.46671352,0.15165212,-0.08058017,-0.02529958,0.89356666,0.03687731,-0.44431889,0.05253010
1757984165904,-0.10896386,0.26392387,0.29976853,0.10644394,-0.08761858,-0.02801286,0.89331621,0.03745211,-0.44479203,0.05237883
1757984165925,-0.80995639,-0.43380813,-0.94984484,0.05663127,-0.05205869,-0.00905469,0.89302427,0.03804673,-0.44533865,0.05228376
1757984165935,2.28053048,0.41469045,1.51134673,0.09008508,-0.10140044,0.01638554,0.89274714,0.03849716,-0.44584565,0.05236569
1757984165937,71.63532199,17.07807387,38.17021984,0.33891463,-0.42050928,-0.00268569,0.89251124,0.03885302,-0.44628719,0.05236287
1757984165948,-13.84186096,-3.92925469,-7.93588202,0.03324416,-0.07143449,0.00028392,0.89230288,0.03903919,-0.44668722,0.05236446
1757984165959,0.08614569,-0.73932345,-0.29351885,0.00563998,-0.06253657,0.01991102,0.89212446,0.03906992,-0.44702804,0.05247297
1757984165971,-0.57909591,0.40798861,-0.22177321,-0.07160771,-0.04799238,0.00386634,0.89200488,0.03866534,-0.44729920,0.05249482
1757984165982,-0.07117857,0.16567366,0.15281074,-0.05134313,-0.04947787,-0.03906583,0.89189319,0.03838295,-0.44757133,0.05227995
1757984165993,0.06342532,-0.23781552,-0.15614594,0.00430229,-0.03847727,-0.03781831,0.89179379,0.03840769,-0.44779257,0.05206250
1757984166004,0.61150982,0.32460892,-0.59930189,0.01088508,-0.07803124,-0.04517536,0.89159005,0.03846756,-0.44822174,0.05181403
1757984166015,-0.21221008,-0.25130669,-0.06559558,-0.01269960,-0.09396749,-0.06064732,0.89135671,0.03839898,-0.44872917,0.05148654
1757984166026,-0.08202499,-0.19809239,0.07310222,-0.02309958,-0.06532798,-0.02768078,0.89118847,0.03827078,-0.44909174,0.05133291
1757984166037,-0.36379103,-0.54816584,-0.00290259,-0.06862998,-0.05448124,-0.01896556,0.89105837,0.03788988,-0.44939411,0.05122765
1757984166048,-0.19252008,0.27604663,-0.58343087,-0.07433810,-0.04252729,-0.02310026,0.89096241,0.03746987,-0.44963439,0.05109714
1757984166059,0.08341213,-0.26685955,0.06496983,-0.06216985,-0.00114954,-0.03372832,0.89098395,0.03713105,-0.44964065,0.05091332
1757984166071,0.05023667,0.11212168,0.01748954,-0.01739740,-0.00247702,-0.03353890,0.89099172,0.03703362,-0.44965453,0.05072550
1757984166081,-0.11917410,0.65296653,0.10974433,-0.00309104,-0.00950696,-0.04669965,0.89098062,0.03701662,-0.44970681,0.05046865
1757984166093,-0.13865441,0.15389373,-0.22790674,0.01507421,-0.00265280,-0.02907862,0.89097876,0.03710405,-0.44972220,0.05029999
1757984166104,0.60559515,-0.21593396,-0.38689405,0.02123034,0.01074190,-0.01210676,0.89100668,0.03721763,-0.44966473,0.05023522
1757984166124,-0.86791635,-0.11941936,0.01630028,0.00178638,0.01363405,-0.01632659,0.89108430,0.03723559,-0.44952771,0.05007114
1757984166126,52.25772724,-4.07669642,-5.22247658,-0.13490812,0.23987746,-0.23245329,0.89124486,0.03708044,-0.44925185,0.04980382
1757984166137,-9.36067742,0.70724666,0.98160227,-0.03240755,0.02453974,-0.04901989,0.89133776,0.03689734,-0.44911320,0.04952686
1757984166148,-0.01653333,0.07949599,0.30621030,-0.05628750,0.03094765,-0.05106076,0.89144975,0.03659339,-0.44894608,0.04925113
1757984166159,-0.12180000,0.16224683,-0.11880791,-0.03479380,0.01171227,-0.06328851,0.89150919,0.03640202,-0.44888167,0.04890304
1757984166170,-0.27310732,-0.37110138,-0.12297259,-0.00909694,0.01023838,-0.05205411,0.89155608,0.03635108,-0.44882433,0.04861154
1757984166182,0.15686069,0.02196270,0.01552366,-0.02078595,-0.02011352,-0.05728995,0.89152185,0.03623572,-0.44893596,0.04829358
1757984166193,-0.00803237,0.07949319,0.01782492,-0.01476037,-0.01484649,-0.06519527,0.89150270,0.03615158,-0.44902059,0.04792197
1757984166204,0.25945653,0.13923885,0.01873982,-0.01365468,-0.02817219,-0.04987666,0.89144129,0.03607512,-0.44917835,0.04764266
1757984166215,0.14568905,-0.14444653,-0.09852641,-0.01657740,-0.02723166,-0.03843153,0.89137911,0.03598145,-0.44933221,0.04742552
1757984166226,-0.13867572,0.01853919,-0.13982118,-0.03467847,-0.02011858,-0.03934301,0.89134382,0.03579766,-0.44943884,0.04721700
1757984166237,-0.11647808,-0.06451872,-0.05051089,-0.02607247,-0.02984929,0.00951527,0.89126255,0.03565165,-0.44960599,0.04727029
1757984166248,-0.02167442,-0.05057236,0.23523427,0.03141785,-0.00896881,0.01932295,0.89122509,0.03582445,-0.44965532,0.04737656
1757984166259,-0.03940803,0.23690999,0.12315009,0.03419072,-0.00944323,-0.00974742,0.89119415,0.03601250,-0.44970726,0.04732295
1757984166270,0.29567332,-0.04509366,0.12603093,0.01671076,-0.01624405,-0.01022024,0.89114750,0.03610608,-0.44979823,0.04726572
1757984166282,-0.11105855,0.35080956,-0.01898776,-0.01262898,-0.02182370,-0.01415592,0.89109335,0.03603599,-0.44991935,0.04718715
1757984166294,-0.18503000,0.02795404,-0.15775663,0.00305610,-0.01387769,-0.00629331,0.89105086,0.03605509,-0.45000608,0.04714782
1757984166332,-0.52432274,-0.07079290,0.05228037,0.01353275,0.00339487,-0.00751206,0.89108053,0.03631221,-0.44994158,0.04700509
1757984166359,0.75624693,-0.20034362,-0.15354294,-0.05880774,0.00093151,-0.08450505,0.89117725,0.03552713,-0.44992914,0.04587695
1757984166381,0.01891468,0.22764137,0.07576800,-0.08858335,-0.00908147,-0.04693187,0.89119192,0.03452614,-0.45003177,0.04534662
1757984166394,1.09113251,-1.02321957,-0.50080639,-0.00845253,0.01616175,-0.03141856,0.89125393,0.03447415,-0.44993237,0.04515340
1757984166415,-1.00621250,0.21291663,0.38166406,-0.04174923,0.00866924,-0.04084477,0.89133795,0.03403787,-0.44984178,0.04472657
1757984166428,0.03722654,0.89788408,0.22630899,0.02731706,0.00997453,-0.05988762,0.89138331,0.03421543,-0.44977694,0.04433730
1757984166442,-0.07523499,0.08451669,-0.27215438,0.06839775,-0.01308836,-0.00458363,0.89131790,0.03471132,-0.44987183,0.04430407
1757984166450,3.33312188,0.26330477,-0.08454038,0.10688233,-0.02732658,-0.02693844,0.89125633,0.03510678,-0.44997294,0.04420439
1757984166481,-1.23727507,-0.15946795,0.10632843,0.01096660,-0.00759071,-0.01725287,0.89120206,0.03528115,-0.45009363,0.04393007
1757984166493,2.50494746,-0.31310305,0.23069941,-0.04961483,-0.00895843,-0.07506723,0.89120868,0.03498594,-0.45014694,0.04348342
1757984166506,-1.55465539,0.09868804,-0.16192722,-0.05678301,0.01687171,-0.02710176,0.89128645,0.03461969,-0.45003811,0.04330862
1757984166515,0.49470315,0.05920035,-0.43662156,-0.01652790,0.04032620,-0.04065871,0.89138981,0.03454532,-0.44985665,0.04312565
1757984166533,-0.65641338,0.12831623,0.02930224,0.00548668,0.01086437,-0.03688322,0.89145147,0.03459333,-0.44976158,0.04280292
1757984166542,1.51058052,0.33140267,-0.20946236,0.00619981,-0.00341120,-0.04203162,0.89145172,0.03462247,-0.44977762,0.04260538
1757984166557,-0.67598275,-0.10118856,0.21265680,-0.00646968,-0.00007802,-0.01710501,0.89145917,0.03457556,-0.44977818,0.04248137
1757984166561,5.90995536,0.47798138,-0.85492510,-0.04533832,0.02163822,-0.02767389,0.89149135,0.03447128,-0.44972841,0.04241772
1757984166573,-2.32318696,-0.56923158,0.10645131,-0.01990749,-0.00900783,-0.01311846,0.89147180,0.03434786,-0.44978426,0.04233638
1757984166586,-0.14203176,-0.07288279,0.14264612,-0.05634479,-0.00656046,-0.01775485,0.89146979,0.03398161,-0.44982691,0.04222097
1757984166637,-0.15231840,0.05817258,0.04951239,-0.00420202,-0.00171841,-0.00686159,0.89146020,0.03387635,-0.44986995,0.04204909
1757984166648,5.11498713,-0.63472318,-1.26593749,-0.13907689,-0.02181360,-0.01672211,0.89143196,0.03309057,-0.44999320,0.04195461
1757984166677,-1.77337043,0.06546577,0.35523149,-0.09525908,0.00136676,-0.01893943,0.89150579,0.03169502,-0.44997318,0.04167715
1757984166698,0.39396466,-0.37258883,-0.06097410,-0.16891556,-0.01715680,-0.04018399,0.89149588,0.02993830,-0.45015161,0.04125924
1757984166713,-0.14775028,-0.13604934,0.12190418,-0.15906494,-0.01961637,-0.04637112,0.89147701,0.02875327,-0.45029775,0.04091377
1757984166722,0.68539507,-1.27469351,-0.01439354,-0.31198435,-0.05822661,-0.10377811,0.89140783,0.02730254,-0.45056850,0.04043120
1757984166741,-0.49819957,0.33896972,0.34851847,-0.16458649,-0.02795083,-0.06809434,0.89134983,0.02575543,-0.45083124,0.03979112
1757984166754,0.21864802,-0.18206153,0.12241125,-0.24715592,-0.03424383,-0.06497147,0.89129939,0.02409948,-0.45106067,0.03935581
1757984166756,41.65204129,-74.37593083,11.41963427,-1.72623383,-0.17251630,-0.36002929,0.89127148,0.02228694,-0.45124182,0.03897778
1757984166767,-7.53132128,13.20361517,-2.36023892,-0.40432054,-0.02621386,-0.09452963,0.89127390,0.02008339,-0.45138468,0.03846259
1757984166777,0.33610458,-0.39729503,0.08317309,-0.49422921,-0.02586488,-0.12439098,0.89128727,0.01761224,-0.45151400,0.03784063
1757984166792,-0.52935567,0.98422414,-0.47506631,-0.30809719,-0.04521956,-0.10201298,0.89119222,0.01534773,-0.45184637,0.03709084
1757984166795,30.84537447,-42.66004384,-3.00851529,-1.70481586,-0.21225039,-0.60711870,0.89111729,0.01304623,-0.45213291,0.03627123
1757984166805,-6.37336359,8.89534424,0.30252014,-0.46700767,-0.08597384,-0.23247257,0.89096517,0.01052439,-0.45259717,0.03501588
1757984166819,-0.08307040,0.26854795,-0.13016542,-0.38001801,-0.09253419,-0.19503732,0.89072500,0.00795927,-0.45322177,0.03369938
1757984166833,-0.20628890,-0.10846319,0.18899963,-0.39389278,-0.07746860,-0.22905454,0.89052559,0.00516263,-0.45377180,0.03207309
1757984166842,1.61404674,-2.97789269,-0.30022171,-0.76717446,-0.11585837,-0.37810828,0.89033720,0.00178706,-0.45428158,0.03040941
1757984166850,1.00864825,-1.54750387,-0.64036734,-0.85033558,-0.11177337,-0.34667330,0.89015319,-0.00165680,-0.45473426,0.02900538
1757984166861,-0.68212515,2.18391543,0.17240848,-0.58180292,-0.06285119,-0.17498786,0.88999267,-0.00491490,-0.45508622,0.02802545
1757984166874,-0.92732332,1.22226641,-0.77751815,-0.39930595,-0.07268870,-0.12368151,0.88975775,-0.00751038,-0.45555870,0.02722152
1757984166883,1.17614516,-0.33065202,0.00004334,-0.42940129,-0.06876953,-0.13912183,0.88959620,-0.00948563,-0.45587504,0.02658156
1757984166899,-1.02763336,1.64614572,0.76958311,-0.19173676,-0.06361181,-0.03427412,0.88932910,-0.01100035,-0.45637757,0.02631080
1757984166911,0.91760554,-0.36916166,0.75304307,-0.18594919,-0.06748849,-0.06051756,0.88911735,-0.01211605,-0.45678250,0.02594769
1757984166917,7.60205010,-8.25896572,0.30789014,-0.37623907,-0.17422212,-0.14178881,0.88887675,-0.01311308,-0.45724419,0.02557195
1757984166928,-4.24491654,3.18425163,0.27808461,-0.20614670,-0.06554170,-0.11952566,0.88868738,-0.01427781,-0.45761450,0.02489663
1757984166939,-0.34765227,0.14560877,-0.81761107,-0.22050083,-0.06250041,-0.08792280,0.88850003,-0.01551261,-0.45796451,0.02440426
1757984166951,-0.04409001,0.66975352,0.33183258,-0.19689357,-0.05378325,-0.05517071,0.88832274,-0.01668413,-0.45828452,0.02407600
1757984166961,0.68748149,0.09447755,0.64263150,-0.16763729,-0.05026162,-0.01892632,0.88817659,-0.01753908,-0.45854085,0.02397947
1757984166972,0.72063862,0.28921657,1.10389406,-0.07214215,-0.04714057,-0.01798073,0.88803616,-0.01793947,-0.45880248,0.02387968
1757984166987,-0.67209358,0.43206855,-0.06615902,-0.06962053,-0.04248632,-0.03076541,0.88787371,-0.01844074,-0.45910838,0.02365817
1757984166995,2.46556579,-0.73993252,1.79561768,-0.11124372,-0.11033592,-0.09695365,0.88765195,-0.01887459,-0.45953869,0.02328005
1757984167013,-1.37583408,0.53024913,-0.76651696,-0.03902192,-0.04262462,-0.03933543,0.88745163,-0.01923164,-0.45992871,0.02292013
1757984167026,0.72506019,-0.26384616,0.32329703,-0.04463640,-0.08241484,-0.03942191,0.88716977,-0.01952624,-0.46047265,0.02265995
1757984167028,81.15741896,-11.89014406,64.05564100,-0.35490422,-0.44077426,-0.37129355,0.88693099,-0.01989889,-0.46093546,0.02227009
1757984167039,-14.87162178,2.39580970,-11.28145371,-0.02788414,-0.10923686,-0.05070861,0.88662481,-0.02005086,-0.46153080,0.02199373
1757984167053,-0.64564313,0.23356634,-0.23704353,-0.03681511,-0.08073421,-0.00937310,0.88632189,-0.02031224,-0.46210401,0.02192718
1757984167061,3.47398615,-0.38954169,3.09336526,-0.04881499,-0.14768876,-0.00357312,0.88601340,-0.02050506,-0.46268738,0.02191306
1757984167073,-1.75869999,0.51211593,-1.59643714,-0.03131475,-0.11560264,-0.02103228,0.88565869,-0.02068825,-0.46336366,0.02179002
1757984167084,0.18576410,-0.43255006,0.11631828,-0.00771384,-0.13872231,-0.04449623,0.88524613,-0.02073261,-0.46416131,0.02153417
1757984167095,0.39742408,-0.25131403,0.89299860,-0.02988856,-0.15447375,-0.06590597,0.88483714,-0.02088504,-0.46494913,0.02119805
1757984167106,-0.49975397,0.18551248,-0.49387261,-0.04006319,-0.16223803,-0.08470699,0.88435662,-0.02111340,-0.46587388,0.02071522
1757984167119,-0.42273324,0.02771635,-0.07687409,-0.05906070,-0.12558939,-0.05561844,0.88392524,-0.02149729,-0.46669022,0.02035370
1757984167128,1.62340795,-0.81563103,1.48337556,-0.08903681,-0.18657199,-0.09629441,0.88348643,-0.02189351,-0.46752046,0.01992519
1757984167142,-1.16419629,0.62987854,-0.96027262,-0.08390424,-0.10129539,-0.05347672,0.88309899,-0.02248923,-0.46823966,0.01954551
1757984167152,0.85699570,-0.17357521,1.00070515,-0.07717371,-0.13927326,-0.03189490,0.88271548,-0.02288281,-0.46894995,0.01938284
1757984167161,0.78762971,-0.08121782,0.52843392,-0.02116814,-0.14655664,-0.00438332,0.88236276,-0.02297807,-0.46960946,0.01936312
1757984167174,-1.16811288,0.64968753,-1.29229415,0.02838165,-0.11394586,-0.01620899,0.88199615,-0.02280352,-0.47031022,0.01926343
1757984167185,0.18803118,-0.02052589,0.15229593,0.02430125,-0.08526762,-0.02060829,0.88173405,-0.02266015,-0.47081330,0.01914184
1757984167195,0.47442517,-0.26660903,0.95238334,0.01469020,-0.11805860,-0.03958506,0.88144953,-0.02259257,-0.47135637,0.01895975
1757984167209,-0.79834947,-0.10127730,-1.06636808,-0.02819549,-0.05741549,-0.03026233,0.88123086,-0.02279276,-0.47176402,0.01874489
1757984167222,-0.01971091,-0.05461513,0.24461798,-0.01698129,-0.05471509,-0.05196566,0.88104463,-0.02290314,-0.47211967,0.01840711
1757984167228,4.27280051,-0.47543346,5.44358045,-0.05103062,-0.09403527,-0.11706029,0.88088680,-0.02306644,-0.47242058,0.01803252
1757984167242,-2.30273712,0.69411046,-2.78294210,-0.03245233,-0.04233386,-0.06259215,0.88073405,-0.02328873,-0.47271057,0.01760376
1757984167254,0.42051886,-0.10062065,0.13710635,-0.00587232,-0.04279401,-0.03585915,0.88059392,-0.02332544,-0.47297803,0.01737964
1757984167268,-0.26299957,0.06991159,-0.06200845,0.02476851,-0.03020387,-0.03095331,0.88049290,-0.02315825,-0.47318191,0.01717071
1757984167277,1.88590108,0.09233903,2.64300545,0.03310777,-0.05843516,-0.00811804,0.88036071,-0.02301423,-0.47343610,0.01713540
1757984167286,-0.67674530,-0.51989808,-0.40991264,0.04197292,-0.04349247,-0.02773409,0.88025733,-0.02281486,-0.47364269,0.01700366
1757984167300,-0.92968723,0.07627272,-1.07052997,-0.00079987,-0.02828737,-0.04594582,0.88015820,-0.02282038,-0.47383787,0.01668663
1757984167309,0.97369276,-0.41167157,1.54973954,-0.01017014,-0.04509968,-0.05322424,0.88004988,-0.02286716,-0.47404533,0.01644180
1757984167320,-0.17943071,0.69333360,-1.06364600,-0.04051264,-0.03134194,-0.04798243,0.87995351,-0.02309606,-0.47422241,0.01617070
1757984167333,-0.29404902,0.63478672,-0.56733663,0.01004529,-0.04418738,-0.00358884,0.87980668,-0.02303327,-0.47449859,0.01614827
1757984167342,1.81097733,-1.79027504,1.95368505,0.17606821,-0.03012228,0.04738178,0.87974684,-0.02219695,-0.47464167,0.01637333
1757984167354,-0.73996644,-0.02327385,-0.83118918,0.11283471,-0.04576303,-0.00465777,0.87962582,-0.02157072,-0.47489565,0.01634748
1757984167366,-0.56965209,0.11112541,-0.01613372,-0.00705385,-0.04177875,-0.07458106,0.87949119,-0.02161516,-0.47515886,0.01587762
1757984167375,0.38209714,0.75633793,1.74731503,-0.06026254,-0.05308059,-0.13332756,0.87936741,-0.02188333,-0.47539507,0.01528431
1757984167389,-0.68989314,0.01395135,-1.63892738,-0.04757927,-0.03501365,-0.05482244,0.87923214,-0.02221876,-0.47564191,0.01489782
1757984167409,-0.24864437,-0.05411219,-0.49235339,-0.01018854,-0.02324636,-0.01426617,0.87910617,-0.02232064,-0.47587438,0.01475515
1757984167411,136.45122084,17.98118867,184.77771021,0.37948437,-0.30045890,-0.04120224,0.87896896,-0.02197911,-0.47614479,0.01471807
1757984167438,-9.20886657,-1.16551883,-12.68213199,0.02429984,-0.01514755,0.00444345,0.87886414,-0.02164742,-0.47635155,0.01477873
1757984167439,368.33621520,-0.17996648,517.58127450,0.99619752,-0.65255860,-0.03434338,0.87865020,-0.02099989,-0.47677572,0.01475640
1757984167451,-41.75722651,-0.01944943,-58.16012348,0.04191786,-0.04034372,-0.03216216,0.87853717,-0.02076724,-0.47699962,0.01457790
1757984167461,-0.00918038,0.23454000,0.36869981,-0.01113383,-0.00697555,-0.02157072,0.87851852,-0.02082347,-0.47703485,0.01446897
1757984167471,-0.04053521,-0.02184913,-0.60431908,-0.01677369,-0.02621510,-0.00073448,0.87844613,-0.02090650,-0.47716461,0.01446533
1757984167481,0.24572794,0.33572183,0.20674004,0.00898032,-0.00039068,0.00232729,0.87844593,-0.02085845,-0.47716671,0.01447779
1757984167493,0.05112897,-0.05555463,-0.32719051,0.03203972,-0.00560441,0.00446580,0.87843259,-0.02067743,-0.47719837,0.01450302
1757984167496,29.99341792,2.32396880,33.63299357,0.24117772,0.01195850,0.05342331,0.87845169,-0.02026743,-0.47717804,0.01459384
1757984167521,-4.47288962,-0.43331367,-5.05577536,0.02600368,0.00376187,0.00878179,0.87848284,-0.01994238,-0.47713102,0.01470361
1757984167523,100.01105030,1.66333719,115.92407075,0.13668789,0.09994198,-0.04982934,0.87854976,-0.01978519,-0.47701608,0.01464631
1757984167539,-14.74898832,-0.35417808,-17.07107237,0.00407721,0.01411489,-0.00366467,0.87860994,-0.01975380,-0.47690740,0.01461809
1757984167549,1.65748512,-0.18606293,2.02756444,-0.01128288,0.01647316,0.00436680,0.87865387,-0.01981134,-0.47682339,0.01464036
1757984167560,0.53561297,-0.00579107,0.23676240,0.01448091,0.03083133,-0.00171171,0.87874953,-0.01973025,-0.47665073,0.01463077
1757984167571,0.47380128,0.38264186,0.15725888,0.03431247,0.05280371,-0.02162896,0.87891170,-0.01954324,-0.47636295,0.01451289
1757984167582,0.19450756,0.05918477,-0.47823526,0.04921023,0.03481397,0.01383517,0.87901721,-0.01927997,-0.47617670,0.01458691
1757984167585,35.77223170,-4.63224633,29.11236725,0.21344080,0.12773253,0.10443620,0.87913973,-0.01891712,-0.47595955,0.01476445
1757984167601,-8.43865535,0.69789850,-6.93396665,0.02346896,0.02669580,0.01396956,0.87925672,-0.01873054,-0.47574732,0.01487551
1757984167609,5.49515463,0.72805959,3.82158554,0.00840746,0.04167998,0.02204208,0.87934613,-0.01869691,-0.47558060,0.01496368
1757984167619,-0.84853835,-0.38245667,-0.38675757,-0.01667562,0.04724856,0.07026787,0.87946124,-0.01877695,-0.47535381,0.01530097
1757984167637,-1.81712321,-0.03528016,-1.56736263,-0.01244741,0.02472561,0.01903456,0.87958182,-0.01889458,-0.47512015,0.01548084
1757984167640,70.09884668,-6.01888978,48.52385748,-0.00044482,0.12453088,0.13582423,0.87967907,-0.01889525,-0.47493335,0.01568458
1757984167659,-11.00842202,0.76738916,-7.70072197,-0.00742433,0.02616848,0.02132563,0.87980809,-0.01896578,-0.47468475,0.01588717
1757984167670,3.32177709,-0.53223995,2.08560771,-0.04677409,0.05139242,0.04065899,0.87994700,-0.01921602,-0.47440980,0.01610470
1757984167681,-0.09325660,-0.24847638,-0.70031266,-0.06049543,0.07374972,0.04876374,0.88015704,-0.01955480,-0.47399680,0.01637778
1757984167685,40.85900576,-4.85194231,22.67734996,-0.22043229,0.26708448,0.16661452,0.88040801,-0.01996259,-0.47350270,0.01668601
1757984167704,-9.38412814,1.23111236,-5.42218862,-0.03601316,0.06525050,0.03332752,0.88072724,-0.02030472,-0.47288282,0.01700262
1757984167715,3.63953260,-0.35602731,2.26558827,-0.06653701,0.14290597,0.05496211,0.88111592,-0.02065404,-0.47213256,0.01729118
1757984167718,42.71249504,-5.72328496,16.82052353,-0.14561801,0.36562395,0.21688559,0.88147310,-0.02093071,-0.47143788,0.01770326
1757984167737,-10.36295270,1.32784413,-4.61250791,-0.03733650,0.10450390,0.03829514,0.88198749,-0.02128541,-0.47044509,0.01806706
1757984167748,4.01205340,-0.38624994,1.88469773,-0.10433531,0.20122843,0.07580146,0.88253370,-0.02183839,-0.46937858,0.01846881
1757984167752,43.46313498,-10.13739243,19.17563634,-0.36595850,0.65158558,0.23585140,0.88316408,-0.02253371,-0.46814057,0.01891693
1757984167771,-10.77465372,2.01173511,-4.93606851,-0.09097085,0.14066488,0.02096428,0.88385867,-0.02341613,-0.46677612,0.01912028
1757984167781,4.76828966,-1.10834772,1.28601853,-0.19158078,0.30729634,0.05595892,0.88464419,-0.02438361,-0.46522427,0.01940287
1757984167785,44.52979133,-9.71801301,17.67059233,-0.41917051,0.94504855,0.22002244,0.88555460,-0.02518003,-0.46342868,0.01982092
1757984167805,-11.00810895,2.59241868,-4.44484535,-0.04147588,0.18488418,0.05730033,0.88647137,-0.02558442,-0.46162606,0.02037959
1757984167816,3.24901559,-0.65431984,1.22336357,0.01170730,0.33305807,0.09601635,0.88746363,-0.02551652,-0.45969432,0.02093649
1757984167818,181.33044273,-21.97818429,54.76144888,-0.02487845,1.80708980,0.63801454,0.88847287,-0.02554389,-0.45770652,0.02163830
1757984167838,-22.50155302,2.79963231,-6.79568562,-0.03719155,0.23274553,0.10591649,0.88958473,-0.02590093,-0.45547216,0.02265510
1757984167849,3.93442940,-0.72363642,1.39434669,-0.11834411,0.43854832,0.17857803,0.89081384,-0.02657549,-0.45297244,0.02367300
1757984167852,114.82003587,-7.84489217,42.78948729,-0.66125570,2.01625925,0.69365157,0.89218923,-0.02750124,-0.45014968,0.02464411
1757984167872,-18.22399829,1.72018294,-6.99173247,-0.01141827,0.28853421,0.06788589,0.89360245,-0.02761429,-0.44729319,0.02531618
1757984167882,5.87375524,0.08772153,1.93552462,0.02296691,0.54211836,-0.00127019,0.89499833,-0.02749601,-0.44450128,0.02530964
1757984167885,79.59571754,-6.61386074,33.14791319,0.13949425,1.56117274,-0.31468530,0.89629460,-0.02726584,-0.44192534,0.02479041
1757984167896,-23.92059124,0.83821012,-8.81893939,0.05624973,0.37839514,-0.12679269,0.89736513,-0.02695084,-0.43980633,0.02408037
1757984167907,0.44731632,-0.09854536,0.44875894,0.01729278,0.38828071,-0.08991563,0.89842460,-0.02685573,-0.43767079,0.02358583
1757984167918,0.00082680,0.25025023,0.08718319,-0.03929276,0.40473451,-0.04534940,0.89951544,-0.02707381,-0.43542451,0.02333414
1757984167930,0.53407619,0.06418952,-0.26510304,-0.03519462,0.43542512,-0.01201925,0.90067707,-0.02726914,-0.43300790,0.02326744
1757984167941,-0.07076345,0.25214427,0.25064424,-0.02352725,0.42897216,0.01473759,0.90185246,-0.02740442,-0.43054131,0.02335218
1757984167952,1.14695374,-0.06965904,0.14599717,-0.03800344,0.43207619,0.01210136,0.90294451,-0.02760774,-0.42822970,0.02341692
1757984167978,-3.16545724,0.42790554,-1.24321900,-0.03099943,0.16179773,-0.02325297,0.90395721,-0.02802003,-0.42607779,0.02310766
1757984167980,482.31887926,-22.66206039,132.16666643,-0.47129128,2.63833306,-0.33540061,0.90525124,-0.02851488,-0.42330754,0.02275549
1757984167994,-74.94862602,3.39900536,-20.93143231,-0.00540435,0.20587224,-0.01284796,0.90589118,-0.02855082,-0.42193849,0.02267005
1757984168005,5.46902868,-0.26144366,0.79280663,-0.09324543,0.34962908,0.02403939,0.90677267,-0.02906834,-0.41999805,0.02280346
1757984168016,4.78528941,-0.68929745,-0.47670253,-0.12756890,0.54950129,0.01434732,0.90822838,-0.02981461,-0.41678347,0.02288740
1757984168027,-5.00876608,-0.33190013,-1.56288883,-0.16930999,0.43518431,0.04521954,0.90921862,-0.03068656,-0.41454227,0.02312028
1757984168038,-0.86732759,0.22470873,-0.19906167,-0.18236235,0.44696786,0.03908948,0.91031509,-0.03170779,-0.41203925,0.02333918
1757984168049,-0.20146978,0.32747749,-1.27154041,-0.20670414,0.45266200,0.03307080,0.91141246,-0.03286533,-0.40950434,0.02352437
1757984168062,-1.33417941,0.37648601,-0.99595580,-0.14432341,0.43515768,0.00590785,0.91261455,-0.03378179,-0.40674109,0.02356189
1757984168074,-0.03792714,-0.36877126,-0.59952510,-0.13732638,0.46778922,0.01105158,0.91384789,-0.03461948,-0.40388758,0.02362930
1757984168085,0.32756541,-1.10530977,-1.58484998,-0.11346300,0.54962945,0.05348852,0.91518175,-0.03526054,-0.40078217,0.02393151
1757984168095,0.82835222,-0.93059081,-1.16781754,-0.08346664,0.66462392,0.07897193,0.91658916,-0.03567370,-0.39749228,0.02432243
1757984168108,-2.76952300,0.97830797,0.06597801,-0.10368088,0.55815342,0.05667530,0.91811772,-0.03634763,-0.39386428,0.02469082
1757984168119,1.50387104,-0.50970402,-2.02746734,-0.14807668,0.76760100,0.05796066,0.91987621,-0.03716205,-0.38964248,0.02500960
1757984168136,-2.16948851,0.39916838,0.85982867,-0.09496376,0.51964942,0.02490685,0.92163223,-0.03794075,-0.38538135,0.02521383
1757984168140,43.32586173,-15.36342680,-51.73523946,-0.36562813,2.08928643,0.02469234,0.92342134,-0.03870857,-0.38099385,0.02526569
1757984168151,-13.91120579,5.01688758,14.51513943,-0.13471749,0.77783042,-0.00842792,0.92522260,-0.03948320,-0.37652133,0.02521723
1757984168163,-0.19082449,0.64422494,-1.05303359,-0.15515192,0.78979536,-0.01449740,0.92699051,-0.04035981,-0.37205898,0.02513532
1757984168174,-0.07029274,0.46791845,-1.21876377,-0.08987032,0.78418794,-0.01757747,0.92876771,-0.04087656,-0.36754990,0.02503425
1757984168186,-0.10244785,0.34908850,-0.80602307,-0.07039245,0.78873063,-0.01258226,0.93051852,-0.04127780,-0.36305414,0.02496253
1757984168201,-1.45949773,0.05225735,2.01275281,-0.02470114,0.57971392,0.00143765,0.93222798,-0.04146676,-0.35861933,0.02497353
1757984168211,3.50909528,-0.97809906,-7.78039361,-0.03163078,0.92308633,-0.00053246,0.93393116,-0.04162017,-0.35414236,0.02497094
1757984168224,-2.01799293,0.30454745,3.56930465,-0.04442725,0.63104408,0.01129441,0.93553152,-0.04192228,-0.34985126,0.02504775
1757984168233,3.59687487,-0.85816785,-8.54600567,-0.07529244,0.90794557,0.04837303,0.93706124,-0.04226862,-0.34567471,0.02527026
1757984168241,2.42152201,0.49814288,-6.85208426,-0.10177189,1.04133271,-0.00254972,0.93851299,-0.04266044,-0.34166558,0.02526045
1757984168253,-2.87355414,0.51713246,7.11753170,-0.01768294,0.66309368,0.00495607,0.93987502,-0.04276124,-0.33788594,0.02528870
1757984168264,0.05046429,0.31034975,-1.48900219,0.03388825,0.61883837,-0.01010503,0.94111270,-0.04257316,-0.33445139,0.02523261
1757984168275,0.25929786,0.60816778,-0.45667385,0.04207975,0.59577160,0.00702096,0.94229071,-0.04233961,-0.33114486,0.02527158
1757984168292,-1.82373776,0.03581601,4.13772523,0.06161366,0.34218767,0.02557332,0.94336167,-0.04179741,-0.32813361,0.02549662
1757984168301,6.37356377,-0.12720282,-17.39400296,0.15945168,0.66651587,0.02623943,0.94441610,-0.04108785,-0.32516761,0.02561339
1757984168308,7.35370968,-2.37615515,-19.41806070,0.26658057,0.84729116,0.07338133,0.94539049,-0.04022147,-0.32241391,0.02585188
1757984168319,-6.25242479,0.43191617,15.08804668,0.10495714,0.43889847,0.01716164,0.94625493,-0.03962846,-0.31993414,0.02594884
1757984168330,0.01493734,-0.66606814,-0.73099596,0.10298970,0.42023658,0.02966772,0.94707395,-0.03904657,-0.31755980,0.02611646
1757984168342,-0.51419451,-0.50253640,-0.31003955,0.06926327,0.40072296,0.04178353,0.94784636,-0.03865177,-0.31527568,0.02635463
1757984168355,-0.83916441,0.34623402,1.87306303,0.05296343,0.31898517,0.03999823,0.94854553,-0.03830486,-0.31318633,0.02661662
1757984168373,-0.94666549,0.26401428,3.15140048,0.07235774,0.22545988,0.04975185,0.94921895,-0.03766087,-0.31117974,0.02705941
1757984168374,377.61991083,-90.19150336,-1220.34859367,0.85320090,2.26376203,0.70289095,0.94982137,-0.03697831,-0.30936873,0.02762172
1757984168386,-48.72777160,11.81207509,157.24002955,0.16384923,0.31204694,0.10709030,0.95042721,-0.03602799,-0.30755885,0.02824285
1757984168413,-2.08986873,0.48956433,6.52821179,0.06807660,0.11625600,0.04435595,0.95096163,-0.03508853,-0.30595452,0.02885496
1757984168430,4.06919932,-2.32099807,-16.81591075,0.13237582,0.34192234,0.15208924,0.95185990,-0.03400305,-0.30315076,0.03010209
1757984168440,9.39502312,-5.24316961,-40.40002230,0.07298234,0.58052641,0.22850755,0.95273784,-0.03364543,-0.30030618,0.03122178
1757984168451,-8.11371789,4.83511489,33.58146879,0.04584853,0.26204256,0.13074668,0.95318787,-0.03338639,-0.29882564,0.03196050
1757984168461,1.12716544,-0.73449036,-6.39351697,0.12237050,0.26532120,0.17506325,0.95360233,-0.03276230,-0.29747250,0.03285332
1757984168474,-2.92524450,0.72750958,9.66666726,0.10334492,0.19515989,0.12068512,0.95397766,-0.03211639,-0.29625275,0.03360760
1757984168483,1.21118361,-1.98484980,-10.43421465,0.08443219,0.23053576,0.16804960,0.95430880,-0.03170690,-0.29513465,0.03442264
1757984168500,-2.41341648,1.27274509,11.52918670,0.03521322,0.13608035,0.09179175,0.95463331,-0.03141991,-0.29402560,0.03517074
1757984168506,14.58095383,-13.10469010,-85.56661186,0.02237855,0.34173948,0.22360362,0.95492574,-0.03135277,-0.29300038,0.03584156
1757984168518,-5.91163635,4.63728507,32.47318268,0.02434035,0.16140608,0.07175425,0.95522273,-0.03120065,-0.29199159,0.03629002
1757984168531,-0.55153347,0.43773036,-0.12129503,-0.00786400,0.13964551,0.04043831,0.95548192,-0.03125058,-0.29110484,0.03654680
1757984168545,-0.70521423,0.86624862,1.76685545,-0.01548502,0.10992531,0.04690000,0.95569675,-0.03135743,-0.29034636,0.03687041
1757984168555,1.80584414,-2.03501465,-12.50243651,-0.01236201,0.16888339,0.13824026,0.95593300,-0.03142171,-0.28946816,0.03758926
1757984168568,-1.16599814,1.12202569,7.11874110,-0.05133613,0.13776187,0.14232451,0.95615415,-0.03175283,-0.28857960,0.03850726
1757984168574,11.42431972,-3.86651586,-89.01128402,-0.33124359,0.31448822,0.22803375,0.95636971,-0.03271344,-0.28766758,0.03916855
1757984168585,-5.01463850,6.25995805,38.74559117,-0.18868890,0.14680351,0.09034706,0.95656407,-0.03379840,-0.28682346,0.03968805
1757984168597,-0.27369424,1.46036702,-1.70308379,0.04823501,0.12255929,0.15707530,0.95674380,-0.03352587,-0.28613100,0.04057552
1757984168608,-0.14029831,-0.72971343,0.07439288,0.28522882,0.09893690,0.19106858,0.95692259,-0.03188580,-0.28556212,0.04167417
1757984168620,-0.39966256,2.67347257,0.07410470,0.09524072,0.06590199,0.11501543,0.95702642,-0.03132865,-0.28517659,0.04234701
1757984168639,-1.27529295,-0.22783515,10.33060381,0.03457352,0.02924989,0.09182800,0.95708286,-0.03098810,-0.28488848,0.04325151
1757984168641,155.54246102,157.17024444,-1603.18732816,0.82184081,0.38458514,0.97381524,0.95716948,-0.03024844,-0.28454235,0.04412795
1757984168652,-23.61255345,-22.84974727,238.42390040,0.10326577,0.03417120,0.13317045,0.95720942,-0.02967532,-0.28435270,0.04486704
1757984168664,-0.77105300,0.94463038,3.04660435,0.01946108,0.03932067,0.14892066,0.95723975,-0.02956244,-0.28412464,0.04573078
1757984168675,-0.75810301,0.83210609,-0.11640409,0.02100258,0.05459054,0.21445079,0.95727689,-0.02944168,-0.28381075,0.04696388
1757984168694,-0.73615672,-1.47480256,10.29254149,0.01783465,0.04937688,0.14898583,0.95734979,-0.02927403,-0.28334660,0.04836434
1757984168697,30.46216077,123.75865484,-680.15652940,0.20835397,0.52075638,1.08326163,0.95749116,-0.02899275,-0.28264358,0.04982675
1757984168723,-3.34316753,-13.51811276,74.32235841,0.03634199,0.07499827,0.10802353,0.95771679,-0.02852394,-0.28167610,0.05122025
1757984168750,0.09244764,0.76504195,-5.56912108,0.08952771,0.13126442,0.15505342,0.95816852,-0.02728398,-0.27985809,0.05336774
1757984168763,-0.75735063,8.03464044,-63.20398759,0.25949777,0.46808058,0.29229051,0.95896578,-0.02564915,-0.27690918,0.05520917
1757984168774,-1.22808169,-9.02149911,55.74551232,0.08997346,0.26857236,0.10699683,0.95936648,-0.02515879,-0.27544546,0.05579230
1757984168805,0.28001947,-1.49126298,11.91522684,0.03773166,0.10612260,0.02756273,0.95982449,-0.02457772,-0.27381118,0.05621677
1757984168832,-0.48460385,0.30165823,-12.32803217,0.10559910,0.33669089,0.05628624,0.96109550,-0.02315742,-0.26928268,0.05697382
1757984168840,-10.24633876,-1.80623965,-101.11719869,0.05002598,1.15500417,0.21807820,0.96242240,-0.02294230,-0.26431617,0.05791155
1757984168852,5.14836616,-3.82981553,60.27174453,-0.03786374,0.73906864,0.14818479,0.96350367,-0.02315623,-0.26014043,0.05874880
1757984168873,0.91465994,0.41809131,18.52649562,-0.09243395,0.38749566,0.07981129,0.96455126,-0.02415914,-0.25593610,0.05961475
1757984168884,-2.67299035,-1.30134292,-15.37913338,-0.17171534,0.68286526,0.05920587,0.96549575,-0.02510358,-0.25218034,0.05994038
1757984168895,-0.12216489,0.32397711,3.70928079,-0.18895213,0.70057148,0.06199963,0.96644519,-0.02614281,-0.24832720,0.06028138
1757984168906,0.93498517,0.28423950,4.92528725,-0.17650450,0.75831425,0.07073940,0.96746533,-0.02712241,-0.24411855,0.06067399
1757984168918,0.13406837,0.54814728,2.18346850,-0.17823496,0.72216676,0.03269460,0.96849694,-0.02818291,-0.23982166,0.06086852
1757984168929,-0.69856869,-0.17412432,-4.48891662,-0.21916820,0.96491853,0.08748786,0.96970745,-0.02936642,-0.23461110,0.06134095
1757984168941,-0.58005244,0.80393297,3.02896895,-0.20487721,0.93764595,0.06883792,0.97096615,-0.03057520,-0.22907899,0.06174710
1757984168952,-1.86200156,0.49280512,-4.42488542,-0.25252570,1.12138223,0.04708790,0.97230259,-0.03192621,-0.22307960,0.06199902
1757984168960,-2.62144624,-0.56236325,-8.71515752,-0.25380343,1.41347020,0.04853960,0.97367287,-0.03305563,-0.21678965,0.06221502
1757984168980,3.05474885,0.68512674,14.81243650,-0.13759514,0.67642965,0.01972819,0.97506618,-0.03440407,-0.21016064,0.06240835
1757984168983,-81.00497133,-23.53737924,-430.41765175,-0.47356413,4.96413079,-0.13942980,0.97652710,-0.03506706,-0.20321086,0.06221315
1757984168997,15.29771455,3.81281561,81.86089750,-0.08934277,0.98250069,-0.06556478,0.97793951,-0.03569245,-0.19633336,0.06175420
1757984169006,-3.42844971,-0.07014370,-12.00822197,-0.10620410,1.44027821,-0.18710434,0.97933957,-0.03620223,-0.18942002,0.06085610
1757984169018,1.18664434,1.53561313,4.97909124,-0.08191155,1.21372743,-0.17355837,0.98067255,-0.03666094,-0.18262315,0.05988417
1757984169030,0.27320120,1.45954892,1.50783521,-0.03407182,1.13745391,-0.15263409,0.98194554,-0.03686196,-0.17591217,0.05898363
1757984169041,0.85596795,0.07780460,1.12671819,0.03841013,1.16112167,-0.12505890,0.98321105,-0.03663342,-0.16900349,0.05823953
1757984169053,-0.18635584,-0.54836256,-0.94120133,0.04530950,1.21424195,-0.09143326,0.98440560,-0.03637742,-0.16214303,0.05772293
1757984169064,-0.25150698,-0.75179274,1.16085993,0.05262640,1.17181810,-0.09072920,0.98554290,-0.03607219,-0.15534648,0.05719670
1757984169076,-0.49257108,-0.19068027,0.73088335,-0.02521444,1.15405382,-0.10572181,0.98660470,-0.03621843,-0.14865297,0.05658352
1757984169095,1.54967960,-0.19044012,6.30511852,-0.01297114,0.69673128,-0.07990469,0.98763360,-0.03634361,-0.14192951,0.05581244
1757984169098,-82.79181197,-2.39368773,-369.79527034,-0.36216838,4.88238914,-0.61510445,0.98858681,-0.03683253,-0.13533829,0.05498204
1757984169109,18.35163038,0.56201025,79.21349023,-0.04496146,1.14527719,-0.10547049,0.98946690,-0.03708432,-0.12892474,0.05439141
1757984169118,1.51839416,0.22235819,8.54624958,-0.03099307,0.81613773,-0.03753052,0.98994253,-0.03722379,-0.12525212,0.05422252
1757984169130,0.28168993,-0.21149486,0.19873923,-0.00012689,0.84584855,-0.05508922,0.99057889,-0.03722453,-0.12026161,0.05389750
1757984169140,-3.22435731,-0.22426280,-12.36364222,-0.03042057,1.38080668,-0.02847642,0.99141841,-0.03738120,-0.11315046,0.05375084
1757984169151,0.20988167,-0.36696311,1.73484454,-0.06465398,1.36880223,0.03619679,0.99220322,-0.03772710,-0.10582736,0.05394450
1757984169162,0.37504709,-0.32740789,2.12616822,-0.10602937,1.28775975,0.05917772,0.99292317,-0.03833677,-0.09842274,0.05428477
1757984169173,-0.19020834,-2.01094277,-1.40789897,-0.11952169,1.41494020,0.09559475,0.99357951,-0.03896426,-0.09099431,0.05478664
1757984169178,-13.52628072,-8.15007303,-60.33670335,-0.37771629,3.06163149,0.09763650,0.99419985,-0.03990855,-0.08334023,0.05503073
1757984169190,7.25358219,3.84469704,29.53541138,-0.19052395,1.30234526,-0.01329406,0.99477268,-0.04103264,-0.07565639,0.05495230
1757984169203,0.22374065,1.30037065,1.59235314,-0.13477494,1.14887818,-0.02638240,0.99529656,-0.04192889,-0.06801635,0.05477685
1757984169218,0.64051210,0.20280176,1.97098290,-0.06504205,0.96057146,0.00988647,0.99572965,-0.04240695,-0.06095615,0.05484952
1757984169229,-0.36833749,0.01492211,-3.58425437,-0.06865701,1.21952146,-0.00806858,0.99612299,-0.04280516,-0.05388293,0.05480272
1757984169233,-13.77175594,-11.86674364,-101.60973360,-0.28195476,3.67215224,0.04554239,0.99646372,-0.04336907,-0.04653862,0.05489381
1757984169247,5.02412375,2.68570435,33.81431185,-0.09392996,1.08957278,0.03055316,0.99674085,-0.04400310,-0.03918401,0.05510004
1757984169255,-1.60001155,-1.21127760,-12.05131822,-0.13276168,1.79852232,-0.03741496,0.99699836,-0.04457397,-0.03145036,0.05493916
1757984169274,1.28521761,1.44520978,8.70652315,-0.07951619,0.85400767,-0.04099029,0.99720202,-0.04530155,-0.02363619,0.05456409
1757984169282,-1.38735238,-0.93995432,-18.47831712,-0.06488025,1.82762344,-0.08281600,0.99736402,-0.04558053,-0.01577741,0.05420799
1757984169289,-0.24770034,0.96832826,-12.38247132,-0.09113586,2.38236183,-0.09880890,0.99746127,-0.04588128,-0.00791562,0.05388192
1757984169308,1.43424500,-0.00355752,13.05365590,-0.00766568,0.80887175,-0.03187436,0.99750598,-0.04595602,-0.00002912,0.05357114
1757984169319,0.27114759,-0.44166556,-9.87334878,-0.06631556,1.53961638,0.00355679,0.99745636,-0.04630418,0.00805387,0.05358981
1757984169322,4.76149082,-11.35045814,-144.62871971,-0.10817635,5.10999681,-0.00270399,0.99734458,-0.04648267,0.01648536,0.05358535
1757984169341,-0.65590293,2.28184858,30.86782992,-0.02455958,0.88026257,-0.01504892,0.99717027,-0.04671353,0.02475983,0.05344389
1757984169351,0.55166809,-0.16769370,-10.05231880,-0.06082574,1.72008904,-0.03869722,0.99691273,-0.04702070,0.03344628,0.05324847
1757984169363,0.42749448,-0.21737379,3.30363170,-0.02634308,1.49908687,-0.06103729,0.99658237,-0.04717876,0.04244080,0.05288225
1757984169374,0.36305815,-0.43312591,-0.70648657,-0.03410922,1.63048503,-0.07670837,0.99615703,-0.04737318,0.05173457,0.05244501
1757984169385,1.20580595,-0.43114597,-0.53799112,-0.00407949,1.81362982,-0.04993028,0.99561871,-0.04739501,0.06143749,0.05217788
1757984169398,0.01471689,-0.07951822,2.37665622,-0.02619587,1.56638177,-0.07508194,0.99498294,-0.04755873,0.07122737,0.05170862
1757984169407,0.74333449,-0.36306449,-6.66498049,-0.06539586,2.11741304,-0.11607707,0.99424243,-0.04786282,0.08107334,0.05116886
1757984169418,0.50771690,0.41386680,3.55655685,-0.08475994,1.89351249,-0.04877586,0.99334706,-0.04832052,0.09129831,0.05090547
1757984169429,0.29412136,0.23133934,1.24795425,-0.05424552,1.87838617,-0.03939013,0.99229145,-0.04863244,0.10209903,0.05067898
1757984169441,0.28689430,-0.85710293,-0.34841340,-0.05038395,1.92363905,-0.01020045,0.99110187,-0.04891710,0.11296759,0.05062135
1757984169452,0.43134074,0.09360909,0.87237171,-0.04307274,1.93697494,-0.05120989,0.98975953,-0.04916693,0.12420205,0.05032433
1757984169456,48.66042346,-10.06134265,-127.41212377,-0.19610413,6.70944306,-0.47225587,0.98833056,-0.04949050,0.13527263,0.04954511
1757984169474,-8.78114059,2.66083597,25.84167805,-0.05114158,1.16887224,-0.08165836,0.98676122,-0.04997634,0.14637691,0.04876935
1757984169478,75.24963859,-28.16570007,-151.94625837,-0.14272321,6.89905269,-0.42816359,0.98508263,-0.05020470,0.15741540,0.04808429
1757984169511,-7.67559742,2.65124718,15.95296439,-0.03543251,0.65415606,-0.03353083,0.98326029,-0.05079997,0.16840522,0.04752097
1757984169520,29.41120915,-6.63852103,-45.71674565,-0.32356124,5.70901621,-0.07703606,0.97879548,-0.05215892,0.19238309,0.04719742
1757984169530,-14.88635294,5.81201486,25.34055533,0.01195758,2.35233322,-0.08995428,0.97636188,-0.05209734,0.20449760,0.04673416
1757984169541,-1.18953774,1.10559547,0.76658709,0.10292212,2.07535088,-0.05102027,0.97396746,-0.05153642,0.21580827,0.04645610
1757984169552,-0.92689714,1.66479225,0.98248583,0.07309184,1.90640131,-0.00480567,0.97149723,-0.05111614,0.22677007,0.04642846
1757984169564,1.35072349,0.27520093,-1.63793775,0.07460116,2.11667461,0.01800157,0.96867102,-0.05069837,0.23862345,0.04652927
1757984169574,1.14749078,-1.67967775,0.08866360,0.18857381,2.23365149,-0.02442190,0.96576438,-0.04970836,0.25035012,0.04640106
1757984169587,-0.26567640,-0.33600740,3.19427705,0.04646141,1.88603045,-0.01511774,0.96257458,-0.04941101,0.26242072,0.04630430
1757984169596,4.28537735,-1.11017976,-3.60596459,-0.08008963,2.48462232,-0.02305667,0.95922903,-0.04979544,0.27434690,0.04619363
1757984169601,39.48762745,-3.07971578,-32.93517516,-0.24391899,5.06906915,-0.07822193,0.95572054,-0.05036865,0.28625922,0.04600981
1757984169625,-11.59001164,0.98455700,11.00579453,-0.09391896,0.99226818,-0.04668645,0.95210225,-0.05147689,0.29796798,0.04545891
1757984169626,1187.00997243,246.69819892,-1075.95201106,-1.12245815,20.20262538,-1.14880553,0.94788833,-0.05220649,0.31109969,0.04471219
1757984169641,-101.22321064,-20.23905457,91.85417905,0.02457330,1.18248877,-0.05276000,0.94498014,-0.05202342,0.31990923,0.04431913
1757984169652,4.83814348,1.07651666,-4.09031169,0.05120018,1.72684055,-0.12241520,0.94166907,-0.05173414,0.32966588,0.04362748
1757984169664,2.43204425,0.62768816,-1.28405758,0.06976887,1.93795437,-0.18105163,0.93772893,-0.05132948,0.34090601,0.04257738
1757984169674,1.99334375,-0.28699123,-1.44769405,0.08179341,2.02507684,-0.13898259,0.93403957,-0.05092051,0.35103140,0.04188247
1757984169686,-3.27770407,-0.55267704,2.73188025,0.01523871,1.62478069,-0.08924739,0.93037774,-0.05082984,0.36069884,0.04135145
1757984169696,2.81159089,0.55076222,-2.26686038,0.01879714,1.81942334,-0.15009156,0.92673004,-0.05073303,0.37006887,0.04057847
1757984169709,-2.55728416,-0.62248291,2.31658058,0.05544740,1.43940317,-0.13262832,0.92311269,-0.05038372,0.37913711,0.03974292
1757984169720,2.43220909,0.76406134,-1.19456375,0.11439790,1.58303424,-0.14076896,0.91949036,-0.04974309,0.38800210,0.03895461
1757984169731,-0.15662501,-0.63332587,0.12332459,0.14375777,1.51795179,-0.10537421,0.91586064,-0.04892367,0.39665443,0.03835398
1757984169742,2.00995484,0.61183592,-0.89246912,0.14403573,1.62926380,-0.13485446,0.91217822,-0.04816748,0.40520807,0.03764599
1757984169752,-0.51705155,0.76663546,-0.11196127,0.07478416,1.52908086,-0.14287882,0.90872401,-0.04778608,0.41300638,0.03691731
1757984169757,52.90155704,8.21820839,-38.00617858,0.29276094,3.16235142,-0.20083316,0.90529255,-0.04708345,0.42059602,0.03643531
1757984169774,-19.49620823,-3.67517211,14.23009679,0.09137345,0.86659786,-0.03684126,0.90186627,-0.04630221,0.42800543,0.03612032
1757984169786,5.62140979,0.26571291,-3.43257633,0.16882501,1.25614103,-0.02373233,0.89839799,-0.04531459,0.43535386,0.03598148
1757984169797,-0.05226126,0.20516718,0.45736831,0.19990087,1.28654667,-0.02875183,0.89487079,-0.04417515,0.44268717,0.03581760
1757984169807,-0.01570090,0.91922060,-0.27099524,0.17662819,1.40215963,-0.07033721,0.89128641,-0.04325668,0.44997840,0.03545184
1757984169819,-1.57557325,-0.85484602,1.04841724,0.16789208,1.27053713,-0.06769133,0.88759014,-0.04228291,0.45734752,0.03505923
1757984169830,1.01133573,-0.07937876,-0.62283618,0.17001399,1.31987697,-0.07417831,0.88390638,-0.04135633,0.46454085,0.03465496
1757984169842,-1.14767776,-0.55496764,1.28324762,0.14454460,1.12095410,-0.02553108,0.88026667,-0.04046016,0.47149076,0.03449667
1757984169846,91.93535774,13.72004889,-56.78928668,0.33281858,3.33525799,-0.27965911,0.87671343,-0.03979452,0.47816128,0.03393735
1757984169880,-14.23689319,-1.98939694,8.75012922,0.05063277,0.36858682,-0.00460334,0.87332883,-0.03893883,0.48439040,0.03385955
1757984169888,52.88121253,5.90195108,-34.33965626,0.52325122,3.12004689,0.01716286,0.86593561,-0.03671501,0.49765060,0.03393250
1757984169898,-31.85026689,-3.86638514,20.46973266,0.12358581,1.21444507,-0.09883910,0.86263787,-0.03612798,0.50341921,0.03346301
1757984169910,-3.76271392,-0.18971457,2.22297397,0.06390544,0.80863449,-0.06266917,0.85984232,-0.03574774,0.50823059,0.03309013
1757984169919,4.08529580,0.07241939,-3.33205980,0.09498175,0.88825402,-0.07593068,0.85749797,-0.03532032,0.51222773,0.03274844
1757984169932,-4.90742555,-0.64531720,3.39651810,0.05837752,0.57303952,-0.01609195,0.85526443,-0.03493795,0.51598114,0.03264304
1757984169942,5.53518761,-0.21447335,-3.68716153,0.11789796,0.81008705,0.04640004,0.85282271,-0.03434846,0.52003157,0.03287504
1757984169946,51.12021856,4.29348169,-35.20155547,0.18830463,1.65308287,0.21149277,0.85064386,-0.03394360,0.52358570,0.03332975
1757984169958,-19.74305928,-2.19116690,12.98461628,0.10829422,0.66625819,0.07884618,0.84815668,-0.03328842,0.52761656,0.03380677
1757984169975,-3.04584913,-0.06387534,1.96049084,0.05711000,0.42223844,0.03294829,0.84597404,-0.03281441,0.53112114,0.03408024
1757984169986,5.25716178,0.32750345,-4.45223508,0.01273973,0.53993065,0.03732276,0.84413104,-0.03274562,0.53403677,0.03428178
1757984169998,-1.92464618,-0.32925072,1.10920336,0.02172774,0.42002555,0.03422534,0.84250127,-0.03261308,0.53659892,0.03449056
1757984170008,3.18801298,0.23282237,-2.60582718,-0.02976184,0.46319209,0.03871127,0.84096304,-0.03276635,0.53898436,0.03468992
1757984170021,-2.89528831,-0.78692699,1.82849282,-0.01381818,0.32614008,0.05781549,0.83965605,-0.03285133,0.54099012,0.03504548
1757984170031,3.37496036,-1.33378098,-3.39367525,0.01879817,0.35618135,0.08221182,0.83849234,-0.03275734,0.54277103,0.03545654
1757984170042,-1.55381341,0.11628841,1.24485227,0.03265685,0.28713549,0.13328263,0.83743404,-0.03257610,0.54436463,0.03619626
1757984170054,-1.62507679,0.81971489,0.47654629,0.04046634,0.24100453,0.16442011,0.83645844,-0.03233330,0.54581066,0.03718278
1757984170065,1.25137049,0.22768218,-1.96975363,0.06440833,0.26889265,0.10473205,0.83549719,-0.03198549,0.54726268,0.03774834
1757984170069,66.68239702,-0.11876081,-76.03456564,0.14245741,0.50632879,-0.02328708,0.83486228,-0.03170770,0.54825002,0.03770293
1757984170086,-18.77750771,0.19228187,20.36239415,0.02959626,0.08277469,-0.05245068,0.83441406,-0.03144725,0.54897844,0.03724136
1757984170097,5.13750344,-0.27969972,-6.53580065,0.02065097,0.07919383,-0.05750990,0.83414811,-0.03133471,0.54941005,0.03692793
1757984170108,-0.62071001,-0.35808031,-0.22413838,-0.01253033,0.02222995,0.03242390,0.83405623,-0.03140425,0.54953342,0.03710788
1757984170120,-0.47747055,-0.17249361,0.24166439,-0.05391597,-0.00374962,0.03103519,0.83405070,-0.03171696,0.54951167,0.03728789
1757984170124,45.54368332,-3.92108598,-62.44044034,-0.18894863,-0.05991199,0.10033910,0.83411448,-0.03215154,0.54937388,0.03751867
1757984170143,-14.54685556,1.79721678,18.73256113,-0.07792326,-0.07828137,-0.00494114,0.83456006,-0.03286454,0.54865760,0.03747346
1757984170146,88.23019465,8.78255943,-152.83687667,-0.12216657,-0.58426023,-0.09868553,0.83524977,-0.03308444,0.54760593,0.03729582
1757984170178,-11.27104424,-0.94522510,18.82621603,0.00826211,-0.10071653,-0.02695195,0.83631495,-0.03295390,0.54601461,0.03686998
1757984170187,26.11159985,2.56651942,-53.15413257,0.16786077,-0.85111411,-0.27859001,0.83882968,-0.03221531,0.54226971,0.03564419
1757984170197,-15.47480213,-2.43813598,30.04535421,0.04203756,-0.43518282,-0.08263638,0.84034320,-0.03199251,0.53996324,0.03520621
1757984170208,-1.11848217,0.14763394,1.02224038,0.01198913,-0.41333085,-0.04362215,0.84182541,-0.03192597,0.53766925,0.03496411
1757984170219,-0.48858550,-0.18686354,-0.84335076,0.03214272,-0.44608881,0.00806314,0.84334965,-0.03175401,0.53528268,0.03500725
1757984170223,44.98923099,0.78023652,-118.86723504,0.15557591,-1.30411049,0.09628133,0.84483827,-0.03147397,0.53293528,0.03518055
1757984170232,-17.06464985,-0.31075443,43.10466089,0.08070272,-0.47987323,-0.00552431,0.84634793,-0.03107449,0.53055991,0.03515321
1757984170242,-0.49531994,0.24749933,-1.08678004,0.11441714,-0.49275006,-0.01259494,0.84787965,-0.03051385,0.52814543,0.03509149
1757984170250,3.52895466,0.59145530,-12.18162875,0.20588652,-0.65381194,0.00042540,0.84940869,-0.02975207,0.52572633,0.03509307
1757984170260,-3.91484688,-0.16910703,9.02796926,0.19316177,-0.50205901,-0.00664258,0.85110225,-0.02871866,0.52304031,0.03505753
1757984170271,1.01410701,0.96385707,-6.30697558,0.26791097,-0.64555718,-0.00684372,0.85330383,-0.02725854,0.51952203,0.03502023
1757984170286,-1.31465982,-0.48120082,5.11281434,0.22662147,-0.46139075,0.03859388,0.85545582,-0.02554755,0.51603853,0.03531162
1757984170300,-0.02392320,-0.24289896,-2.07276829,0.21975863,-0.57279714,0.06780260,0.85774838,-0.02409714,0.51225807,0.03575911
1757984170309,1.44239938,-1.16328108,-9.30093632,0.21017018,-0.75321206,0.09052733,0.85988437,-0.02309883,0.50868031,0.03618912
1757984170321,-1.68826455,-0.67419441,7.23997417,0.15052212,-0.50769095,0.09484427,0.86175318,-0.02215807,0.50550724,0.03678189
1757984170332,-0.17895501,0.06857896,-4.93419770,0.11725738,-0.63040892,0.09552680,0.86366191,-0.02154833,0.50222911,0.03727863
1757984170336,11.50634487,-4.80730447,-117.95769561,0.15208753,-1.67015767,0.23104683,0.86563102,-0.02123655,0.49880529,0.03775228
1757984170354,-4.26106927,1.80801414,33.48059818,0.03378129,-0.41655676,0.01433179,0.86775852,-0.02093590,0.49509793,0.03787983
1757984170365,0.06925955,0.35846390,-10.14152538,0.16950367,-0.68488941,-0.00970547,0.86999937,-0.01996973,0.49119406,0.03782451
1757984170375,-0.46399728,-0.46078249,-4.49001217,0.29374240,-0.78929356,-0.08328908,0.87228862,-0.01848633,0.48720813,0.03740390
1757984170380,-1.64768483,-1.17872316,-71.29664468,0.52024878,-1.73425872,-0.08540633,0.87473178,-0.01718571,0.48287249,0.03719039
1757984170400,-0.02287396,-0.03439611,27.02912238,0.11246551,-0.42657154,-0.00786311,0.87699182,-0.01611166,0.47879873,0.03711529
1757984170410,-0.75464591,-1.18947476,-16.46610541,0.11366372,-0.84219585,0.02791561,0.87932760,-0.01553198,0.47450353,0.03725766
1757984170414,-1.22596188,-16.40346389,-124.93720288,0.15842632,-2.02197477,0.08242060,0.88160417,-0.01519928,0.47025738,0.03743075
1757984170426,0.15918600,4.49517424,46.17595408,-0.02803075,-0.71864112,0.04206603,0.88398995,-0.01537587,0.46572994,0.03769576
1757984170446,0.15164509,0.41464566,4.99743279,-0.00894180,-0.46951375,0.03457500,0.88634646,-0.01546216,0.46119913,0.03802941
1757984170454,-2.44224417,-2.62241731,-32.74648042,0.11731941,-1.15453643,0.04807640,0.88885257,-0.01496942,0.45635008,0.03823133
1757984170458,-10.75181291,-8.42398163,-120.09795288,0.55384663,-2.42805473,-0.01385278,0.89147202,-0.01380634,0.45125117,0.03820224
1757984170472,3.22395368,3.82523802,49.52523420,0.16139385,-0.78103106,-0.03988972,0.89414871,-0.01271694,0.44597921,0.03793298
1757984170487,0.53848392,-0.10589687,2.60038271,0.04358944,-0.69299379,-0.01411570,0.89683383,-0.01237694,0.44057386,0.03782288
1757984170498,-0.90551651,-2.76205616,-13.26308873,-0.01397530,-1.08322289,0.02257849,0.89959924,-0.01245031,0.43488694,0.03794142
1757984170510,0.55748690,-0.14850155,2.99342547,-0.05110774,-1.01866462,0.05612006,0.90243774,-0.01274929,0.42892775,0.03826972
1757984170520,-0.70770076,0.95327491,-5.07420278,-0.12272867,-1.21695114,0.07376909,0.90542103,-0.01339361,0.42253875,0.03865701
1757984170532,0.36348130,0.42044295,3.91547698,-0.03180690,-1.09847823,0.02992819,0.90848229,-0.01358605,0.41589296,0.03883807
1757984170543,-1.98726570,-0.56538548,-7.19804804,-0.03615625,-1.35498914,0.05193966,0.91163029,-0.01377225,0.40891477,0.03910556
1757984170547,-11.49933059,-12.49913666,-127.59771869,0.03591747,-3.06463797,0.14969831,0.91474583,-0.01368964,0.40186610,0.03944987
1757984170563,4.37173833,4.92677498,46.72226478,-0.00401345,-0.91587714,0.02113727,0.91786317,-0.01372115,0.39467646,0.03961580
1757984170574,-1.19861346,-1.80555978,-13.12877078,-0.02068336,-1.41521785,0.05152160,0.92112763,-0.01383387,0.38696353,0.03989659
1757984170583,-1.18222866,-1.01052434,-10.69114226,-0.05270075,-1.78369369,0.06729422,0.92447827,-0.01407366,0.37884772,0.04020278
1757984170600,1.57103661,1.82413860,14.84590242,-0.04719948,-0.97403704,0.07413651,0.92777502,-0.01447249,0.37061711,0.04082923
1757984170610,-3.86352915,-2.02390947,-20.24015137,-0.02271078,-1.66217964,0.09365662,0.93106164,-0.01458718,0.36222310,0.04130220
1757984170614,-25.19343715,-12.68750167,-172.75792254,0.02608921,-3.92444592,0.24884857,0.93420362,-0.01453240,0.35398176,0.04182478
1757984170632,7.10839982,4.45845977,51.46006161,0.01991324,-0.86549693,0.03589300,0.93717009,-0.01434919,0.34601919,0.04215500
1757984170643,-3.10414039,-2.48892205,-21.61663485,0.04839678,-1.54358132,0.03519706,0.94006259,-0.01409995,0.33806975,0.04233626
1757984170653,-0.53011300,-0.65135335,0.47356187,0.01868260,-1.52694825,0.05630829,0.94289517,-0.01400187,0.33005327,0.04263188
1757984170659,-12.34522207,-6.22052375,-83.56754163,-0.10204106,-2.85725297,0.09595918,0.94559284,-0.01428248,0.32219582,0.04289577
1757984170678,5.08461126,3.36087189,35.47489634,-0.00523064,-0.82395681,-0.01342773,0.94826996,-0.01433296,0.31424464,0.04276619
1757984170681,-139.97507837,-63.80181624,-750.80219328,-0.12809728,-6.42070410,0.01899963,0.95088855,-0.01449308,0.30621876,0.04278994
1757984170698,19.36945422,9.03580482,105.68028729,0.00353067,-0.91055892,-0.02869109,0.95341498,-0.01446236,0.29829690,0.04254033
1757984170709,-3.32355761,0.41329090,-15.73429602,-0.09558150,-1.41182103,0.00078959,0.95586563,-0.01500240,0.29032011,0.04254479
1757984170720,-0.71797788,1.59177141,-1.27980744,-0.08366517,-1.41111109,0.03419260,0.95821417,-0.01547092,0.28241789,0.04273627
1757984170732,-0.89711072,2.02762749,-1.57754640,-0.02140791,-1.40566983,0.05560916,0.96048334,-0.01559080,0.27454614,0.04304768
1757984170743,-1.60130306,1.39573504,-1.50645990,0.06729531,-1.45274636,-0.00480267,0.96273848,-0.01522068,0.26655603,0.04302126
1757984170755,1.66014367,0.85624581,4.35642300,-0.02450413,-1.29279735,0.00013900,0.96490212,-0.01537138,0.25860533,0.04302212
