UnixTime(ms),Ax,Ay,Az,Gx,Gy,Gz,QuatW,QuatX,QuatY,QuatZ
1761617530649,0.00000000,0.00000000,0.00000000,0.00000000,0.00000000,0.00000000,0.98923351,0.13159196,-0.02453243,0.05915050
1761617530671,0.57634243,-0.02290592,0.07980126,-0.00774367,-0.08220666,-0.00524312,0.98922544,0.13150678,-0.02543671,0.05909283
1761617530676,26.37430272,-1.27647636,3.29744635,-0.08014030,-0.87457724,-0.04920165,0.98920184,0.13131444,-0.02753569,0.05897474
1761617530683,-12.99431215,0.71597717,-1.64810366,-0.03937834,-0.27977884,-0.02550681,0.98919750,0.13117071,-0.02855688,0.05888164
1761617530694,-0.43883975,-0.07835148,-0.09599276,-0.02655383,-0.24660542,-0.01549228,0.98918199,0.13102599,-0.02990088,0.05879721
1761617530706,-0.30291967,0.04606601,-0.02845118,-0.03376588,-0.21976142,-0.01945278,0.98917474,0.13081664,-0.03126340,0.05867660
1761617530717,0.73715844,0.18627867,0.11367109,-0.04477216,-0.25109635,-0.02894985,0.98917232,0.13058607,-0.03255655,0.05852751
1761617530728,-0.23966748,0.01259417,-0.00778716,-0.02122010,-0.22613066,-0.02831719,0.98915488,0.13046723,-0.03382288,0.05836894
1761617530740,-0.28916313,-0.12348360,-0.12353621,-0.00090965,-0.21646303,-0.03459412,0.98912284,0.13046182,-0.03511084,0.05816310
1761617530750,0.24500157,-0.07772376,-0.03434601,-0.00239913,-0.23218189,-0.03640034,0.98909170,0.13044923,-0.03632979,0.05797200
1761617530761,-0.07070449,-0.09053469,0.15205267,-0.00545488,-0.20669309,-0.04204522,0.98906631,0.13041868,-0.03748727,0.05773655
1761617530773,-0.39153561,0.32643807,-0.03041053,-0.02284840,-0.18020042,-0.04398715,0.98905876,0.13029073,-0.03849640,0.05749022
1761617530784,-0.02347296,-0.04071508,-0.07842102,-0.01958591,-0.16538963,-0.03430414,0.98904776,0.13018007,-0.03943085,0.05729640
1761617530795,-0.16228493,-0.03964990,0.10341687,-0.03690543,-0.15980117,-0.02608171,0.98904730,0.12996971,-0.04034171,0.05714773
1761617530806,-0.00642973,-0.24986074,-0.04632172,-0.02622091,-0.15228030,-0.03354061,0.98904236,0.12982549,-0.04117926,0.05696326
1761617530818,-0.13553422,0.05551650,0.13339166,-0.04838337,-0.15760579,-0.04703504,0.98905589,0.12955455,-0.04206185,0.05669986
1761617530829,0.11012952,-0.03226698,-0.03834361,-0.04320767,-0.15679465,-0.05432642,0.98906731,0.12931042,-0.04294774,0.05639292
1761617530840,0.00000000,0.26093662,-0.21659139,-0.04371586,-0.16562329,-0.04301487,0.98907232,0.12906343,-0.04388351,0.05614989
1761617530851,0.10271223,-0.10114535,-0.11483631,0.00034735,-0.15583294,-0.03099599,0.98904307,0.12906536,-0.04474838,0.05597786
1761617530862,-0.14068296,-0.04684010,-0.08513579,0.01138845,-0.14436155,-0.04581987,0.98901233,0.12912913,-0.04555681,0.05572127
1761617530874,-0.08362897,0.01758109,0.01900658,-0.00824833,-0.13335495,-0.03790992,0.98899561,0.12908294,-0.04630360,0.05550897
1761617530885,-0.24447053,-0.00440701,-0.15179129,-0.03606724,-0.13506511,-0.01428118,0.98899083,0.12888457,-0.04704645,0.05543042
1761617530896,-0.04016107,-0.00459153,-0.09587055,-0.04398212,-0.11009373,-0.00147897,0.98899387,0.12863607,-0.04766848,0.05542207
1761617530907,-0.16760619,0.42736788,0.03149155,-0.05426790,-0.10919956,-0.00727609,0.98900576,0.12833760,-0.04826908,0.05538205
1761617530918,0.31599308,-0.36468449,-0.18045887,-0.00001840,-0.09293744,-0.00799663,0.98898274,0.12833749,-0.04878953,0.05533727
1761617530929,-0.30951539,-0.00081900,0.16281663,-0.00817310,-0.10682395,-0.03960550,0.98897116,0.12829091,-0.04939843,0.05511152
1761617530940,0.13321814,-0.00983998,-0.25883187,-0.02977677,-0.11265453,-0.06221262,0.98898018,0.12812862,-0.05001239,0.05477246
1761617530952,-0.20312790,0.18944491,0.39776995,-0.06433270,-0.10577343,-0.03982501,0.98900873,0.12777158,-0.05059944,0.05455143
1761617530963,-0.03096094,-0.36427480,-0.21672657,-0.04491601,-0.08537744,-0.01640220,0.98902156,0.12752229,-0.05107328,0.05446040
1761617530974,-0.17941530,-0.01208887,0.25646901,-0.05975823,-0.06136782,-0.02229221,0.98905371,0.12718765,-0.05141694,0.05433556
1761617530985,-0.02408457,-0.00570151,0.08179078,-0.07732504,-0.05396633,-0.00112367,0.98909353,0.12675849,-0.05171645,0.05432932
1761617530997,-0.32943648,-0.18542549,-0.11562943,-0.05324711,-0.04509514,-0.01324354,0.98912460,0.12643901,-0.05198702,0.05424986
1761617531007,0.03689484,-0.25623008,-0.02933254,-0.06902542,-0.05664594,-0.01240780,0.98915778,0.12608698,-0.05227592,0.05418658
1761617531018,-0.48052097,0.18069877,0.00867684,-0.07245925,-0.03513639,-0.01605701,0.98920433,0.12567759,-0.05247444,0.05409586
1761617531029,-0.15173835,-0.08460520,-0.02374944,-0.08045123,-0.02915070,-0.02028524,0.98925803,0.12523511,-0.05263477,0.05398429
1761617531041,0.47358166,0.14015155,0.05230145,-0.07578059,-0.02424308,-0.03860323,0.98931724,0.12480316,-0.05277295,0.05376425
1761617531052,-0.24055835,-0.18015142,0.04328421,-0.07630640,-0.02282463,-0.03363130,0.98937393,0.12437966,-0.05289963,0.05357760
1761617531063,-0.03441733,0.11823036,0.01458884,-0.05267770,-0.04440322,-0.02732326,0.98940592,0.12408466,-0.05314829,0.05342459
1761617531074,0.01171782,-0.01143562,-0.04178281,-0.02710107,-0.03882569,-0.02059235,0.98941909,0.12393696,-0.05335989,0.05331236
1761617531085,-0.05031153,0.14542676,0.06114075,-0.05408188,-0.03501092,-0.02176789,0.98945265,0.12363681,-0.05355420,0.05319155
1761617531096,-0.01935059,0.04789270,0.08127246,-0.05299246,-0.02609491,-0.01689896,0.98948654,0.12334270,-0.05369903,0.05309776
1761617531107,0.01582170,0.06282018,0.08198515,-0.04715394,-0.03681589,-0.01153972,0.98951168,0.12307863,-0.05390520,0.05303314
1761617531119,-0.03801317,0.02423339,0.07982765,-0.03599726,-0.04212691,-0.02286876,0.98953071,0.12287705,-0.05414111,0.05290507
1761617531130,-0.01140395,0.03563734,0.06842370,-0.04118006,-0.03914099,-0.03736849,0.98955847,0.12264644,-0.05436030,0.05269581
1761617531141,-0.10929626,-0.00333884,0.06181821,-0.04293982,-0.04140965,-0.02290765,0.98958209,0.12240813,-0.05459012,0.05256867
1761617531152,-0.04753358,0.09121448,0.01476007,-0.02035887,-0.04263122,-0.02649952,0.98959086,0.12229412,-0.05482885,0.05242027
1761617531163,-0.01267006,0.10514485,0.04797953,-0.01697199,-0.04307270,-0.02560384,0.98959684,0.12219822,-0.05507221,0.05227561
1761617531174,0.13827685,0.09321481,0.13318519,-0.02814430,-0.03432068,-0.03350538,0.98961514,0.12204343,-0.05526098,0.05209133
1761617531186,0.00897164,-0.02876641,-0.00221652,-0.01076319,-0.04176848,-0.01585071,0.98961416,0.12198370,-0.05549279,0.05200336
1761617531197,0.00113012,-0.03560310,0.00164381,0.00548013,-0.03667285,-0.01929427,0.98960451,0.12201438,-0.05569816,0.05189531
1761617531208,-0.03966858,0.07564175,-0.04930801,-0.00796749,-0.05926755,-0.02968628,0.98960010,0.12197096,-0.05602117,0.05173352
1761617531219,0.01322434,-0.02407190,-0.14128803,0.00930985,-0.03732411,-0.01587760,0.98958634,0.12202356,-0.05623205,0.05164382
1761617531230,-0.06466178,0.07709839,0.03966014,-0.00413417,-0.04850623,-0.01675484,0.98957868,0.12200062,-0.05650126,0.05155083
1761617531241,-0.08901270,-0.06772705,0.09288282,0.01705380,-0.04497700,-0.02145133,0.98955892,0.12209527,-0.05675088,0.05143177
1761617531252,-0.05811562,-0.01252551,0.06297857,0.00627258,-0.03622952,-0.02044609,0.98954887,0.12213039,-0.05695377,0.05131727
1761617531263,0.01993802,-0.03525435,0.05255758,-0.00255130,-0.02722784,-0.00564134,0.98954354,0.12211623,-0.05710488,0.05128596
1761617531274,-0.13932422,-0.04353882,-0.00000000,-0.00478978,-0.02403990,-0.01975609,0.98954478,0.12208965,-0.05723830,0.05117632
1761617531286,-0.19718902,-0.09296959,0.04674592,-0.00449757,-0.02143277,-0.01502915,0.98954529,0.12206446,-0.05735833,0.05109215
1761617531297,-0.04098178,-0.07164036,-0.03168659,-0.00094495,-0.00878772,-0.01800820,0.98954826,0.12205922,-0.05740710,0.05099221
1761617531308,-0.00663901,0.05545526,0.01473363,-0.02122926,-0.00161379,-0.01777944,0.98956718,0.12194246,-0.05741598,0.05089442
1761617531319,-0.05564158,-0.01204323,-0.14309290,-0.01349945,-0.01068004,-0.02634795,0.98958072,0.12186619,-0.05747632,0.05074556
1761617531330,-0.00316216,-0.00029855,0.06246942,-0.03083447,-0.00160002,-0.02077835,0.98960741,0.12169351,-0.05748528,0.05062920
1761617531341,-0.22047636,-0.09550808,-0.05321843,-0.01513604,0.00137740,-0.02837448,0.98962639,0.12160875,-0.05747756,0.05047030
1761617531352,-0.13286136,0.00992238,0.10604982,-0.01982188,0.01105696,-0.01054961,0.98964627,0.12149973,-0.05741675,0.05041228
1761617531364,-0.03676910,0.01496336,-0.04713633,-0.01968004,0.00795079,-0.01999288,0.98966807,0.12138952,-0.05737223,0.05030032
1761617531375,0.08611011,0.03388080,-0.02094010,-0.02902807,0.00387648,-0.01989454,0.98969467,0.12122842,-0.05735071,0.05018990
1761617531386,0.00783874,0.05119150,0.07064957,-0.02339302,0.00724066,-0.02697409,0.98972094,0.12109625,-0.05730980,0.05003750
1761617531397,-0.00581971,-0.01300185,-0.03912329,-0.01089318,-0.01029941,-0.00955244,0.98972776,0.12103524,-0.05736748,0.04998401
1761617531408,-0.03975989,-0.02769118,-0.03455240,-0.01500316,-0.00339117,-0.03014048,0.98974513,0.12095273,-0.05738613,0.04981823
1761617531419,0.06051456,-0.04057906,-0.01368614,0.00693199,-0.01547753,-0.00336177,0.98973638,0.12099120,-0.05747203,0.04979957
1761617531431,-0.05133490,0.05838531,0.04369802,-0.00373580,-0.01199884,-0.01621483,0.98973960,0.12097028,-0.05753922,0.04970877
1761617531442,-0.02173486,0.10798750,0.13780382,-0.00169962,-0.02112808,-0.01054954,0.98973686,0.12096085,-0.05765649,0.04965022
1761617531453,0.03294474,0.01034232,0.08010162,-0.00987476,-0.00500715,0.01269655,0.98973842,0.12090555,-0.05768453,0.04972132
1761617531464,-0.02434853,0.05165267,-0.03061159,-0.00709131,-0.00777379,0.02508138,0.98973375,0.12086654,-0.05772728,0.04985927
1761617531475,-0.02846295,-0.03066188,-0.13175990,0.00976288,-0.00413168,0.01853005,0.98972061,0.12092073,-0.05775021,0.04996211
1761617531486,0.02551334,0.06471228,-0.07883451,0.03449174,-0.00982656,0.01379469,0.98968987,0.12111388,-0.05780524,0.05003936
1761617531497,0.02456833,-0.03723692,0.03310333,0.04155428,-0.02127923,-0.00037504,0.98965482,0.12134451,-0.05792334,0.05003728
1761617531508,0.00606156,-0.00728586,0.18006597,-0.01339332,-0.02621959,-0.05695297,0.98967149,0.12126951,-0.05807017,0.04971834
1761617531520,-0.03320699,0.05717926,0.13179132,-0.04340523,-0.04356381,-0.02585537,0.98969396,0.12102861,-0.05831195,0.04957485
1761617531531,0.08232761,0.07685252,-0.08119749,0.00463220,-0.03866628,0.00489513,0.98967663,0.12105455,-0.05852848,0.04960226
1761617531542,-0.19006583,0.00617714,-0.04181448,0.00156028,-0.02911564,0.00205686,0.98966533,0.12106328,-0.05869153,0.04961378
1761617531553,0.01582602,-0.09006661,-0.02681438,0.01193307,-0.02903984,0.01040522,0.98964475,0.12112951,-0.05885270,0.04967153
1761617531564,-0.01188340,0.01561194,0.07599209,-0.01593860,-0.04516598,0.00733164,0.98963854,0.12104026,-0.05910563,0.04971258
1761617531575,0.25580785,-0.13524246,0.05490729,0.01375987,-0.05850373,0.00742174,0.98960768,0.12111662,-0.05943032,0.04975377
1761617531587,-0.01784222,0.03567587,0.00260270,-0.00006166,-0.05557379,-0.00740298,0.98959107,0.12111628,-0.05974154,0.04971232
1761617531598,-0.02244850,0.03555519,0.09317184,0.01605227,-0.04744106,-0.01068292,0.98956742,0.12120457,-0.06000246,0.04965356
1761617531609,-0.13722461,0.12888573,-0.16197440,0.00764849,-0.04517561,-0.01935484,0.98955196,0.12124816,-0.06025996,0.04954324
1761617531620,0.02637791,0.11036200,0.00173137,0.00165466,-0.05132951,0.00298268,0.98953262,0.12125735,-0.06054484,0.04955979
1761617531631,-0.06962085,0.01712563,-0.03486368,0.03119383,-0.05062959,-0.00217838,0.98949510,0.12142891,-0.06082331,0.04954781
1761617531642,0.11822409,-0.00640380,0.19704015,0.04522200,-0.03546321,-0.00228114,0.98945317,0.12167763,-0.06101835,0.04953527
1761617531653,-0.04900243,-0.01327005,0.00739529,0.02391959,-0.03871470,-0.00250170,0.98942399,0.12181158,-0.06123516,0.04952126
1761617531664,0.00127852,0.04098178,0.04854924,0.00878590,-0.02537673,-0.00525518,0.98941072,0.12186035,-0.06137600,0.04949209
1761617531676,-0.16254493,-0.09143152,-0.11610352,0.02986269,-0.02736511,-0.00771450,0.98938300,0.12202608,-0.06152787,0.04944927
1761617531687,0.00777386,0.02148943,0.03273927,0.01542712,-0.01698552,-0.00956506,0.98936910,0.12211247,-0.06162299,0.04939571
1761617531698,-0.03106460,-0.10343925,-0.04851469,0.01515134,-0.01873947,-0.02187565,0.98935829,0.12219656,-0.06172700,0.04927430
1761617531709,0.01178066,0.11106865,0.12030653,-0.00131275,-0.01759024,-0.03117519,0.98936172,0.12218921,-0.06182550,0.04909972
1761617531720,0.00760263,0.01568043,-0.04181448,0.01990434,-0.02453999,-0.00705172,0.98934131,0.12230068,-0.06196293,0.04906023
1761617531731,0.00393439,0.01044030,-0.00573487,0.02556395,-0.02119917,0.00324842,0.98931503,0.12244511,-0.06208270,0.04907858
1761617531743,-0.02743331,0.07482084,-0.19720474,0.02691144,-0.02110967,-0.00309190,0.98929002,0.12259447,-0.06219986,0.04906142
1761617531757,0.02721441,-0.00842391,-0.13022451,0.02711085,-0.01572253,-0.00017726,0.98925984,0.12278289,-0.06230913,0.04906019
1761617531764,-0.08673122,0.23904606,0.70270228,0.03989347,-0.04931168,0.01886601,0.98922518,0.12293648,-0.06249898,0.04913283
1761617531775,0.06091665,-0.25686647,-0.21989303,0.01397906,-0.02561934,0.00873604,0.98920414,0.12301407,-0.06264117,0.04918131
1761617531786,-0.03633793,-0.12257724,-0.06978329,0.01685819,-0.03319104,0.00515406,0.98917984,0.12310594,-0.06282206,0.04920940
1761617531797,-0.01075822,-0.02911464,0.04917534,0.01064282,-0.02560840,0.01052566,0.98916054,0.12316501,-0.06296419,0.04926782
1761617531808,-0.10543423,0.00305980,-0.12231962,-0.00064817,-0.02890960,0.00964101,0.98914832,0.12316148,-0.06312174,0.04932036
1761617531819,-0.09834599,0.02574607,-0.00359207,-0.00566349,-0.02370427,0.00493492,0.98914241,0.12312976,-0.06325449,0.04934800
1761617531831,-0.03223573,-0.07254676,-0.06951648,0.00068546,-0.02258923,0.01338589,0.98912987,0.12313367,-0.06338325,0.04942430
1761617531842,0.01000346,0.01302118,0.05935389,-0.01615238,-0.01851243,0.00232262,0.98913383,0.12304322,-0.06348692,0.04943730
1761617531853,0.03421185,-0.10691203,0.04181448,-0.00909429,-0.01272022,0.00575533,0.98913398,0.12299229,-0.06355815,0.04946953
1761617531865,0.01526611,0.01060601,-0.03334956,-0.00464714,-0.01607678,-0.00079498,0.98913160,0.12296580,-0.06364979,0.04946500
1761617531876,0.02464654,0.28949496,-0.23648454,0.01468826,-0.01787292,-0.00298459,0.98911591,0.12304732,-0.06374898,0.04944844
1761617531887,0.00363341,0.22263025,-0.06657881,0.01896678,-0.01077241,0.00031323,0.98909856,0.12315448,-0.06380985,0.04945021
1761617531898,0.02868505,0.10253152,-0.03790639,0.03733420,-0.00459914,0.00856532,0.98906763,0.12336915,-0.06383629,0.04949946
1761617531910,-0.10307973,-0.04793056,0.25024515,0.03918540,-0.00932896,-0.00991746,0.98903989,0.12358663,-0.06388807,0.04944441
1761617531921,0.07849205,-0.08212642,0.16821682,0.04011469,-0.00320905,0.00492003,0.98900926,0.12381128,-0.06390604,0.04947197
1761617531932,-0.01320354,-0.00527225,-0.01920515,0.02594057,-0.01483954,-0.00430655,0.98898669,0.12395784,-0.06398988,0.04944764
1761617531943,0.07743660,-0.12365539,-0.12309028,0.02530084,-0.01802758,0.00464812,0.98896131,0.12409826,-0.06408993,0.04947343
1761617531954,0.01260256,-0.03558597,0.00071917,0.02386602,-0.01560704,-0.00521786,0.98894033,0.12423191,-0.06417733,0.04944421
1761617531966,0.02280790,0.09598324,0.07222502,0.01158853,-0.02123294,0.00910443,0.98892190,0.12429680,-0.06429624,0.04949520
1761617531977,-0.04733983,0.07548025,0.12377465,0.02828615,-0.03278566,0.01278176,0.98888675,0.12445379,-0.06447820,0.04956614
1761617531988,0.00774023,0.02370447,0.03870117,0.04391372,-0.02758975,0.00189537,0.98884553,0.12469751,-0.06463132,0.04957666
1761617531999,0.06217162,-0.11564662,-0.07737810,0.05168585,-0.03229460,0.01471453,0.98879254,0.12498954,-0.06481378,0.04965979
1761617532010,-0.01207675,-0.14032493,-0.14377723,0.02995829,-0.04561297,-0.01703830,0.98875933,0.12515731,-0.06506922,0.04956438
1761617532021,0.04177653,-0.08899110,0.03807919,0.02191489,-0.05364594,0.00122463,0.98872395,0.12527893,-0.06536695,0.04957117
1761617532033,0.06883465,0.08962203,0.14852532,0.00449255,-0.04172374,0.01752121,0.98870036,0.12530409,-0.06560061,0.04966929
1761617532044,0.02594029,0.15400795,0.01016939,0.04406743,-0.04627908,0.01343790,0.98864757,0.12555307,-0.06586208,0.04974522
1761617532055,-0.02237058,0.19481327,-0.10149179,0.08327843,-0.04504651,0.01049450,0.98856844,0.12601943,-0.06611434,0.04980399
1761617532066,0.10860517,0.15173365,-0.11586164,0.10254875,-0.03234853,0.01674470,0.98847901,0.12658858,-0.06629388,0.04989692
1761617532077,-0.13158399,-0.18383057,-0.23220704,0.07595411,-0.05618068,-0.01725602,0.98840880,0.12701012,-0.06660568,0.04980115
1761617532089,0.00740138,-0.05513190,-0.07283634,0.01984477,-0.04903600,-0.04592676,0.98838872,0.12712225,-0.06688273,0.04954166
1761617532100,-0.03075545,-0.05707567,0.02383718,0.03318015,-0.05522571,-0.00219615,0.98834484,0.12730640,-0.06718924,0.04952947
1761617532111,0.11610352,0.14948328,0.21672657,0.03604604,-0.03814088,-0.00311703,0.98830550,0.12750645,-0.06740092,0.04951217
1761617532122,0.02072387,-0.10477583,-0.05332360,0.03683524,-0.04305340,-0.00112747,0.98826233,0.12771457,-0.06764417,0.04950580
1761617532133,0.01760390,-0.05104359,-0.00763749,0.02029774,-0.06320372,0.01621808,0.98821918,0.12782722,-0.06799495,0.04959581
1761617532144,0.13564879,-0.07972919,-0.07790987,0.01350491,-0.06508522,0.01833138,0.98817909,0.12790285,-0.06835943,0.04969847
1761617532155,-0.00380132,-0.08790545,0.07222502,0.00061396,-0.08215158,-0.00990291,0.98814950,0.12790629,-0.06881948,0.04964301
1761617532167,0.08362897,-0.14540036,0.05701975,-0.00145111,-0.08951024,-0.01715665,0.98812034,0.12789816,-0.06932073,0.04954694
1761617532178,0.05770461,-0.08924863,0.09155330,-0.01390056,-0.08819776,0.00468879,0.98809478,0.12782171,-0.06980582,0.04957273
1761617532189,-0.05177145,0.01410136,-0.09142330,0.00793300,-0.06745599,-0.00619396,0.98806374,0.12786653,-0.07018695,0.04953773
1761617532200,-0.02169185,0.07270433,-0.01642582,-0.01248250,-0.07557421,0.00747602,0.98804095,0.12779788,-0.07060261,0.04957885
1761617532211,-0.00689585,-0.06186031,-0.42018920,0.00806352,-0.06625289,0.00973238,0.98800610,0.12784263,-0.07097031,0.04963286
1761617532222,-0.00671223,-0.04880925,-0.06308131,0.01467514,-0.05677352,-0.00219520,0.98797319,0.12792481,-0.07128824,0.04962057
1761617532234,-0.03041053,0.01425494,0.09883423,-0.00711284,-0.06186765,-0.00213613,0.98795389,0.12788498,-0.07163470,0.04960861
1761617532245,-0.02280790,0.08790545,0.23568163,0.00967964,-0.05568199,-0.01411251,0.98792818,0.12793918,-0.07194652,0.04952958
1761617532256,0.00000000,-0.02850987,-0.01520527,0.01773006,-0.04718100,-0.01337699,0.98789979,0.12803847,-0.07221073,0.04945467
1761617532267,-0.01140395,0.03943866,-0.20907241,0.00052150,-0.05975231,-0.02356447,0.98788149,0.12804139,-0.07254535,0.04932270
1761617532278,0.19195091,-0.13790749,-0.34945086,-0.00522700,-0.04767192,-0.01940488,0.98787116,0.12801238,-0.07280992,0.04921501
1761617532289,-0.06786696,-0.07990729,-0.03698876,-0.02086125,-0.04405708,-0.01824762,0.98787311,0.12789869,-0.07305004,0.04911556
1761617532301,-0.07870066,-0.08324076,0.23835732,-0.02469396,-0.03384402,0.00358287,0.98787602,0.12775793,-0.07324295,0.04913598
1761617532312,-0.17712802,0.00741924,0.31457562,-0.02073309,-0.03588676,-0.00470457,0.98787742,0.12764183,-0.07344391,0.04910963
1761617532323,-0.01140395,0.03563734,0.00760263,0.00006292,-0.04550411,-0.00509831,0.98785982,0.12764218,-0.07369874,0.04908108
1761617532334,0.09388490,-0.04590149,0.01599879,-0.00625321,-0.04387111,-0.00132168,0.98784647,0.12760747,-0.07394222,0.04907375
1761617532345,0.03377722,-0.00957975,-0.22533848,-0.01950651,-0.06977275,-0.00446593,0.98783237,0.12749726,-0.07433644,0.04904852
1761617532357,0.03252985,-0.02514588,0.05183919,-0.01858830,-0.06958099,0.00488381,0.98781504,0.12739317,-0.07472609,0.04907587
1761617532368,0.05663502,0.01770924,0.13839125,-0.02498685,-0.06902386,0.01133917,0.98780073,0.12725449,-0.07510917,0.04913880
1761617532379,-0.04257129,0.09578540,0.24381739,-0.02280187,-0.07119562,0.00854868,0.98778454,0.12712794,-0.07550431,0.04918624
1761617532390,-0.04054738,0.05430147,-0.02527362,-0.01970781,-0.06690588,0.00402064,0.98776891,0.12701758,-0.07587898,0.04920876
1761617532401,-0.02453991,-0.04095681,-0.09182462,-0.01029758,-0.06160066,0.00825222,0.98774727,0.12695940,-0.07622702,0.04925538
1761617532412,-0.10814986,0.01447770,-0.09838263,-0.01150105,-0.06241054,-0.00617556,0.98773069,0.12689672,-0.07656716,0.04922173
1761617532424,0.04648658,0.00727089,-0.05406042,-0.00908972,-0.05219066,0.00314689,0.98771334,0.12684490,-0.07686465,0.04923966
1761617532435,0.03147016,0.02907680,0.22854061,0.00018923,-0.04471100,-0.00619757,0.98769558,0.12684595,-0.07711279,0.04920527
1761617532446,0.01349296,0.13356405,0.22218867,-0.00831978,-0.05992687,-0.00802537,0.98767754,0.12679936,-0.07744839,0.04916033
1761617532457,0.07539818,0.02342371,0.07380867,0.00183329,-0.05345593,0.00035354,0.98765283,0.12680954,-0.07774507,0.04916229
1761617532468,-0.23607716,0.22736939,-0.08901270,0.00380051,-0.04839609,-0.01807483,0.98763393,0.12683063,-0.07801366,0.04906197
1761617532479,-0.08403992,0.06790573,-0.05335542,0.00294810,-0.04557747,-0.00761764,0.98761373,0.12684714,-0.07826890,0.04901931
1761617532490,-0.08935825,-0.05206949,0.01126481,0.00477420,-0.04711749,-0.01538091,0.98759381,0.12687364,-0.07853040,0.04893395
1761617532502,0.18359332,-0.22826735,0.18650424,-0.00582233,-0.03204401,-0.00850772,0.98758607,0.12684103,-0.07870985,0.04888631
1761617532513,0.06462238,-0.11736565,0.02660922,0.01036600,-0.02226466,-0.01026621,0.98757151,0.12689908,-0.07883453,0.04882882
1761617532524,0.00000000,-0.04656613,-0.07982765,0.01178508,-0.02490082,0.00250853,0.98755119,0.12696508,-0.07897397,0.04884286
1761617532535,-0.02347296,0.09381265,0.12229945,0.01293393,-0.01338220,-0.01856833,0.98754093,0.12703815,-0.07904958,0.04873795
1761617532546,-0.09497199,-0.08581471,-0.55698866,0.03396467,-0.02830598,-0.01518882,0.98750823,0.12722666,-0.07920668,0.04865365
1761617532557,-0.01178691,0.14541918,-0.08179829,0.02470571,-0.03723368,-0.01125325,0.98747731,0.12736254,-0.07941147,0.04859176
1761617532569,0.08982772,-0.02038607,0.12635630,0.03607611,-0.02424108,-0.00167230,0.98744044,0.12756637,-0.07954843,0.04858231
1761617532580,0.19460723,-0.00546229,0.45370228,0.02780710,-0.02341508,-0.00578400,0.98741133,0.12772209,-0.07967955,0.04854992
1761617532591,-0.02456833,-0.16622068,0.05580571,-0.00314833,-0.03373771,-0.02100687,0.98740419,0.12770462,-0.07986680,0.04843333
1761617532602,0.04715687,-0.03958421,0.07393732,-0.03039622,-0.02620976,-0.00513511,0.98741572,0.12753440,-0.08001357,0.04840458
1761617532613,0.02208040,-0.03068882,-0.16748624,-0.01887064,-0.02398204,0.01549943,0.98741423,0.12742967,-0.08014667,0.04849060
1761617532625,-0.04088984,0.08886006,-0.23694874,-0.01348462,-0.02521816,0.00080330,0.98741227,0.12735415,-0.08028789,0.04849510
1761617532636,0.02280790,0.15822980,-0.13304608,0.04144996,-0.02742263,-0.01189002,0.98737308,0.12758627,-0.08044146,0.04842851
1761617532647,0.12660812,0.05884220,0.06371872,0.05948247,-0.03180707,0.00366570,0.98731497,0.12791640,-0.08061799,0.04844886
1761617532658,0.11780657,0.05809850,0.18393578,0.04159912,-0.02591931,-0.03981102,0.98728381,0.12814935,-0.08076314,0.04822592
1761617532669,-0.15205267,0.01187911,-0.22427768,0.01571600,-0.03487975,-0.06268843,0.98727347,0.12823736,-0.08095846,0.04787486
1761617532680,-0.03123738,0.00921313,-0.35017651,0.01235069,-0.00844948,-0.02346658,0.98726702,0.12830591,-0.08100536,0.04774462
1761617532691,-0.16670999,0.05121504,-0.07869753,0.01395609,-0.00293338,-0.00802019,0.98725769,0.12838406,-0.08102179,0.04769971
1761617532703,0.09467966,-0.16100725,0.29226297,0.01342372,0.01995730,-0.01641304,0.98726148,0.12845857,-0.08091102,0.04760862
1761617532714,0.00774023,-0.16206116,0.21672657,0.00285597,0.01086760,-0.00630375,0.98726604,0.12847442,-0.08085071,0.04757363
1761617532725,0.02462642,-0.11451538,0.05823543,-0.01072523,-0.00282393,-0.02079928,0.98727827,0.12841382,-0.08086666,0.04745611
1761617532736,0.10932990,-0.17438961,-0.20587662,-0.01075286,-0.00327288,-0.02192336,0.98729050,0.12835360,-0.08088499,0.04733334
1761617532747,-0.01154124,0.02405001,-0.23856509,-0.03250989,-0.01519305,-0.04010874,0.98731767,0.12817317,-0.08096931,0.04711074
1761617532758,0.03096094,0.03724988,-0.00774023,-0.01903635,-0.00281213,-0.01911192,0.98733516,0.12806752,-0.08098492,0.04700467
1761617532770,-0.01164367,0.10603019,0.20229169,-0.01466682,-0.00409927,-0.01247832,0.98734725,0.12798539,-0.08100788,0.04693479
1761617532781,0.00400834,0.16876044,0.27965053,-0.01049253,0.00191565,-0.01735111,0.98736024,0.12792715,-0.08099724,0.04683849
1761617532792,0.02322070,0.00241882,-0.06192188,-0.00130917,-0.00075246,-0.00772941,0.98736287,0.12791989,-0.08100142,0.04679559
1761617532803,-0.09281849,-0.03674065,-0.50008938,0.00144551,-0.00538392,-0.00734803,0.98736127,0.12792813,-0.08103211,0.04675371
1761617532814,-0.00142583,0.03241223,-0.33395039,-0.02226561,-0.00969798,-0.01372778,0.98737646,0.12780455,-0.08108593,0.04667752
1761617532825,0.00000000,0.04934400,-0.04257129,-0.02164157,-0.01454321,-0.03131576,0.98739357,0.12768444,-0.08116665,0.04650372
1761617532837,0.16013474,-0.01418645,0.53334870,0.01377917,-0.00416893,-0.01899132,0.98738667,0.12776161,-0.08118999,0.04639737
1761617532848,0.01257788,0.08204130,0.26296065,0.01071021,-0.00218964,-0.03267980,0.98738649,0.12782105,-0.08120214,0.04621599
1761617532859,-0.05808138,0.01419929,-0.07814959,0.02628548,0.00079370,-0.04264294,0.98737893,0.12796825,-0.08119770,0.04597719
1761617532870,-0.06192690,0.09397232,-0.24137418,0.01485813,0.00810467,-0.02611146,0.98737868,0.12804997,-0.08115312,0.04583358
1761617532881,-0.05701975,0.07924017,-0.31412698,0.01656902,0.01261179,-0.02526898,0.98737900,0.12814275,-0.08108250,0.04569207
1761617532892,0.00760263,-0.01853142,-0.04941712,0.01503579,0.01821071,-0.02483877,0.98738287,0.12822695,-0.08098052,0.04555298
1761617532903,-0.00380132,-0.06652304,0.20146978,0.01474245,0.00271486,-0.02872231,0.98738080,0.12830951,-0.08096532,0.04539213
1761617532915,0.13497034,-0.19301778,0.26486116,0.00732569,-0.00156037,-0.01792620,0.98737937,0.12835017,-0.08097398,0.04529264
1761617532926,0.01828742,-0.16317837,-0.01160943,-0.00091193,-0.01655409,-0.02390811,0.98737856,0.12834506,-0.08106668,0.04515876
1761617532937,0.03572948,-0.10142213,-0.15083091,-0.01453878,-0.01490245,-0.01860366,0.98738697,0.12826437,-0.08114939,0.04505551
1761617532948,0.05962245,0.02163925,-0.48533567,-0.01046048,-0.02494189,-0.01153857,0.98738604,0.12820579,-0.08128906,0.04499089
1761617532959,0.00176229,0.02944485,-0.02114743,-0.01175051,-0.02563351,-0.01194799,0.98738580,0.12814058,-0.08143133,0.04492458
1761617532970,0.01548047,-0.00483765,0.17415528,-0.01585603,-0.02239491,-0.00399507,0.98738796,0.12805258,-0.08155562,0.04490241
1761617532981,-0.07790987,-0.09281120,0.41475447,-0.02158826,-0.02513401,-0.00991970,0.98739452,0.12793168,-0.08169637,0.04484686
1761617532993,0.01003602,-0.07028968,-0.05178055,-0.00938621,-0.02897169,0.00068909,0.98738766,0.12787865,-0.08186006,0.04485075
1761617533004,-0.04383850,0.05006750,0.04058486,-0.02543318,-0.02132355,-0.00843325,0.98739824,0.12773750,-0.08197841,0.04480394
1761617533016,-0.19572877,0.22201835,-0.29981315,-0.04020269,-0.01110303,-0.00771981,0.98742598,0.12749628,-0.08204502,0.04475763
1761617533028,-0.11478018,-0.04439099,-0.18093146,-0.03415765,-0.02237245,-0.00733545,0.98744297,0.12729475,-0.08217702,0.04471435
1761617533037,0.06466686,-0.02124311,0.10930255,-0.05810833,-0.00737439,-0.02340280,0.98748022,0.12702164,-0.08221168,0.04460435
1761617533048,0.06260041,-0.29072995,0.39032243,-0.03965492,-0.01243767,-0.02995437,0.98751053,0.12679957,-0.08228133,0.04443661
1761617533059,0.08507066,-0.09937303,0.13767543,-0.04365618,-0.01350272,-0.01526818,0.98753865,0.12656165,-0.08235492,0.04435340
1761617533070,-0.05238145,0.15800748,0.09409131,-0.04981183,-0.01105655,-0.02612537,0.98757576,0.12628270,-0.08241684,0.04420710
1761617533082,0.02050270,0.28371563,-0.63507752,-0.01323137,-0.00828288,-0.02479701,0.98758798,0.12620596,-0.08246488,0.04406327
1761617533093,0.04718876,0.20032283,-0.18993475,-0.00877657,-0.01230087,-0.02075084,0.98759369,0.12615681,-0.08253376,0.04394707
1761617533104,0.00760204,-0.00906076,0.06231671,0.00410672,-0.00823674,-0.02130195,0.98759218,0.12618001,-0.08258030,0.04382671
1761617533115,-0.02837824,-0.08932130,0.54518893,-0.01483201,-0.02005832,-0.01174498,0.98759620,0.12609918,-0.08268962,0.04376270
1761617533126,0.03289944,-0.18205171,0.36971968,-0.02040684,-0.00571399,-0.01358420,0.98761065,0.12599102,-0.08271990,0.04369071
1761617533136,-0.05194145,-0.07008321,0.04553547,-0.02613193,-0.02815640,-0.00464617,0.98761683,0.12585383,-0.08286772,0.04366631
1761617533148,-0.00750423,0.01817376,-0.02251270,-0.02257763,-0.01695235,-0.01303225,0.98762829,0.12572627,-0.08296351,0.04359268
1761617533159,-0.12056101,0.19561942,-0.44974161,-0.01399763,-0.02266478,-0.00821887,0.98762965,0.12564648,-0.08309269,0.04354583
1761617533171,-0.06882703,0.16108781,-0.23879986,0.00397768,-0.02812867,-0.01322462,0.98761716,0.12566816,-0.08324600,0.04347376
1761617533181,-0.00470805,-0.10619710,0.03853628,0.01819591,-0.03027366,-0.02014166,0.98759484,0.12577005,-0.08341553,0.04336097
1761617533192,0.07895730,-0.13343698,0.58069038,0.00394150,-0.02707721,-0.01857072,0.98758387,0.12579193,-0.08356581,0.04325790
1761617533204,0.04563812,0.02084980,0.10966142,0.00683778,-0.02059953,0.01509213,0.98756503,0.12583125,-0.08368425,0.04334468
1761617533273,-0.04196487,0.01851612,-0.15073302,0.00626639,-0.00256538,0.00310743,0.98752524,0.12604744,-0.08377276,0.04345188
1761617533276,16.57523899,0.74162035,42.67012073,0.24434288,-0.41598433,-0.21962066,0.98744542,0.12638952,-0.08435514,0.04314442
1761617533310,-1.33502100,-0.03968278,-3.48451540,0.00706308,0.00402522,0.00668211,0.98743070,0.12651136,-0.08428570,0.04325968
1761617533336,-0.05899438,-0.17265932,0.29063186,-0.01008105,-0.00006405,-0.00282703,0.98744881,0.12638181,-0.08428653,0.04322335
1761617533354,-0.01979271,-0.08114958,-0.14886007,-0.04860636,-0.00639249,-0.01791346,0.98750844,0.12593221,-0.08434566,0.04305766
1761617533377,0.02850205,0.11499227,-0.09415569,-0.03874532,0.00042438,-0.00696321,0.98756802,0.12549438,-0.08434086,0.04297897
1761617533384,-0.35213783,-0.44519944,0.71323196,-0.05224343,-0.00378705,0.00922064,0.98758870,0.12531153,-0.08435412,0.04301124
1761617533397,-0.00250210,0.16922387,0.15137688,0.01008716,0.00022949,0.01428407,0.98757627,0.12537811,-0.08435260,0.04310552
1761617533409,-0.02726032,0.14857969,0.02764273,-0.00880802,0.00830024,0.00347798,0.98758590,0.12532746,-0.08430487,0.04312552
1761617533419,-0.19436419,0.04741853,0.06652078,0.00636728,0.00176380,0.01653873,0.98757879,0.12536025,-0.08429579,0.04321069
1761617533429,0.03133122,0.13996322,-0.41239929,0.01399721,0.01200491,0.00768654,0.98757312,0.12543304,-0.08423337,0.04325066
1761617533439,-0.30744251,0.25743398,-0.29570056,-0.00748451,0.01811225,0.00483205,0.98758442,0.12539599,-0.08414371,0.04327458
1761617533451,-0.00156458,-0.14763208,-0.20070888,-0.00084085,0.01670140,-0.01827687,0.98759828,0.12539099,-0.08404434,0.04316583
1761617533463,-0.02287843,-0.07500240,0.39906315,0.01432183,0.03011742,-0.01490971,0.98760649,0.12547548,-0.08386664,0.04307787
1761617533475,-0.09313560,0.06370416,0.30136968,0.06982065,0.04656352,-0.00170692,0.98757804,0.12588394,-0.08359425,0.04306788
1761617533486,0.21563084,0.29256294,-0.89126635,0.09020913,0.03328411,0.01786299,0.98752206,0.12641617,-0.08339787,0.04317327
1761617533497,-0.10264323,-0.01370255,0.07473463,0.02659903,0.03621328,0.02541810,0.98751429,0.12655714,-0.08320594,0.04330799
1761617533509,0.04466370,-0.17055616,0.03483501,0.01394422,0.04307801,0.01935760,0.98752002,0.12663802,-0.08295609,0.04342026
1761617533520,-0.25868841,-0.28615191,0.90009392,-0.02174669,0.02615453,0.01818373,0.98754427,0.12651189,-0.08280439,0.04352573
1761617533532,-0.03816809,-0.07820731,0.02579522,0.00536022,0.02558679,0.01697719,0.98754859,0.12654459,-0.08264831,0.04362929
1761617533543,-0.26201585,-0.09681452,-0.16364938,-0.01620119,0.02606749,0.04181481,0.98756096,0.12646115,-0.08251406,0.04384463
1761617533555,0.07072827,-0.00000402,-0.42539841,-0.01332417,0.02653403,0.02203135,0.98757861,0.12638121,-0.08235486,0.04397682
1761617533566,-0.01834554,-0.08821909,0.06897921,-0.02613702,0.02894345,0.02540457,0.98760495,0.12623223,-0.08218988,0.04412163
1761617533577,-0.03261051,-0.10713819,0.34538850,-0.04663030,0.02665916,0.03491369,0.98763997,0.12598508,-0.08204859,0.04430667
1761617533588,0.09752057,-0.10011846,0.09160199,-0.02097712,0.02773658,0.02143058,0.98766305,0.12586447,-0.08188910,0.04442990
1761617533600,0.03966131,0.01171812,-0.07571705,-0.03909277,0.03011583,0.02251828,0.98770018,0.12563968,-0.08171594,0.04455938
1761617533611,-0.02884459,0.06715382,-0.30286821,-0.03822176,0.02788825,0.02186079,0.98773568,0.12541991,-0.08155558,0.04468508
1761617533622,-0.04968839,0.12497057,-0.68621373,-0.03232242,0.03875415,0.02152321,0.98777045,0.12524213,-0.08134243,0.04480345
1761617533633,0.09606964,0.04775836,-0.06303274,-0.03861298,0.03652936,0.02426415,0.98780850,0.12502590,-0.08113787,0.04493933
1761617533645,0.01647108,-0.04721266,0.53907784,-0.03446878,0.04136696,-0.00252119,0.98785294,0.12483115,-0.08090414,0.04492509
1761617533656,0.00373433,-0.06815160,0.38463644,-0.04345498,0.02745834,-0.00352909,0.98789754,0.12458563,-0.08074901,0.04490515
1761617533668,0.13851700,-0.06018371,0.02304958,-0.03386902,0.03582554,0.00680647,0.98793746,0.12438919,-0.08054122,0.04494463
1761617533679,-0.06895510,-0.02333246,-0.19579374,-0.04348429,0.03646106,-0.00136836,0.98798379,0.12415220,-0.08034250,0.04493717
1761617533690,0.10318396,0.02987237,-0.51798059,-0.05930444,0.03732551,0.01002879,0.98803888,0.12382603,-0.08013721,0.04499233
1761617533701,-0.02343180,0.04164774,0.03001100,-0.05908876,0.03307047,0.01044053,0.98809215,0.12349809,-0.07995367,0.04505027
1761617533712,-0.02614034,-0.07719307,0.12461238,-0.05615778,0.03667852,0.01580291,0.98814443,0.12318079,-0.07974644,0.04513956
1761617533723,-0.09335836,-0.14237150,0.31741842,-0.04751199,0.03223729,0.01967377,0.98818746,0.12291235,-0.07956430,0.04525072
1761617533735,0.05228068,-0.15170733,-0.01867167,-0.06147604,0.04229745,0.02554274,0.98824319,0.12256501,-0.07932532,0.04539503
1761617533747,0.05888090,0.12380965,-0.71950330,-0.07671288,0.04224780,0.03310641,0.98831643,0.12207021,-0.07905282,0.04560857
1761617533757,-0.45531326,-0.40373856,-0.32969300,-0.15151786,0.06636413,0.02217578,0.98842650,0.12134293,-0.07873427,0.04571501
1761617533768,0.03366612,-0.14683915,-0.00329720,-0.14924818,0.07184158,0.01890644,0.98855005,0.12054445,-0.07834992,0.04581616
1761617533779,-0.00355983,-0.30300459,0.74983341,-0.19074159,0.08840794,0.05123145,0.98870687,0.11946676,-0.07785041,0.04610562
1761617533790,-0.01818613,-0.10067871,-0.19754723,-0.21091053,0.11204288,0.06632372,0.98887914,0.11829621,-0.07722858,0.04647372
1761617533800,-0.48594412,-0.75674060,-0.86090024,-0.23953742,0.12245575,0.07237358,0.98905567,0.11707457,-0.07660405,0.04684282
1761617533812,0.42289506,0.20781845,-0.43669746,-0.23863295,0.14093647,0.06689207,0.98925771,0.11572629,-0.07580776,0.04722076
1761617533822,-0.29125045,-0.72822107,-0.24871489,-0.33166438,0.15585691,0.08336603,0.98948971,0.11406797,-0.07502848,0.04763759
1761617533833,0.03983780,-0.32124927,-0.12331471,-0.37791223,0.15675188,0.03304042,0.98978861,0.11195166,-0.07415067,0.04782262
1761617533844,-0.35352245,-0.19244165,0.68043568,-0.48776770,0.15837194,0.03063618,0.99015147,0.10922016,-0.07326378,0.04799418
1761617533855,0.30351470,-0.69117278,-0.34702636,-0.51544145,0.17019967,0.06578947,0.99052096,0.10630792,-0.07230216,0.04836589
1761617533867,-0.17407153,-0.14657352,0.16838929,-0.58833492,0.19177737,0.03398354,0.99094482,0.10295441,-0.07120902,0.04855960
1761617533878,-0.32091420,-0.67129986,-1.32928346,-0.58085987,0.19866008,-0.02136597,0.99135884,0.09973063,-0.07010646,0.04844102
1761617533889,0.11741286,0.33302861,-0.24582686,-0.61309381,0.17923112,-0.05751750,0.99178809,0.09626665,-0.06909380,0.04811604
1761617533900,0.30231439,-0.37289266,-0.06322333,-0.62266300,0.16810511,-0.04272060,0.99219345,0.09281088,-0.06816082,0.04787894
1761617533911,0.56160172,-0.53629386,0.76906457,-0.63374069,0.15946841,-0.02644673,0.99258708,0.08926193,-0.06726780,0.04773084
1761617533923,-0.15585398,-0.28129743,0.28509875,-0.63637052,0.15547668,-0.05704975,0.99297502,0.08569825,-0.06639713,0.04741136
1761617533934,-0.24708558,0.08885578,-0.26229085,-0.68036845,0.14308446,-0.05495871,0.99336436,0.08188819,-0.06559586,0.04710359
1761617533945,0.15447474,-0.20303359,-0.65554240,-0.66476697,0.15508005,-0.06326455,0.99374117,0.07813226,-0.06471965,0.04674615
1761617533956,0.18189552,-0.13728642,-0.25549624,-0.68820863,0.19456550,-0.07635250,0.99412365,0.07431270,-0.06363982,0.04632239
1761617533967,-0.00774023,-0.29364515,-0.19737598,-0.68545215,0.17192992,-0.08038509,0.99448200,0.07050844,-0.06268560,0.04587626
1761617533979,0.20467668,0.03153449,0.70883183,-0.66352919,0.14169311,-0.10433301,0.99482074,0.06672632,-0.06187795,0.04528156
1761617533990,0.23084809,-0.33756089,0.38039119,-0.71020714,0.14952112,-0.12638771,0.99515722,0.06282018,-0.06105559,0.04458642
1761617534001,0.37308195,-0.49127698,-0.02667833,-0.74448562,0.11159804,-0.10172594,0.99547512,0.05865106,-0.06043064,0.04401676
1761617534012,0.15205267,-0.37490485,-0.33831718,-0.79495016,0.10328814,-0.10733146,0.99578874,0.05419934,-0.05985222,0.04341570
1761617534023,0.04561580,-0.23710713,-0.17486057,-0.87539397,0.08081734,-0.14335456,0.99610522,0.04929714,-0.05939965,0.04261292
1761617534035,-0.02660922,-0.64052185,-0.02280790,-0.97402148,0.04130305,-0.14944571,0.99640940,0.04384262,-0.05916835,0.04177602
1761617534046,0.56259486,-0.92229445,0.33071455,-1.03883453,0.04283180,-0.13866529,0.99669482,0.03802514,-0.05892849,0.04099950
1761617534057,-0.18894743,-0.65726964,0.32680516,-1.13549354,-0.00222037,-0.15262102,0.99694694,0.03177993,-0.05894070,0.04016008
1761617534068,0.27345512,0.10704385,0.28323229,-1.14152025,0.00794820,-0.16810015,0.99717211,0.02533034,-0.05889580,0.03921031
1761617534079,0.20696566,-0.98421280,-1.03030743,-1.19580383,-0.00978006,-0.13367416,0.99734428,0.01869363,-0.05895008,0.03846842
1761617534090,0.23361458,-0.48072827,0.34362605,-1.25315473,-0.00397697,-0.10746476,0.99747376,0.01161330,-0.05897255,0.03786125
1761617534101,0.15299383,-0.67119634,-0.30180273,-1.31822151,-0.00685185,-0.13676894,0.99755786,0.00436308,-0.05901023,0.03710902
1761617534113,-0.11905737,1.06742129,0.54025634,-1.22601027,-0.03063236,-0.15853416,0.99758677,-0.00256387,-0.05918330,0.03621330
1761617534124,0.30067044,0.31605673,-0.02020681,-1.11710172,-0.02751992,-0.14969373,0.99757231,-0.00876379,-0.05933604,0.03538250
1761617534135,-0.19128939,1.04493939,0.18702530,-1.00540410,-0.04085525,-0.16853387,0.99752523,-0.01449459,-0.05956891,0.03442186
1761617534146,-0.36546975,-0.38194159,-1.17213658,-1.01444884,-0.06665455,-0.16607380,0.99743863,-0.02002334,-0.05993218,0.03351675
1761617534157,-0.10257586,-0.02617211,0.33971819,-1.01856808,-0.06367939,-0.15393414,0.99731617,-0.02567639,-0.06028560,0.03266242
1761617534168,-0.21295799,-0.74879292,0.56089030,-1.02713467,-0.06595191,-0.16027171,0.99715651,-0.03147970,-0.06065823,0.03175689
1761617534180,0.14326284,-0.37649734,1.13185520,-1.13121283,-0.08854740,-0.20196765,0.99694358,-0.03775793,-0.06114967,0.03063596
1761617534191,-0.20794523,0.66344572,0.11677365,-1.06213255,-0.11092745,-0.21387050,0.99669596,-0.04375898,-0.06177641,0.02942760
1761617534202,0.22717246,1.23208439,-0.37043530,-0.85232598,-0.10742482,-0.21451319,0.99647434,-0.04848939,-0.06237262,0.02823705
1761617534213,-0.10062305,1.39662860,-0.80111429,-0.71931437,-0.10844534,-0.15868811,0.99625877,-0.05248159,-0.06297449,0.02735633
1761617534224,0.05968009,1.09868965,-0.08900534,-0.62095769,-0.09459916,-0.11673342,0.99605738,-0.05589685,-0.06349478,0.02671430
1761617534235,-0.13654478,0.27348976,-0.35298988,-0.52072977,-0.08965452,-0.06088064,0.99586815,-0.05878690,-0.06399237,0.02637641
1761617534247,0.06001849,0.25042749,0.89708132,-0.47345374,-0.06871580,-0.01161353,0.99568334,-0.06146192,-0.06438061,0.02631079
1761617534258,0.02701290,0.34235818,0.60636046,-0.50838054,-0.05811334,0.00936950,0.99548103,-0.06430885,-0.06470605,0.02636326
1761617534269,-0.02660922,0.03943866,-0.22807900,-0.51130164,-0.06070380,0.02198728,0.99526649,-0.06717214,-0.06504599,0.02648639
1761617534280,0.17105925,0.51935488,-0.17486057,-0.48155635,-0.07150031,0.00815640,0.99505335,-0.06986885,-0.06544639,0.02653206
1761617534291,0.16241020,0.67804426,-0.57131982,-0.41550970,-0.09512685,-0.00822027,0.99485146,-0.07221648,-0.06598386,0.02648562
1761617534302,0.29217325,0.24603277,-0.11370734,-0.38781881,-0.12824615,-0.00416284,0.99465164,-0.07431070,-0.06667638,0.02646314
1761617534313,0.08256250,0.53927666,0.78122619,-0.33360668,-0.14408921,0.00187372,0.99445736,-0.07616222,-0.06747608,0.02647354
1761617534325,0.22718364,-0.29122724,0.66417271,-0.25902548,-0.12197504,0.02707967,0.99429017,-0.07765162,-0.06817744,0.02662925
1761617534336,-0.24751530,0.44215097,0.19918899,-0.29262485,-0.14615567,0.03423730,0.99409921,-0.07929032,-0.06899591,0.02682098
1761617534347,0.32164879,0.16878857,0.04335952,-0.30821720,-0.11777903,0.07311571,0.99390821,-0.08097010,-0.06963780,0.02721946
1761617534358,-0.05834498,0.65301563,-0.69222325,-0.28237935,-0.11338159,0.05415929,0.99372506,-0.08255142,-0.07027274,0.02752275
1761617534369,-0.07222502,0.25848953,0.02280790,-0.26612663,-0.11156302,0.05283255,0.99354751,-0.08404173,-0.07089749,0.02781861
1761617534381,0.25468821,-0.02803471,0.09123160,-0.20502349,-0.09318237,0.05470671,0.99340372,-0.08518986,-0.07141931,0.02812497
1761617534392,-0.06842370,-0.09883423,0.58540276,-0.15299238,-0.08930587,0.01379256,0.99329160,-0.08604662,-0.07191943,0.02820221
1761617534403,0.03041053,0.02898504,0.22047636,-0.13238377,-0.09274797,-0.01881795,0.99319235,-0.08678797,-0.07243882,0.02809683
1761617534414,0.23085941,0.90166823,-0.29450902,-0.17288862,-0.08969849,-0.03794955,0.99307753,-0.08774750,-0.07293664,0.02788621
1761617534425,0.13232691,0.16837521,-0.24410617,-0.17011674,-0.07401090,-0.03924293,0.99296851,-0.08870016,-0.07335110,0.02766645
1761617534436,-0.09811464,0.15751999,0.16586047,-0.17717907,-0.07156868,-0.03030908,0.99285850,-0.08965692,-0.07373757,0.02750278
1761617534447,-0.07264738,-0.14904329,0.95384890,-0.14825461,-0.03298590,-0.03380293,0.99277467,-0.09048715,-0.07392230,0.02731348
1761617534458,-0.17105925,0.04894195,0.25848953,-0.10281878,-0.02799243,-0.04428556,0.99271713,-0.09106293,-0.07407905,0.02706548
1761617534469,0.02526336,0.17761762,-0.27297098,-0.05449577,-0.01515950,-0.06643054,0.99269326,-0.09136266,-0.07416243,0.02670011
1761617534481,-0.23634942,0.37241074,-0.21177071,-0.05360402,-0.01379537,-0.08126057,0.99267175,-0.09166552,-0.07424037,0.02624099
1761617534492,0.03393275,0.11889978,0.27271751,-0.05603256,-0.01874848,-0.10051101,0.99264999,-0.09197370,-0.07434349,0.02568818
1761617534503,-0.06269087,0.24986949,0.52736355,-0.06575702,-0.02125511,-0.09578190,0.99261956,-0.09235509,-0.07446677,0.02513265
1761617534515,-0.15617258,0.12476541,0.58528852,-0.05038679,-0.02839897,-0.10141667,0.99259575,-0.09263474,-0.07462438,0.02456978
1761617534526,0.00695854,0.03670095,-0.00784610,-0.02314805,-0.02285819,-0.06501857,0.99258319,-0.09276206,-0.07475010,0.02421218
1761617534537,-0.04449626,-0.16957112,0.03682449,-0.00045762,-0.00043799,-0.02886508,0.99258676,-0.09276466,-0.07475260,0.02404765
1761617534548,0.11704876,0.24273099,-0.55834956,0.00752801,-0.01449730,-0.04230412,0.99259023,-0.09272326,-0.07483234,0.02381498
1761617534559,-0.25134653,0.75592187,-0.04563220,-0.00414365,-0.02416096,-0.06463761,0.99258651,-0.09274626,-0.07496643,0.02345624
1761617534570,-0.08484677,0.23013256,0.36458542,0.00792461,-0.03847853,-0.02101705,0.99257704,-0.09270148,-0.07518383,0.02333749
1761617534581,0.03606401,-0.56275530,0.24419413,0.01326693,-0.05094650,-0.03973430,0.99256762,-0.09262785,-0.07546659,0.02311697
1761617534593,-0.17578521,-0.02346286,0.52413650,-0.00366904,-0.06677529,-0.03089206,0.99254121,-0.09264840,-0.07584053,0.02294397
1761617534604,0.09123160,-0.13447158,0.01140395,0.00366110,-0.06294327,-0.00178640,0.99251636,-0.09262790,-0.07619301,0.02293397
1761617534615,0.07602633,0.00332615,-0.33831718,0.00768283,-0.05148643,0.01669344,0.99249604,-0.09258487,-0.07648133,0.02302745
1761617534626,-0.18345845,0.26696301,-0.08212352,0.00386828,-0.05564844,0.01446511,0.99247254,-0.09256360,-0.07678740,0.02310701
1761617534637,-0.05727774,0.22040318,-0.02473357,0.01314064,-0.04943631,-0.00070162,0.99245816,-0.09249067,-0.07706177,0.02310312
1761617534648,-0.00253421,0.01354005,0.30663954,0.06171752,-0.05167480,-0.00595350,0.99246858,-0.09214505,-0.07735115,0.02306978
1761617534659,-0.06710507,0.05745137,0.24015460,0.06194532,-0.04632987,-0.01624180,0.99248245,-0.09180125,-0.07760828,0.02297963
1761617534671,0.04477837,-0.16881883,-0.05312175,0.05394389,-0.03294820,0.00532378,0.99249533,-0.09149647,-0.07779444,0.02300971
1761617534682,-0.26231176,-0.00858361,-0.71607446,0.03671071,-0.03743419,-0.01456761,0.99249965,-0.09129272,-0.07800220,0.02292886
1761617534693,0.09063847,0.01353098,0.20027090,0.02688353,-0.02002791,-0.02561216,0.99250782,-0.09114486,-0.07811235,0.02278800
1761617534704,-0.06241071,0.06916668,0.26394960,0.02515950,-0.01821359,-0.02902113,0.99251644,-0.09100397,-0.07821435,0.02262548
1761617534715,0.16781165,0.29500408,0.64267228,0.00711312,-0.02750111,-0.02039715,0.99251049,-0.09096378,-0.07836973,0.02251023
1761617534726,0.01517223,0.39921288,0.05359941,0.05063752,-0.03111621,-0.03567765,0.99252702,-0.09068274,-0.07854243,0.02231222
1761617534737,-0.03609538,0.03846693,-0.35181014,0.09659703,-0.04313464,-0.02791978,0.99256066,-0.09014180,-0.07878398,0.02215587
1761617534749,0.09883423,-0.04751646,-0.50557511,0.12424216,-0.03365807,-0.03524517,0.99261301,-0.08944604,-0.07897246,0.02195850
1761617534760,-0.07104430,0.13684493,0.24202055,0.10700669,-0.04386961,-0.04192099,0.99265206,-0.08885216,-0.07921594,0.02172584
1761617534771,0.07040997,-0.13657343,0.25051019,0.09268049,-0.05273748,-0.03330524,0.99267884,-0.08833315,-0.07951127,0.02153933
1761617534782,-0.21152337,0.04207795,0.44555277,0.08512070,-0.07288840,-0.05715538,0.99269540,-0.08785221,-0.07992309,0.02121640
1761617534793,0.15930609,0.36302904,0.08366360,0.08923048,-0.06525672,-0.06975054,0.99271787,-0.08736145,-0.08028200,0.02083277
1761617534805,0.12499836,0.02844459,-0.88059000,0.12822638,-0.08856573,-0.04132565,0.99274564,-0.08663697,-0.08078240,0.02059928
1761617534816,0.17264833,0.32982476,-0.26820256,0.18968759,-0.10936126,-0.03145785,0.99279099,-0.08558420,-0.08138935,0.02042469
1761617534827,0.11997364,0.06240564,0.03483106,0.21509063,-0.11161263,-0.01071736,0.99284343,-0.08439045,-0.08200880,0.02036521
1761617534838,-0.16530590,0.06595370,0.75149633,0.19986009,-0.13522712,0.00679410,0.99287431,-0.08327123,-0.08276608,0.02040326
1761617534849,-0.06462238,-0.05369360,0.12164213,0.17886796,-0.13055465,0.00907653,0.99289555,-0.08226957,-0.08349718,0.02045409
1761617534860,0.24499373,0.05258863,0.28152236,0.19341994,-0.14096646,0.00970331,0.99291542,-0.08126379,-0.08423021,0.02050454
1761617534871,0.01019627,-0.01084749,-0.28560722,0.17432709,-0.16041875,-0.01843640,0.99292032,-0.08029627,-0.08512053,0.02040222
1761617534883,0.01288074,0.59460470,-0.71997188,0.20507783,-0.17842268,-0.03742154,0.99293138,-0.07905555,-0.08619999,0.02017582
1761617534894,0.51982774,0.37849621,0.06412761,0.29720645,-0.23117114,0.01721286,0.99294706,-0.07742092,-0.08747143,0.02027049
1761617534905,0.35073146,0.17241013,0.28767862,0.32798130,-0.25702612,0.02598425,0.99295760,-0.07561702,-0.08888507,0.02041341
1761617534916,-0.08209315,0.09350410,0.54298235,0.30522206,-0.29224349,0.03904692,0.99293464,-0.07395356,-0.09047780,0.02062621
1761617534927,0.07463291,-0.15005581,0.07715381,0.27785096,-0.29474414,0.03679091,0.99289362,-0.07241149,-0.09211363,0.02083040
1761617534938,-0.04763632,-0.29474330,-0.07873177,0.25591576,-0.30244704,0.01221560,0.99283709,-0.07097836,-0.09380733,0.02089881
1761617534949,0.09063677,0.01729891,-0.29983043,0.24554846,-0.31360841,-0.00451643,0.99276813,-0.06961556,-0.09554786,0.02087374
1761617534960,0.15725807,0.23089146,-0.20081911,0.26923635,-0.35690953,-0.00410083,0.99267882,-0.06810784,-0.09754655,0.02085078
1761617534972,0.42954878,0.37728068,0.32691323,0.32484847,-0.38017850,0.00609835,0.99258975,-0.06628869,-0.09967555,0.02088493
1761617534983,0.22047636,0.77926991,0.42194615,0.37627604,-0.41083310,0.03117832,0.99249084,-0.06418154,-0.10197622,0.02105953
1761617534994,0.25746647,-0.02169598,0.00431933,0.44792451,-0.42030521,0.04889966,0.99240027,-0.06169556,-0.10430891,0.02133092
1761617535005,-0.13932422,-0.38701173,0.01548047,0.43891817,-0.43968806,0.05375267,0.99228277,-0.05925957,-0.10674918,0.02162925
1761617535016,0.06192188,-0.25494398,-0.19737598,0.37426979,-0.44692420,0.06612104,0.99212662,-0.05718237,-0.10922961,0.02199622
1761617535027,-0.06441691,-0.46033602,-0.01027383,0.37297213,-0.44131116,0.06617678,0.99196134,-0.05509372,-0.11170095,0.02236681
1761617535038,0.17336052,0.40498014,0.63732540,0.34568233,-0.41481839,0.03496898,0.99179972,-0.05317519,-0.11400319,0.02256089
1761617535050,0.11054975,0.12819533,0.25645794,0.35527806,-0.41273975,0.05263169,0.99162769,-0.05116787,-0.11633517,0.02285826
1761617535061,0.15449645,0.27101952,0.04079035,0.39021626,-0.44541192,0.05938598,0.99143631,-0.04900217,-0.11880721,0.02318785
1761617535072,0.03483106,0.10207435,-0.18189552,0.38277068,-0.43430711,0.04520180,0.99124134,-0.04687779,-0.12121762,0.02343872
1761617535083,-0.33534996,-0.54480490,-0.55224414,0.39754143,-0.43856575,0.05182133,0.99103191,-0.04463168,-0.12369551,0.02373151
1761617535094,0.08588969,-0.04714597,0.50040081,0.36054062,-0.40522526,0.03793052,0.99082797,-0.04259463,-0.12598503,0.02394582
1761617535105,-0.16973352,0.30320643,0.21262899,0.29315931,-0.43097157,0.03414164,0.99058716,-0.04098225,-0.12835538,0.02413359
1761617535117,0.32580370,-0.17659158,0.53988291,0.31303034,-0.39048024,0.07267421,0.99036031,-0.03921363,-0.13056159,0.02454420
1761617535128,-0.00626754,0.33243195,-0.09219784,0.35033261,-0.40196225,0.06701120,0.99012946,-0.03726928,-0.13279248,0.02491612
1761617535139,-0.39862209,0.45522255,-0.30960939,0.39153561,-0.39973439,0.02372594,0.98990549,-0.03509626,-0.13501101,0.02504779
1761617535150,0.05043034,0.05717569,-0.18412624,0.41564541,-0.41680034,0.04740950,0.98965514,-0.03274786,-0.13736593,0.02531566
1761617535161,0.37280693,0.20419375,0.43014039,0.44389766,-0.42392373,0.06482939,0.98939732,-0.03030643,-0.13969751,0.02567222
1761617535173,-0.04922532,0.10090766,0.20491311,0.46183470,-0.42423685,0.07276554,0.98912168,-0.02769706,-0.14209445,0.02608335
1761617535184,-0.23522094,0.41460773,0.29176575,0.45631867,-0.44954742,0.08359610,0.98881539,-0.02516449,-0.14458944,0.02654730
1761617535195,0.07353223,-0.18044422,0.18963575,0.46936652,-0.41158390,0.10335959,0.98852599,-0.02255951,-0.14687373,0.02712095
1761617535206,-0.41903523,-0.15104669,-0.13804601,0.42155370,-0.39742566,0.13871638,0.98822220,-0.02019881,-0.14909931,0.02789776
1761617535217,-0.40393230,-0.28517163,-0.61483563,0.45066529,-0.41406832,0.16298727,0.98789776,-0.01772015,-0.15137669,0.02879419
1761617535228,-0.33592035,0.40081290,-0.05122828,0.46709391,-0.36827379,0.12350191,0.98759992,-0.01508107,-0.15345743,0.02949198
1761617535239,-0.03852993,0.28288674,0.65367309,0.52461658,-0.34379325,0.11452341,0.98732254,-0.01216944,-0.15536549,0.03012758
1761617535251,-0.16754041,0.30654344,0.21305892,0.50238850,-0.35662364,0.12644110,0.98701222,-0.00933095,-0.15738041,0.03084197
1761617535262,-0.38605168,0.01355680,0.01818741,0.48025237,-0.35456758,0.12950929,0.98668366,-0.00656950,-0.15941917,0.03158665
1761617535273,0.18222653,-0.21192875,0.48674928,0.52974004,-0.35457024,0.14946748,0.98636722,-0.00376188,-0.16129840,0.03237883
1761617535284,-0.65188796,-0.74531237,-0.38548195,0.44990385,-0.34246258,0.15467454,0.98602619,-0.00121992,-0.16323331,0.03325274
1761617535295,-0.09136616,-0.19300092,0.18508712,0.44705261,-0.29282897,0.14418335,0.98572567,0.00128358,-0.16487315,0.03406017
1761617535306,-0.32218727,0.56319710,0.10884705,0.40491792,-0.28733526,0.16343098,0.98542036,0.00353087,-0.16646786,0.03496721
1761617535317,-0.13398730,0.13235417,-0.17978582,0.43468714,-0.27453196,0.19935890,0.98511309,0.00592165,-0.16797779,0.03606368
1761617535329,-0.39678834,0.26597121,-0.47108680,0.45104346,-0.26271988,0.20600165,0.98479975,0.00844749,-0.16944902,0.03721729
1761617535339,0.11632406,-0.06490010,0.23532223,0.48879173,-0.22168158,0.19520755,0.98452127,0.01113585,-0.17066827,0.03829093
1761617535351,-0.72688347,-0.98548047,-0.65897163,0.46704024,-0.22739072,0.18828901,0.98421965,0.01379798,-0.17196439,0.03936418
1761617535362,-0.21612193,-0.05058228,0.20609708,0.43076957,-0.21812073,0.19947513,0.98392871,0.01616721,-0.17316406,0.04046130
1761617535373,-0.19269666,-0.50415315,-0.12500479,0.41781480,-0.19082873,0.21146826,0.98365191,0.01848608,-0.17422316,0.04163494
1761617535384,0.13174473,0.44296897,-0.00003425,0.41067315,-0.15254642,0.20444955,0.98340517,0.02078585,-0.17507742,0.04277986
1761617535396,-0.28624340,0.57831753,-0.38093545,0.45766613,-0.15254577,0.21396356,0.98313993,0.02337166,-0.17593930,0.04398876
1761617535407,-0.05825725,0.10743857,-0.03400908,0.50028420,-0.11487479,0.25814421,0.98289052,0.02614824,-0.17657686,0.04542146
1761617535418,-0.28638868,-0.56793972,0.04257129,0.48091920,-0.09164070,0.27859330,0.98265169,0.02881734,-0.17708546,0.04696765
1761617535429,-0.20592177,-0.32476001,-0.12972421,0.41219787,-0.05437403,0.26493290,0.98245431,0.03112565,-0.17738996,0.04845127
1761617535440,-0.05926117,-0.05206949,-0.12840496,0.37262245,-0.02405718,0.28323165,0.98228370,0.03319371,-0.17752347,0.05002321
1761617535451,0.05493074,-0.08809380,-0.30609160,0.40623847,-0.00461712,0.26710596,0.98212219,0.03546864,-0.17754933,0.05151900
1761617535462,-0.01285432,-0.02189467,0.05342144,0.38322979,0.00943956,0.28663071,0.98196780,0.03759557,-0.17749694,0.05310980
1761617535474,-0.15071707,-0.57653302,-0.20119581,0.39488991,0.02532458,0.27711971,0.98182110,0.03980695,-0.17735512,0.05466167
1761617535485,-0.13818392,-0.25615339,0.08303475,0.32732152,0.02529423,0.28340539,0.98168227,0.04162358,-0.17721474,0.05623457
1761617535496,0.10062305,-0.23414210,0.00387012,0.28973313,0.02595954,0.24944611,0.98155848,0.04323160,-0.17707067,0.05761900
1761617535507,0.30093352,0.10048219,-0.17295687,0.24945276,0.02928528,0.21618254,0.98145277,0.04464101,-0.17690520,0.05884043
1761617535518,0.27719335,-0.26168533,0.06556430,0.23793776,0.03058932,0.23013775,0.98134400,0.04597346,-0.17673390,0.06012920
1761617535529,0.08735408,0.01081560,-0.00618528,0.27108476,0.04013740,0.21058999,0.98124014,0.04747798,-0.17651114,0.06129798
1761617535540,0.02709082,-0.21575904,-0.12384376,0.28071232,0.05627594,0.20516832,0.98114786,0.04903594,-0.17619881,0.06243666
1761617535552,0.00178497,-0.79831589,0.04660758,0.24406974,0.06084181,0.21002119,0.98106265,0.05042713,-0.17585201,0.06363378
1761617535563,-0.23404025,-0.07749146,0.16885933,0.20754935,0.07344692,0.18320818,0.98100926,0.05157903,-0.17544438,0.06465059
1761617535574,0.03663882,-0.35377138,0.06937233,0.18030499,0.08370255,0.14845974,0.98098469,0.05257071,-0.17498402,0.06546712
1761617535585,0.06932219,0.30809671,0.11203517,0.15467789,0.07584533,0.10547159,0.98097397,0.05343691,-0.17455928,0.06605776
1761617535596,0.02280790,0.24185877,-0.01140395,0.13679448,0.07878189,0.06065331,0.98098742,0.05420296,-0.17411810,0.06639741
1761617535607,0.17486057,-0.26086535,-0.72605148,0.17364338,0.07604829,0.05250699,0.98098876,0.05517536,-0.17369223,0.06669145
1761617535619,0.01164491,0.40623274,-0.16914486,0.21848715,0.07834023,0.03578813,0.98098317,0.05638796,-0.17325745,0.06689008
1761617535630,0.20893543,0.16236502,-0.32273521,0.26606774,0.08141304,0.06034726,0.98095370,0.05787794,-0.17280153,0.06722802
1761617535641,-0.03041053,0.03041053,0.61581329,0.27942527,0.09697229,0.06247432,0.98093160,0.05944272,-0.17225849,0.06757788
1761617535652,0.15728026,-0.00007917,0.20562547,0.27187804,0.11778713,0.05182864,0.98093372,0.06093805,-0.17161066,0.06786294
1761617535663,-0.09505578,-0.29863217,-0.19116397,0.24649735,0.11159216,0.02903786,0.98094495,0.06233076,-0.17098016,0.06802700
1761617535675,0.11949870,0.09849307,-0.06348368,0.20729253,0.11754188,0.01586405,0.98097914,0.06350197,-0.17031605,0.06811663
1761617535686,-0.18660734,-0.09858241,-0.41402393,0.22760227,0.12729419,0.01170494,0.98101383,0.06474240,-0.16962230,0.06818042
1761617535697,0.20240778,-0.04541156,-0.25787463,0.21967433,0.13731860,0.02477370,0.98105523,0.06598356,-0.16884645,0.06832040
1761617535708,-0.02687834,0.28104093,0.15168263,0.20484928,0.15741536,0.02890251,0.98111744,0.06713071,-0.16796492,0.06848225
1761617535719,-0.00760263,0.40674088,-0.19006583,0.26993497,0.16320448,0.03102674,0.98115674,0.06864235,-0.16705098,0.06865600
1761617535730,0.09883423,-0.33071455,-0.12164213,0.30839871,0.18080574,0.04988484,0.98118668,0.07036938,-0.16603846,0.06893535
1761617535741,-0.31463089,-0.04022610,-0.12589458,0.27322212,0.20019885,0.04204143,0.98124719,0.07187210,-0.16493737,0.06916658
1761617535753,-0.27639028,-0.07738271,-0.42374313,0.24107115,0.19574334,0.02816145,0.98131989,0.07322210,-0.16384121,0.06932429
1761617535764,-0.15560945,-0.12655962,-0.21824635,0.21186098,0.21930253,0.01103517,0.98143250,0.07442971,-0.16259118,0.06938719
1761617535775,0.08176220,-0.28856140,0.30381113,0.20301318,0.24570356,0.01318203,0.98156261,0.07552598,-0.16126438,0.06945837
1761617535786,0.05203158,-0.06239220,0.05332162,0.20916128,0.24716871,0.02105626,0.98168874,0.07668683,-0.15989260,0.06957523
1761617535797,-0.19522831,0.34294058,-0.00396983,0.24461993,0.26130396,0.04877123,0.98179958,0.07806893,-0.15841623,0.06985079
1761617535808,-0.18179040,-0.11324896,-0.59482195,0.27344437,0.28462801,0.07773889,0.98190143,0.07960022,-0.15682231,0.07028613
1761617535820,-0.37636891,0.05927845,-0.08852893,0.27590848,0.30813569,0.06895156,0.98202027,0.08113151,-0.15511216,0.07066881
1761617535831,-0.30186915,0.08707764,0.08901270,0.25927999,0.33279836,0.05565900,0.98216805,0.08257051,-0.15326513,0.07097772
1761617535842,-0.23253099,-0.12936891,0.29982457,0.24215580,0.33840543,0.05218862,0.98232582,0.08392659,-0.15137006,0.07126997
1761617535853,-0.07111341,-0.21293852,-0.15159111,0.23626341,0.35608266,0.04879461,0.98249576,0.08523785,-0.14939380,0.07154078
1761617535864,-0.22602423,0.19250587,-0.02462294,0.19676437,0.37315505,0.03757454,0.98269970,0.08633973,-0.14730413,0.07175120
1761617535875,-0.15585398,0.23283064,-0.29650270,0.24155764,0.40108960,0.03437597,0.98289995,0.08769245,-0.14505803,0.07194370
1761617535887,-0.21287373,0.38678397,-0.31931060,0.30098688,0.41780079,0.04119299,0.98307370,0.08937798,-0.14271835,0.07217439
1761617535898,-0.23948295,-0.23188031,-0.06462238,0.29854941,0.41874624,0.06212747,0.98323230,0.09104985,-0.14037337,0.07252230
1761617535909,0.10255811,-0.09976782,0.01091926,0.31195036,0.45500140,0.04364260,0.98340982,0.09278118,-0.13784811,0.07276452
1761617535920,-0.08643715,-0.27650298,0.29708488,0.28373231,0.45727014,0.04139799,0.98359704,0.09437008,-0.13528740,0.07299634
1761617535931,0.03534281,-0.24539912,0.13613649,0.24930414,0.47423966,0.03662373,0.98381038,0.09577865,-0.13260794,0.07320327
1761617535942,-0.36778640,-0.25439999,-0.16520907,0.24622190,0.51436857,0.03442300,0.98403253,0.09708362,-0.12988179,0.07338571
1761617535953,-0.18934860,0.15242025,-0.16345662,0.22280199,0.51581827,0.02415510,0.98427554,0.09833132,-0.12699321,0.07352098
1761617535964,-0.40111002,-0.00561081,-0.10017384,0.22873125,0.58194163,0.04981132,0.98453859,0.09960077,-0.12376343,0.07379743
1761617535975,-0.20307935,-0.10420231,-0.02996533,0.22574659,0.61746074,0.02217661,0.98482912,0.10086495,-0.12030565,0.07392162
1761617535987,-0.37173859,-0.28574078,0.18891010,0.22509773,0.64725380,-0.02050032,0.98514114,0.10211425,-0.11671339,0.07380784
1761617535998,0.11223340,-0.21721034,0.04644141,0.20890116,0.64549785,-0.04590879,0.98545721,0.10327365,-0.11313088,0.07355305
1761617536009,-0.03551320,0.05180578,0.18109335,0.16019287,0.62276331,-0.06249741,0.98578299,0.10417073,-0.10964340,0.07320307
1761617536020,-0.38600965,-0.47750164,-0.29108811,0.15081923,0.61519856,-0.09618506,0.98610747,0.10500778,-0.10622905,0.07266924
1761617536031,0.16208677,-0.07652718,0.12883381,0.11366803,0.60216250,-0.07857469,0.98642925,0.10564432,-0.10285694,0.07222922
1761617536042,-0.11023818,-0.25896470,-0.16345662,0.09319157,0.59811057,-0.06899011,0.98674495,0.10616619,-0.09950752,0.07184288
1761617536053,0.17105925,-0.13969839,-0.03801317,0.06654653,0.60582058,-0.08742000,0.98707654,0.10653885,-0.09611493,0.07135332
1761617536065,0.12924477,-0.38725913,-0.04561580,-0.00341062,0.59523549,-0.05148529,0.98741829,0.10651975,-0.09278161,0.07106501
1761617536076,-0.03793023,-0.61984080,-0.08409392,-0.04016403,0.62163583,-0.06508555,0.98778307,0.10629885,-0.08936261,0.07070703
1761617536087,-0.37455374,-0.28998380,-0.11915922,-0.11520218,0.57263901,-0.05271783,0.98816151,0.10564796,-0.08612720,0.07040918
1761617536098,0.05022448,-0.54458066,-0.00625703,-0.15048241,0.57226741,-0.07410533,0.98855477,0.10480525,-0.08292250,0.06999419
1761617536109,-0.04941712,-0.06842370,-0.05701975,-0.20051148,0.56494723,-0.11461680,0.98897864,0.10368239,-0.07975880,0.06935234
1761617536121,0.56259486,-0.23805745,-0.18246320,-0.21256417,0.55004674,-0.10048022,0.98938555,0.10249203,-0.07667854,0.06878965
1761617536132,0.03574871,-0.07249142,-0.13180578,-0.22788178,0.52808847,-0.11057138,0.98977745,0.10123868,-0.07377405,0.06818150
1761617536143,0.11314101,-0.15688207,-0.14804400,-0.23607420,0.49427412,-0.11408561,0.99015796,0.09991667,-0.07100612,0.06754262
1761617536154,0.15727549,0.00997351,-0.13863716,-0.26713061,0.46669758,-0.11348991,0.99053815,0.09840738,-0.06836927,0.06690141
1761617536165,-0.07972279,-0.35887463,-0.13639363,-0.30020369,0.44769283,-0.10712138,0.99090725,0.09675626,-0.06590696,0.06631224
1761617536176,0.29384746,-0.06250240,0.19551129,-0.32891529,0.43356987,-0.10597388,0.99128006,0.09493078,-0.06350065,0.06572408
1761617536188,0.20720509,-0.29317889,-0.26093241,-0.27708395,0.40982468,-0.09777717,0.99161079,0.09336525,-0.06118514,0.06517164
1761617536199,0.08457089,0.25063880,0.06583342,-0.27461954,0.39964347,-0.07775776,0.99191844,0.09182738,-0.05894714,0.06473620
1761617536210,-0.22504800,0.29377455,0.01161129,-0.25221289,0.38061692,-0.08318768,0.99219780,0.09044021,-0.05685375,0.06427867
1761617536221,0.05446311,0.49556413,0.17609034,-0.22205893,0.37191451,-0.09433331,0.99245925,0.08920779,-0.05478962,0.06375512
1761617536232,-0.00780811,-0.03508513,-0.06427992,-0.19551498,0.33344292,-0.08433701,0.99268858,0.08811290,-0.05292234,0.06328283
1761617536243,-0.03856295,-0.14068913,0.08807972,-0.18856966,0.30572279,-0.08412493,0.99289957,0.08706634,-0.05122558,0.06281594
1761617536254,0.11044366,0.10284531,0.30804363,-0.19429980,0.28455058,-0.09817885,0.99310992,0.08597826,-0.04963209,0.06226613
1761617536265,-0.05321843,-0.08980611,0.18246320,-0.18867720,0.25623644,-0.08673714,0.99330183,0.08492167,-0.04819717,0.06178041
1761617536277,-0.02290971,0.59203293,0.13203320,-0.20004819,0.24334580,-0.08389074,0.99348958,0.08381140,-0.04684660,0.06131481
1761617536288,-0.19777120,0.37498619,-0.03202010,-0.16519679,0.24412292,-0.10675861,0.99366741,0.08288630,-0.04547951,0.06071696
1761617536299,-0.08296564,0.13103975,0.03230857,-0.14447248,0.22651293,-0.09836354,0.99382391,0.08208448,-0.04422237,0.06017105
1761617536310,0.05181434,-0.05526892,0.33670761,-0.12148379,0.20355892,-0.09166398,0.99396087,0.08140417,-0.04308244,0.05965773
1761617536321,0.02057218,0.01480814,0.24566586,-0.11732370,0.20009758,-0.10053581,0.99409722,0.08074129,-0.04195189,0.05908970
1761617536333,-0.11192516,0.00440954,0.16870972,-0.10493212,0.19035419,-0.09348277,0.99421907,0.08015892,-0.04089542,0.05857087
1761617536344,-0.14319434,0.29219386,-0.28638868,-0.10582586,0.17277532,-0.07296560,0.99432900,0.07957158,-0.03993652,0.05816591
1761617536355,-0.05031153,0.21624281,0.14706446,-0.08147207,0.16416733,-0.07112910,0.99442427,0.07911941,-0.03902539,0.05777115
1761617536366,0.07287569,0.08975474,-0.08691659,-0.04580371,0.15381322,-0.06326669,0.99449859,0.07886291,-0.03816403,0.05741685
1761617536377,0.14706446,-0.11717039,0.31990666,-0.02696004,0.13005074,-0.06782959,0.99455955,0.07871328,-0.03744225,0.05704040
1761617536388,0.09827019,0.16793991,0.12393953,-0.03777352,0.09633128,-0.06040886,0.99461627,0.07849986,-0.03689798,0.05669909
1761617536400,0.00218660,0.30305829,0.13570364,-0.01535150,0.08568864,-0.03972005,0.99465339,0.07841389,-0.03641812,0.05647666
1761617536411,0.10309422,0.34924487,-0.43334758,-0.00102551,0.06944011,-0.02392723,0.99467521,0.07840825,-0.03603620,0.05634506
1761617536422,0.22517046,0.10307266,-0.06586236,0.00987144,0.07508220,-0.01046004,0.99468919,0.07846304,-0.03561950,0.05628700
1761617536433,-0.10836329,-0.04789270,0.17802540,0.01847948,0.07439334,0.00171049,0.99469525,0.07856560,-0.03520661,0.05629650
1761617536444,-0.11818328,-0.41717738,0.09397129,0.01069254,0.06696027,0.00688952,0.99470154,0.07862548,-0.03483164,0.05633508
1761617536455,-0.02280790,-0.03611251,0.00000000,-0.01691623,0.05834703,0.01233749,0.99471649,0.07853075,-0.03450489,0.05640417
1761617536466,0.10643687,0.07982765,-0.21287373,-0.03184388,0.06100523,0.00768894,0.99473991,0.07835242,-0.03416326,0.05644723
1761617536477,0.11613808,-0.13112614,-0.47215432,-0.02712693,0.06471949,0.00684067,0.99476187,0.07820187,-0.03380407,0.05648519
1761617536489,-0.12384376,0.12481128,0.08901270,-0.04370683,0.05408686,0.01943538,0.99478493,0.07795930,-0.03350389,0.05659306
1761617536500,0.00763688,-0.17858055,0.28088648,-0.02560503,0.06942566,0.04369042,0.99479523,0.07781591,-0.03311510,0.05683772
1761617536511,0.01164491,-0.18892306,0.18099710,-0.00718578,0.09484229,0.05599809,0.99479793,0.07777603,-0.03258873,0.05714851
1761617536522,-0.12938175,0.19864020,-0.17177842,0.00044496,0.07561583,0.06237310,0.99479138,0.07777852,-0.03216528,0.05749780
1761617536533,0.31170796,0.05416876,-0.18246320,0.04409930,0.09642255,0.05469446,0.99477161,0.07802547,-0.03162532,0.05780409
1761617536544,0.06082107,-0.06082107,-0.35732376,0.03183452,0.08663704,0.06002484,0.99475333,0.07820375,-0.03114015,0.05814023
1761617536556,-0.05570205,-0.02875376,0.22647097,0.01181399,0.09513252,0.02667309,0.99475589,0.07826932,-0.03061216,0.05828827
1761617536567,0.13883367,0.12828159,0.07965642,-0.03609848,0.09012373,0.01997223,0.99478062,0.07806716,-0.03010747,0.05840011
1761617536578,0.22105926,-0.23033258,0.18958415,-0.04144565,0.09590834,0.03313943,0.99480421,0.07783300,-0.02956559,0.05858735
1761617536589,-0.02371457,0.08975789,-0.12199052,-0.04906517,0.08959718,0.02529494,0.99483161,0.07756314,-0.02907280,0.05872647
1761617536600,0.23360819,0.15041119,-0.01824632,-0.05102448,0.08897988,0.01896906,0.99486201,0.07727740,-0.02857452,0.05883270
1761617536611,0.13089290,-0.03940090,-0.40111002,-0.02869378,0.08738301,0.03112439,0.99487795,0.07711815,-0.02808954,0.05900544
1761617536622,0.45280373,-0.10691199,0.05418164,-0.03649021,0.06355540,0.02609597,0.99489492,0.07691563,-0.02773681,0.05915027
1761617536634,0.09201265,0.11359021,0.05937928,-0.02750213,0.03398736,-0.00508455,0.99491396,0.07676024,-0.02754478,0.05912154
1761617536645,0.23141932,-0.06097147,0.26851080,-0.02449640,0.02380440,-0.00619160,0.99493013,0.07662429,-0.02741266,0.05908718
1761617536656,0.32895997,0.03047717,-0.06579199,-0.00117940,0.02025074,0.01199957,0.99492977,0.07661774,-0.02730027,0.05915378
1761617536667,0.28242755,0.22645659,-0.09564935,-0.00224686,0.00752698,0.01878101,0.99492564,0.07660516,-0.02725812,0.05925895
1761617536678,0.25684448,0.20592393,-0.76652512,0.02389697,0.00152634,0.00748084,0.99491317,0.07673779,-0.02724965,0.05930047
1761617536689,0.32895997,-0.11755481,-0.04644141,0.01975322,0.00502812,0.01741756,0.99489971,0.07684742,-0.02722174,0.05939714
1761617536701,-0.37141488,-0.00916342,0.23866097,0.03734053,-0.02720472,0.01592954,0.99487380,0.07705839,-0.02737545,0.05948714
1761617536712,0.66449572,0.08140946,0.36464725,0.02625984,-0.02538139,0.01212046,0.99485459,0.07720413,-0.02751632,0.05955441
1761617536723,0.18189552,0.09675293,0.00774023,0.04614898,-0.02573862,-0.00446590,0.99483220,0.07746026,-0.02765917,0.05952962
1761617536734,0.27395212,0.04391628,-0.14547083,0.04402175,-0.03678115,-0.00135823,0.99480746,0.07770898,-0.02786698,0.05952195
1761617536745,0.21085533,0.10087366,-0.29979941,0.02075227,-0.04520863,-0.00698645,0.99479359,0.07782520,-0.02812015,0.05948282
1761617536756,0.21252187,-0.06139032,0.01520024,0.01074018,-0.03490413,-0.00494815,0.99478515,0.07788427,-0.02831212,0.05945561
1761617536768,0.04596137,-0.02951204,0.10291201,0.01326437,-0.04129872,-0.00532542,0.99477450,0.07795855,-0.02854339,0.05942579
1761617536779,-0.03041053,-0.12306763,0.16725793,0.02435400,-0.03453008,-0.00177956,0.99475884,0.07809493,-0.02873676,0.05941582
1761617536790,0.07156262,0.02331141,-0.02671072,0.03290574,-0.04523346,-0.00463603,0.99473873,0.07827756,-0.02898781,0.05939009
1761617536801,0.23220704,0.20850257,-0.28251857,0.02744045,-0.05906244,-0.00918742,0.99472017,0.07842985,-0.02931561,0.05933910
1761617536812,0.27674270,0.18840062,-0.31314630,0.04796152,-0.05726227,-0.00725587,0.99469188,0.07869844,-0.02963627,0.05929847
1761617536823,0.08842527,-0.04400099,-0.00912242,0.05611889,-0.06981015,0.00063071,0.99465536,0.07900990,-0.03002372,0.05930197
1761617536834,-0.02709082,-0.13158399,0.38701173,0.04371284,-0.06844436,0.00444557,0.99462305,0.07925250,-0.03040359,0.05932664
1761617536845,0.01178691,-0.08631601,0.12028325,0.06511214,-0.05789879,0.00944254,0.99458157,0.07961062,-0.03072203,0.05937858
1761617536857,0.00726498,0.19439757,0.07319295,0.07781521,-0.03753293,0.00901284,0.99453666,0.08005027,-0.03093409,0.05942950
1761617536868,-0.06551800,0.13726073,-0.19758148,0.11235507,-0.03380577,0.01798869,0.99447445,0.08067385,-0.03112171,0.05952934
1761617536879,-0.08318377,0.09483172,-0.21102444,0.12954737,-0.01869132,0.00358553,0.99441085,0.08139931,-0.03122638,0.05954941
1761617536890,0.06453065,0.21546868,0.02378556,0.15411062,-0.00322392,-0.00252803,0.99434138,0.08224692,-0.03124412,0.05953551
1761617536901,-0.01396120,0.46168718,0.04126156,0.16854129,-0.01461837,0.00715044,0.99425788,0.08319075,-0.03132598,0.05957555
1761617536912,0.12308355,0.53787720,0.13998076,0.27785222,-0.02150169,0.03185440,0.99411327,0.08473283,-0.03144531,0.05975234
1761617536923,0.15645308,0.39328724,0.03060558,0.32994177,-0.02749167,0.03929706,0.99394231,0.08651452,-0.03159377,0.05996455
1761617536934,0.29354612,0.43667625,0.28031190,0.27409749,-0.02245966,0.04764284,0.99378738,0.08804946,-0.03171954,0.06023135
1761617536945,-0.01864844,-0.19289703,-0.34897218,0.24440159,-0.01353667,0.05377753,0.99364701,0.08939367,-0.03179399,0.06052713
1761617536956,-0.00829378,0.06305866,0.20589313,0.23643416,0.00178925,0.04422960,0.99351220,0.09071770,-0.03178397,0.06077481
1761617536968,-0.19006583,-0.15727948,0.09503292,0.25501985,0.01149726,0.02452822,0.99337441,0.09214581,-0.03171959,0.06091217
1761617536979,-0.30332045,-0.33192303,0.61196231,0.24563015,0.01557576,0.01431380,0.99324490,0.09350906,-0.03163314,0.06099161
1761617536990,0.10890127,-0.05152793,0.14526897,0.24782800,0.02440783,0.00762548,0.99311381,0.09490929,-0.03149524,0.06103469
1761617537001,-0.20839962,0.39710303,-0.17526424,0.25706275,0.02610017,0.00852520,0.99297687,0.09634884,-0.03134908,0.06108244
1761617537012,-0.08403146,0.15177623,-0.09051747,0.34282859,0.05212557,0.01382418,0.99279810,0.09821726,-0.03106499,0.06115778
1761617537023,0.08222388,-0.47884274,-0.10867256,0.35614412,0.06581829,0.03535203,0.99259621,0.10022947,-0.03069312,0.06135752
1761617537034,-0.17311634,-0.11446638,0.33517750,0.30208092,0.07191699,0.01118822,0.99243539,0.10189091,-0.03029758,0.06141905
1761617537046,0.11562914,-0.14137442,0.38932394,0.24070290,0.08084508,0.00499664,0.99230806,0.10323885,-0.02984485,0.06144703
1761617537057,-0.01520527,-0.03516218,0.04561580,0.20662709,0.06964135,0.01995750,0.99219172,0.10439596,-0.02945485,0.06155879
1761617537068,0.02790748,0.16270195,-0.26070322,0.23233568,0.06620067,0.01755381,0.99205760,0.10570866,-0.02908082,0.06165797
1761617537079,0.27498435,0.27516308,-0.48241706,0.28808693,0.09132413,0.01357905,0.99189744,0.10729314,-0.02857854,0.06173266
1761617537091,0.04436284,-0.37628361,0.02448295,0.26456816,0.08342381,0.02200758,0.99173893,0.10880118,-0.02810302,0.06185810
1761617537102,-0.15933160,-0.13751113,0.11628848,0.23019246,0.07949215,-0.00978154,0.99161145,0.11010176,-0.02765389,0.06180284
1761617537113,-0.30221164,0.03948033,0.27799772,0.21074846,0.08465628,-0.04282039,0.99150866,0.11127142,-0.02718405,0.06156518
1761617537124,0.04434291,-0.02288595,0.01995253,0.18735474,0.07758365,-0.02388604,0.99141224,0.11230187,-0.02675734,0.06143381
1761617537135,0.12672973,0.12026679,-0.15432986,0.18098818,0.07901447,-0.01449252,0.99131289,0.11332445,-0.02631091,0.06135193
1761617537146,0.08655817,-0.15605841,-0.10549495,0.18866315,0.07417913,-0.01074190,0.99120812,0.11436210,-0.02590292,0.06129285
1761617537157,0.02403553,-0.13702885,-0.03174184,0.16705148,0.07759275,-0.02102315,0.99111747,0.11530594,-0.02546452,0.06117407
1761617537169,-0.02535905,-0.22790675,0.08283090,0.15794289,0.08278911,0.00716357,0.99102181,0.11620621,-0.02499262,0.06121490
1761617537180,-0.13447730,-0.02740647,0.06433394,0.21092589,0.11367414,-0.01221760,0.99090695,0.11734521,-0.02437878,0.06114892
1761617537191,-0.21185432,-0.01742257,-0.06663021,0.19023283,0.11444809,-0.02663529,0.99080405,0.11842003,-0.02373215,0.06099843
1761617537202,-0.20833944,0.05231590,-0.00854422,0.19079652,0.14651282,-0.03945182,0.99071038,0.11946941,-0.02292633,0.06078145
1761617537213,-0.21335754,-0.02252280,-0.04630695,0.16279629,0.13979390,-0.05094480,0.99063529,0.12038107,-0.02214349,0.06049616
1761617537224,-0.01900658,-0.19291682,-0.03421185,0.13718881,0.14115540,-0.04179792,0.99057325,0.12114933,-0.02135302,0.06026209
1761617537236,-0.08743028,-0.22950449,0.06462238,0.13392719,0.12887062,-0.03328132,0.99050786,0.12189932,-0.02063134,0.06007571
1761617537247,-0.00072565,-0.10432903,0.07567462,0.13123655,0.12897991,-0.02861144,0.99044222,0.12262768,-0.01991550,0.05991692
1761617537258,0.00832180,0.11052499,-0.03318447,0.15003056,0.11081977,-0.02330312,0.99035801,0.12346785,-0.01929491,0.05978642
1761617537269,0.02230776,0.21918078,-0.01456690,0.20905525,0.10426071,-0.02760165,0.99023414,0.12461766,-0.01872148,0.05963461
1761617537280,0.04689879,0.29968342,-0.23846959,0.23059245,0.09441123,-0.01106496,0.99008571,0.12589745,-0.01819749,0.05957320
1761617537291,-0.01860439,0.14367936,0.10782470,0.20565637,0.08719367,-0.00231994,0.98994699,0.12705940,-0.01770485,0.05956010
1761617537302,-0.02363169,-0.06983336,-0.01688467,0.19960157,0.09305457,-0.00881797,0.98981622,0.12816719,-0.01718840,0.05951116
1761617537314,-0.18576563,-0.08514258,0.44893361,0.17583116,0.08745641,-0.00638119,0.98969981,0.12914306,-0.01670301,0.05947574
1761617537324,-0.10063252,0.00923966,0.08037094,0.20082340,0.08806929,-0.00634616,0.98956890,0.13021746,-0.01623184,0.05944179
1761617537335,0.06778423,0.10856845,-0.16164477,0.18551207,0.07682141,-0.00825648,0.98944138,0.13125633,-0.01580164,0.05939555
1761617537347,0.15632510,0.18873733,-0.25494398,0.23896662,0.06300989,-0.02005534,0.98927674,0.13258259,-0.01545194,0.05928425
1761617537358,0.08455361,0.06573538,0.02458870,0.24093768,0.02989206,-0.02123119,0.98910470,0.13393184,-0.01528454,0.05916535
1761617537369,0.10432040,-0.02665889,0.27318882,0.22480710,0.00255507,-0.01122647,0.98893890,0.13517952,-0.01527036,0.05910304
1761617537380,0.08367530,-0.20623233,0.21308617,0.20361176,-0.01770172,0.00546197,0.98877470,0.13635029,-0.01537215,0.05913445
1761617537391,0.14207588,-0.03586797,0.12214826,0.18211517,-0.02756901,0.02094429,0.98862815,0.13734282,-0.01552240,0.05924860
1761617537402,0.01454265,-0.16739307,-0.04202373,0.16498773,-0.03434850,0.01776761,0.98849034,0.13826675,-0.01571475,0.05934809
1761617537414,0.20031313,0.01287592,-0.22477780,0.15350895,-0.03520166,0.03606892,0.98835563,0.13911872,-0.01591012,0.05954828
1761617537425,0.05996491,-0.19902547,-0.11174501,0.13541247,-0.04196616,0.03806884,0.98823191,0.13987703,-0.01614513,0.05976146
1761617537436,-0.03341432,-0.11024219,-0.03044262,0.10559229,-0.04212408,0.02951756,0.98813502,0.14046307,-0.01637892,0.05992529
1761617537447,0.02084010,-0.33641499,0.07118297,0.11091777,-0.03600988,0.00975896,0.98804155,0.14107312,-0.01657697,0.05997896
1761617537458,-0.07098095,-0.07208679,-0.14237659,0.08547035,-0.03723214,-0.00164760,0.98797013,0.14155175,-0.01678547,0.05996973
1761617537469,0.21595789,-0.01190319,-0.24980030,0.05386426,-0.02084101,-0.00820238,0.98792728,0.14185609,-0.01690323,0.05992339
1761617537480,0.04746401,-0.10895187,-0.20924617,0.04628639,-0.01940241,-0.01056463,0.98789239,0.14211066,-0.01700994,0.05986528
1761617537492,-0.10221892,-0.06572004,0.00950558,0.04373579,-0.01178117,-0.01409518,0.98786048,0.14235777,-0.01707650,0.05978565
1761617537503,-0.24499990,-0.23709871,-0.09183712,0.05408454,-0.00076718,-0.00516694,0.98781847,0.14266064,-0.01708080,0.05975671
1761617537514,-0.09479039,-0.03934645,-0.05024524,0.03967050,0.01323619,0.00228180,0.98778743,0.14287883,-0.01700800,0.05976926
1761617537525,-0.06655760,-0.14952133,-0.10650598,0.04513020,0.02011877,-0.01967244,0.98775943,0.14313156,-0.01689533,0.05965910
1761617537536,0.02166575,-0.03143175,-0.01060827,-0.00029631,0.00840518,-0.01322285,0.98776490,0.14312991,-0.01684869,0.05958571
1761617537547,0.16320051,-0.14791833,-0.26688716,-0.00784926,0.00847163,-0.01276526,0.98777649,0.14308557,-0.01680082,0.05951359
1761617537559,-0.04687114,-0.08674126,-0.09928731,-0.00333824,-0.00408558,-0.01567144,0.98778395,0.14306721,-0.01682329,0.05942739
1761617537570,-0.00229446,-0.04515162,0.00409724,-0.02235266,-0.00054183,-0.00713352,0.98780497,0.14293868,-0.01682641,0.05938637
1761617537581,-0.05258614,-0.21172079,0.00858328,-0.01099895,0.01552923,-0.00657181,0.98781701,0.14287983,-0.01674333,0.05935122
1761617537592,-0.09890529,-0.04125494,0.03797764,-0.03578865,0.02796819,-0.02501348,0.98785703,0.14267942,-0.01658670,0.05921114
1761617537603,-0.05321843,0.02993537,0.03801317,-0.03404760,0.02633129,-0.00103709,0.98788736,0.14248875,-0.01643925,0.05920533
1761617537614,0.10643687,0.12781927,-0.23948295,0.00221272,0.03040383,0.00984690,0.98788508,0.14250114,-0.01626899,0.05926047
1761617537625,-0.07083697,0.15652379,0.07747146,-0.00981926,0.04509624,0.00428733,0.98789561,0.14244665,-0.01601870,0.05928427
1761617537636,-0.02709082,0.11320093,-0.10062305,0.00340574,0.06114795,0.01102425,0.98789465,0.14246555,-0.01567933,0.05934545
1761617537648,-0.12342293,-0.14852532,0.05335542,0.00771775,0.05105964,0.01055900,0.98788936,0.14250877,-0.01539340,0.05940458
1761617537659,-0.06041620,-0.02604031,0.05568159,-0.03970087,0.04902504,-0.04538809,0.98794136,0.14228446,-0.01511641,0.05914814
1761617537670,-0.04687114,-0.10449231,-0.08408209,-0.07115400,0.02677362,-0.03351051,0.98801090,0.14189311,-0.01496915,0.05896383
1761617537681,0.11839373,0.15598357,-0.33092189,-0.07225079,0.04354136,-0.02324728,0.98808035,0.14148851,-0.01472532,0.05883365
1761617537692,-0.02690721,-0.05101784,0.00280075,-0.07045807,0.04830126,-0.01362626,0.98814588,0.14109042,-0.01445242,0.05875666
1761617537703,-0.06137888,-0.07488397,0.01091568,-0.05374897,0.07032831,-0.01118633,0.98819728,0.14079480,-0.01406561,0.05869514
1761617537714,-0.13792810,-0.20984776,0.25615219,-0.02815741,0.06437326,-0.00861456,0.98822712,0.14063993,-0.01371156,0.05864776
1761617537726,0.00622034,-0.03618162,0.01237156,-0.02462303,0.06343459,-0.00457297,0.98825312,0.14050204,-0.01335633,0.05862215
1761617537737,0.10263555,0.00475165,0.03421185,-0.03059981,0.06748888,-0.00780348,0.98828509,0.14033068,-0.01297839,0.05857845
1761617537748,0.04561580,0.18436386,0.00380132,-0.04673766,0.06175712,-0.01074200,0.98833027,0.14006895,-0.01263255,0.05851829
1761617537759,-0.10819051,-0.07259062,-0.02712538,-0.03818854,0.07373914,-0.01199752,0.98836937,0.13985701,-0.01222330,0.05845171
1761617537770,-0.10564921,-0.03734537,0.08390293,-0.04453075,0.09524273,0.01970004,0.98840454,0.13960763,-0.01168994,0.05856203
1761617537782,-0.21667505,-0.08220347,-0.01900658,-0.02796370,0.10983188,0.01950120,0.98842726,0.13945104,-0.01107488,0.05867123
1761617537793,-0.22045847,-0.02014966,-0.01516948,-0.02232737,0.12878630,-0.00663294,0.98845467,0.13932712,-0.01036011,0.05863442
1761617537804,-0.22059669,0.06240564,-0.07740235,-0.02980640,0.15273500,-0.00798347,0.98848912,0.13916170,-0.00951243,0.05859011
1761617537815,-0.09126585,0.01989270,0.01952027,-0.03496023,0.15018414,-0.00466389,0.98852594,0.13896592,-0.00867140,0.05856399
1761617537826,-0.01240511,0.04959020,0.05383610,-0.03197767,0.15613267,-0.00978669,0.98856131,0.13878844,-0.00780487,0.05850968
1761617537837,0.06579199,0.05998682,0.05805176,-0.02871895,0.13728601,-0.00013482,0.98858944,0.13862905,-0.00704293,0.05850893
1761617537848,0.05288625,0.09471248,0.00619025,-0.00718885,0.14490116,-0.01977409,0.98860724,0.13858843,-0.00622424,0.05839721
1761617537860,-0.01524010,0.10838952,-0.01356613,0.00698475,0.14248770,-0.00966875,0.98860962,0.13862685,-0.00544056,0.05834403
1761617537871,0.02318552,0.10529358,0.01101224,-0.00313952,0.12833879,0.00468593,0.98861419,0.13860943,-0.00472828,0.05837004
1761617537882,0.08541869,0.13321649,0.08080965,-0.00302741,0.13879378,-0.00371378,0.98862126,0.13859232,-0.00394409,0.05834905
1761617537893,-0.06760718,-0.04321774,0.04544819,0.02110964,0.12619452,-0.00022375,0.98860745,0.13870948,-0.00324371,0.05834781
1761617537904,0.04257129,-0.07159717,0.11997364,0.01483354,0.12356245,0.00464733,0.98859639,0.13879181,-0.00255794,0.05837360
1761617537915,-0.04262524,-0.03332305,0.13251841,0.01090907,0.10566208,0.00095314,0.98858878,0.13885344,-0.00196095,0.05837899
1761617537926,0.06274385,0.00828393,0.03150892,0.01971314,0.10612030,0.01440626,0.98856967,0.13896285,-0.00137198,0.05845894
1761617537937,-0.07782198,0.01242152,-0.03095838,0.01950265,0.09775762,0.00655496,0.98855305,0.13907012,-0.00083431,0.05849500
1761617537949,-0.07176712,0.24210793,-0.31449885,0.00525177,0.10361805,0.00978235,0.98854593,0.13909979,-0.00024887,0.05855027
1761617537960,0.09212934,-0.09236480,0.01801488,-0.01251135,0.08630038,0.01162503,0.98855188,0.13903035,0.00023010,0.05861478
1761617537971,0.05657455,-0.12274229,-0.01660936,-0.01696776,0.05649512,-0.01244339,0.98856924,0.13893533,0.00054647,0.05854510
1761617537982,0.32311191,-0.27512029,0.38013166,-0.03318376,0.03784928,-0.01060600,0.98859872,0.13874950,0.00075842,0.05848571
1761617537993,0.15870937,-0.02184716,0.01247422,-0.03086885,0.02212361,-0.01035390,0.98862604,0.13857818,0.00088121,0.05842824
1761617538004,0.15912323,0.04996565,-0.14087483,-0.03070380,0.00361802,-0.00988796,0.98865289,0.13840931,0.00090111,0.05837386
1761617538015,0.18439841,0.06381028,-0.13249316,-0.03755855,0.00044005,-0.01048720,0.98868578,0.13819898,0.00090357,0.05831513
1761617538027,0.12840496,-0.08729361,-0.07501808,-0.05435008,-0.00772721,-0.00356745,0.98872910,0.13789734,0.00086069,0.05829533
1761617538038,0.06660866,-0.15962105,0.00212326,-0.08568839,-0.01678859,-0.00467651,0.98879753,0.13741748,0.00076667,0.05826914
1761617538049,0.02660922,-0.11071335,0.01140395,-0.11130653,-0.02403976,-0.01692237,0.98888963,0.13679417,0.00063205,0.05817438
1761617538060,0.09944819,-0.22841035,-0.16845377,-0.13147932,-0.03953121,-0.02836442,0.98899966,0.13606446,0.00041265,0.05801696
1761617538071,0.11051215,-0.04969965,-0.28160565,-0.13892183,-0.03592286,-0.03231642,0.98911704,0.13528649,0.00021148,0.05783598
1761617538082,0.00760263,0.07365051,-0.28129743,-0.14802660,-0.04884446,-0.04068595,0.98924338,0.13445754,-0.00006205,0.05760814
1761617538094,0.08593734,-0.08173463,-0.14412732,-0.14915355,-0.05374629,-0.04584977,0.98937026,0.13362974,-0.00036034,0.05735368
1761617538105,0.12770369,-0.15182578,0.10102598,-0.14331458,-0.04818123,-0.04088373,0.98949144,0.13282718,-0.00063015,0.05712473
1761617538116,0.06458398,-0.12307883,0.13943738,-0.11116282,-0.05703560,-0.04346860,0.98958944,0.13219911,-0.00095240,0.05687913
1761617538127,0.11260932,0.04926440,-0.02769024,-0.11513423,-0.05411620,-0.04924889,0.98968902,0.13156587,-0.00125004,0.05660826
1761617538138,0.09033311,0.05346033,-0.11728790,-0.11714053,-0.06538527,-0.03198906,0.98978571,0.13090989,-0.00161620,0.05642912
1761617538149,0.12899239,-0.01003812,0.02574319,-0.13461441,-0.05975975,-0.01252519,0.98988760,0.13016278,-0.00194787,0.05635961
1761617538161,0.23607716,-0.11271717,-0.03483106,-0.12154010,-0.05687516,-0.01345429,0.98997964,0.12948823,-0.00226352,0.05628494
1761617538172,-0.27818104,0.27893873,0.19907255,-0.12201198,-0.05477581,-0.00201598,0.99006866,0.12880496,-0.00257027,0.05627365
1761617538183,0.15297330,-0.07198159,-0.01123025,-0.07877412,-0.05736993,-0.01828436,0.99013032,0.12836776,-0.00288867,0.05617217
1761617538194,-0.14319434,-0.02322070,-0.05418164,-0.07654168,-0.07662491,-0.03876563,0.99019616,0.12794296,-0.00331394,0.05595702
1761617538205,0.26400315,0.36091960,0.11424498,-0.09258512,-0.08770062,-0.06363839,0.99028132,0.12742448,-0.00380506,0.05560064
1761617538216,0.15965530,0.32121126,-0.22427768,-0.08602920,-0.10976148,-0.02865965,0.99034964,0.12694272,-0.00441973,0.05544015
1761617538227,0.07916792,0.03472833,0.00147780,-0.07126845,-0.09276353,-0.02073305,0.99040377,0.12655074,-0.00492993,0.05532612
1761617538239,-0.00172787,-0.05121410,0.15060125,-0.08977916,-0.09484500,-0.01503672,0.99046980,0.12604798,-0.00546106,0.05524191
1761617538250,-0.09395401,-0.25788112,0.29043157,-0.08508919,-0.09735126,-0.01941291,0.99053266,0.12557573,-0.00600136,0.05513417
1761617538261,0.11212172,-0.12265239,0.15311429,-0.08238117,-0.09564090,0.00407431,0.99058637,0.12511440,-0.00653695,0.05515699
1761617538272,0.03332591,-0.01381413,-0.06324756,-0.06915935,-0.11079305,-0.00484563,0.99063121,0.12473748,-0.00714077,0.05513058
1761617538283,0.00232968,0.04234958,0.13166098,-0.08123653,-0.10267205,-0.01238649,0.99068843,0.12427849,-0.00772087,0.05506060
1761617538294,0.00610301,0.09414334,0.03839667,-0.08362162,-0.10656150,-0.01455866,0.99074573,0.12381857,-0.00830696,0.05498052
1761617538305,-0.06358566,0.05881674,0.06206513,-0.06675769,-0.10544239,-0.00130867,0.99078766,0.12344473,-0.00889743,0.05497319
1761617538316,0.00760263,0.13494674,0.07602633,-0.05576878,-0.09220388,0.00155931,0.99082126,0.12313243,-0.00941378,0.05498193
1761617538328,-0.01393355,0.08152536,-0.06572696,-0.03601168,-0.09957456,0.00663734,0.99083848,0.12293436,-0.00996144,0.05501843
1761617538339,-0.07754686,0.07293344,0.01513615,-0.02529774,-0.07455358,-0.00274368,0.99085261,0.12279270,-0.01037894,0.05500307
1761617538350,-0.11396388,0.04825460,0.09132448,-0.04584981,-0.06900216,0.00280412,0.99087964,0.12253364,-0.01076880,0.05501891
1761617538361,0.03207203,-0.09222927,0.00017759,-0.03188925,-0.05696180,-0.00288153,0.99089856,0.12235985,-0.01107924,0.05500321
1761617538372,-0.11309209,0.01241067,0.04464071,-0.03725413,-0.06130972,-0.01640310,0.99092574,0.12214936,-0.01142564,0.05491053
1761617538383,0.05342027,-0.04272276,0.07172042,-0.04754183,-0.05579350,-0.01954668,0.99096093,0.12188313,-0.01173808,0.05480107
1761617538394,-0.05349055,0.03738810,0.00400834,-0.03608164,-0.05746807,-0.02682174,0.99098993,0.12168287,-0.01205703,0.05465221
1761617538405,0.09675293,0.20318116,0.00774023,-0.00461684,-0.04967200,-0.01406629,0.99099399,0.12165725,-0.01233271,0.05457414
1761617538417,0.03695154,0.19873009,0.09479319,-0.01386384,-0.03232868,-0.00863683,0.99100391,0.12157961,-0.01251375,0.05452577
1761617538428,-0.05663502,-0.02830023,-0.08403683,-0.00228728,-0.02128903,-0.01889891,0.99100973,0.12156692,-0.01263190,0.05442088
1761617538439,-0.18576563,-0.06482447,-0.03483106,-0.02290324,-0.02210394,-0.00817533,0.99102623,0.12143981,-0.01275458,0.05437551
1761617538450,-0.04866370,-0.30541952,-0.10266980,-0.02272908,-0.01819862,-0.00140202,0.99104094,0.12131252,-0.01285649,0.05436766
1761617538461,0.01724101,-0.22065858,0.13609845,-0.06060291,-0.03941053,-0.02609459,0.99108671,0.12097921,-0.01307325,0.05422414
1761617538472,0.27576824,-0.04272162,-0.04243652,-0.04529257,-0.06192682,-0.04866817,0.99112788,0.12072557,-0.01342004,0.05395160
1761617538483,0.25300892,0.14181648,0.05411253,-0.02396541,-0.08813919,-0.03508890,0.99114790,0.12059256,-0.01390921,0.05375685
1761617538495,0.05628416,0.23312255,-0.03441643,0.01257932,-0.09334544,-0.00220665,0.99113239,0.12066363,-0.01443662,0.05374439
1761617538506,-0.10919163,0.19932442,0.05548511,0.01789572,-0.08400675,0.00733043,0.99111138,0.12076206,-0.01489865,0.05378470
1761617538517,-0.02543426,-0.03173235,0.04824216,-0.00641322,-0.06812753,0.02443101,0.99110251,0.12072615,-0.01528017,0.05392152
1761617538528,-0.09371213,-0.03759111,0.09778957,-0.03553820,-0.06905620,0.01788762,0.99111513,0.12052891,-0.01566343,0.05402079
1761617538539,0.08147146,0.10567917,0.11975860,-0.02629906,-0.06308065,0.01923793,0.99112150,0.12038163,-0.01601668,0.05412853
1761617538550,0.01841761,0.07574804,0.01074649,0.00523133,-0.07403592,0.01058175,0.99110804,0.12041067,-0.01642758,0.05418725
1761617538562,0.06579199,0.10642823,-0.03870117,0.01761599,-0.08656151,0.01870455,0.99108240,0.12050844,-0.01690800,0.05429106
1761617538573,-0.03404062,-0.11497699,-0.05592387,0.02784962,-0.06783294,0.01437383,0.99105245,0.12066439,-0.01728786,0.05437156
1761617538584,-0.09723670,0.01006835,-0.04032524,0.02062663,-0.07274887,0.01553947,0.99102665,0.12077887,-0.01769162,0.05445780
1761617538595,-0.04808152,-0.01948175,0.06277309,0.01022889,-0.04694502,0.01408640,0.99101060,0.12083615,-0.01795451,0.05453669
1761617538606,0.06842370,0.20146978,-0.33451586,0.00257529,-0.04224226,0.01484567,0.99099995,0.12085058,-0.01819107,0.05461982
1761617538617,-0.07083697,0.08002418,-0.17087259,0.00219672,-0.03496948,0.00688698,0.99099277,0.12086277,-0.01838515,0.05465804
1761617538628,-0.01760935,-0.02910780,0.02147915,0.00834221,-0.01868025,0.01100880,0.99098192,0.12090865,-0.01848789,0.05471859
1761617538639,-0.20140067,-0.27927582,0.31550928,0.00728884,-0.01539585,0.01095328,0.99097194,0.12094947,-0.01857411,0.05477993
1761617538651,-0.11023818,-0.02708438,0.07982765,0.01720453,-0.00813183,-0.00759345,0.99096167,0.12104581,-0.01861964,0.05473741
1761617538662,-0.07833532,0.01626227,-0.06413337,0.02004890,-0.00544689,-0.00741391,0.99094978,0.12115708,-0.01864987,0.05469626
1761617538673,-0.02880097,0.06180992,0.12818314,0.01066497,-0.00312380,0.00597970,0.99094030,0.12121681,-0.01866737,0.05472975
1761617538684,-0.00577062,-0.02269807,-0.07902641,0.02206898,0.03432327,0.03664366,0.99091762,0.12133929,-0.01847687,0.05493312
1761617538695,-0.14253225,0.03009804,0.06311555,0.00802637,0.04206045,0.02177157,0.99090971,0.12138424,-0.01824133,0.05505504
1761617538708,-0.13263031,0.00161110,-0.16506030,0.02504957,0.03622954,0.01857138,0.99088769,0.12154456,-0.01800947,0.05517390
1761617538717,0.11668183,0.11717177,-0.26708897,0.03965141,0.04258289,0.00281996,0.99086791,0.12172893,-0.01781145,0.05518701
1761617538728,-0.05642881,-0.07670011,0.07565455,0.02798302,0.01433852,-0.03177120,0.99086005,0.12188424,-0.01773188,0.05501068
1761617538740,-0.01862988,0.23394364,0.06934834,-0.01028896,0.00223824,-0.03568053,0.99087843,0.12182662,-0.01771934,0.05481087
1761617538751,0.04975865,0.14418779,-0.01579146,0.01166138,0.00788258,0.01517145,0.99086659,0.12189134,-0.01767559,0.05489507
1761617538762,-0.07212228,0.01057776,-0.04136928,0.00403231,0.00091341,0.02181209,0.99085713,0.12191392,-0.01767048,0.05501722
1761617538773,-0.02280790,-0.25278756,0.02280790,-0.00667207,0.01744730,0.04998550,0.99084788,0.12187656,-0.01757277,0.05529714
1761617538784,-0.01900658,-0.16915859,-0.01140395,0.00810062,0.03851127,0.04162055,0.99083307,0.12192192,-0.01735711,0.05553021
1761617538795,-0.06143430,-0.00540981,0.11674629,-0.01072777,0.01189402,0.04318745,0.99082813,0.12186292,-0.01729169,0.05576774
1761617538811,-0.04383138,-0.05554320,0.22197176,0.01085436,0.01490493,0.02125335,0.99081062,0.12194650,-0.01717693,0.05593139
1761617538818,0.10435807,0.26762870,-0.24317458,0.00555089,0.02001850,0.03677004,0.99080205,0.12196621,-0.01710586,0.05606193
1761617538828,-0.09326087,0.01731082,-0.04488308,0.03898041,0.02866163,0.02484631,0.99077375,0.12215916,-0.01696398,0.05618492
1761617538839,-0.03947070,0.07648143,-0.19868771,0.03704706,0.02445793,0.03334890,0.99073927,0.12237033,-0.01682457,0.05637500
1761617538854,-0.02239892,-0.04633650,0.09801590,0.02564376,0.03087847,0.02263198,0.99070953,0.12256394,-0.01659144,0.05654588
1761617538860,0.22368189,0.53759311,-1.01630525,0.04700773,0.04443223,0.02964316,0.99068922,0.12270496,-0.01645815,0.05663481
1761617538871,-0.00788161,-0.46870925,0.42166592,0.01892781,0.02570476,0.03355907,0.99066809,0.12280906,-0.01631677,0.05681938
1761617538902,-0.05943718,-0.05119496,0.14343210,-0.00846569,0.00928597,0.01133594,0.99067647,0.12267996,-0.01617516,0.05699225
1761617538911,0.51507642,-0.35532815,-1.28046324,0.02240189,0.07315409,0.03916283,0.99065838,0.12278525,-0.01583133,0.05717632
1761617538922,-0.11205527,0.69104512,0.60605557,0.01260633,0.01622248,-0.01547786,0.99065619,0.12285206,-0.01574535,0.05709429
1761617538935,0.02044301,-0.05936865,0.11108370,0.02779112,-0.00340466,-0.01041333,0.99063674,0.12303826,-0.01576817,0.05702452
1761617538944,0.47380654,0.13575240,0.07685573,0.00975137,0.00188068,0.01196896,0.99062804,0.12308361,-0.01575942,0.05708017
1761617538956,-0.14309864,-0.05980213,0.12383014,0.01612749,-0.01084035,0.00906405,0.99061252,0.12317634,-0.01582175,0.05713229
1761617538968,-0.02304931,-0.00650958,0.04828645,0.01424710,-0.00728242,0.01744200,0.99059573,0.12325897,-0.01586399,0.05723345
1761617538979,-0.12457880,0.08228324,-0.13163453,0.01202149,-0.01922520,0.01210465,0.99058132,0.12332810,-0.01597454,0.05730306
1761617538991,0.09998758,-0.12945605,0.01272184,0.01733254,-0.03023759,0.03043152,0.99055551,0.12342949,-0.01615143,0.05748108
1761617539002,0.04468784,-0.01566426,0.26643362,0.01038922,-0.03438054,0.00386003,0.99054364,0.12348871,-0.01634739,0.05750308
1761617539014,0.05136855,-0.00910215,0.15626855,0.01987915,-0.03117798,0.00039465,0.99052582,0.12360600,-0.01653134,0.05750541
1761617539026,0.00090093,0.06833590,-0.01964038,0.02922566,-0.03048317,0.02531469,0.99049315,0.12377551,-0.01670815,0.05765224
1761617539037,-0.02452810,0.15851540,-0.33856933,0.07207473,-0.02178001,0.00967852,0.99043840,0.12417192,-0.01682794,0.05770547
1761617539048,-0.07187863,0.14542406,-0.05959981,0.05504153,-0.02965900,0.01020454,0.99039395,0.12447740,-0.01699254,0.05776210
1761617539060,-0.04425465,-0.08655710,0.04528838,0.04385938,-0.01823836,0.01775020,0.99035136,0.12474933,-0.01710562,0.05787215
1761617539076,0.05876405,0.04313958,0.11413369,0.02906557,-0.02098633,0.00524646,0.99032557,0.12492227,-0.01723049,0.05790337
1761617539081,0.42177889,0.17751555,0.16058480,0.03766818,-0.03600572,0.00929909,0.99030008,0.12508424,-0.01738532,0.05794336
1761617539092,-0.24776411,-0.24747045,0.01547260,0.02151679,-0.02881154,0.01734291,0.99027526,0.12521011,-0.01755386,0.05804481
1761617539104,0.02374654,0.02868575,-0.01506501,0.01873495,-0.02832097,-0.00003870,0.99025903,0.12531597,-0.01771388,0.05804459
1761617539116,-0.12114483,0.00013467,-0.12687178,0.02834479,-0.02372473,0.01078724,0.99023068,0.12548887,-0.01785860,0.05811040
1761617539130,-0.06725644,-0.03127204,-0.00033005,0.03322433,-0.01771593,0.00687638,0.99019462,0.12573141,-0.01798792,0.05816059
1761617539140,0.18630429,0.29155068,-0.18531177,0.03865189,-0.02646437,0.01369817,0.99016332,0.12592660,-0.01812157,0.05822977
1761617539147,0.59693341,0.62783047,-0.17431975,0.07248141,-0.04958096,0.02807034,0.99012500,0.12616216,-0.01828271,0.05832100
1761617539158,-0.42518038,-0.51493837,0.16225083,0.03461607,-0.02656372,0.00837450,0.99009395,0.12636121,-0.01843545,0.05836915
1761617539170,0.04310279,-0.06618005,-0.06890995,0.01805849,-0.02254203,0.00940810,0.99007475,0.12646685,-0.01856732,0.05842419
1761617539181,0.02696661,-0.02471668,-0.00718026,0.02341044,-0.02684299,0.02434594,0.99004711,0.12659795,-0.01871764,0.05856053
1761617539194,-0.06963112,-0.05719879,-0.00760803,0.02445159,-0.00995912,0.02850876,0.99001457,0.12675688,-0.01878237,0.05874583
1761617539204,0.10535682,0.01244315,-0.08285745,0.03795937,-0.01785951,0.00520246,0.98998866,0.12693529,-0.01886631,0.05877029
1761617539215,0.03546723,-0.25807019,0.28633707,0.01523317,-0.00396495,0.00745941,0.98997506,0.12701907,-0.01888812,0.05881131
1761617539226,-0.04889919,-0.03149595,-0.07971969,0.01482837,-0.00793493,0.03651719,0.98995096,0.12710360,-0.01893335,0.05901946
1761617539237,0.01113719,0.06444732,-0.08369566,-0.00478219,-0.00737367,0.03973996,0.98994032,0.12707682,-0.01897464,0.05924200
1761617539249,-0.06428665,0.16344190,-0.20368326,0.00752482,-0.00079312,0.01920299,0.98992785,0.12712084,-0.01897928,0.05935434
1761617539260,0.15458688,0.07919816,-0.15975277,0.05474497,-0.01042644,0.02735914,0.98987811,0.12742741,-0.01903767,0.05950755
1761617539271,0.07260032,-0.02976488,0.11742904,0.04999300,-0.01050242,-0.00789950,0.98984448,0.12769987,-0.01909491,0.05946450
1761617539284,-0.13090817,-0.07444241,0.20572719,-0.00674936,-0.03333083,-0.02709917,0.98985669,0.12765532,-0.01931489,0.05928565
1761617539295,0.19366694,0.11388739,-0.03981878,-0.02085180,-0.03622737,-0.01125797,0.98987087,0.12754377,-0.01950871,0.05922542
1761617539304,0.34618471,0.09981684,-0.33357600,0.01506593,-0.02124127,0.02133240,0.98985377,0.12761458,-0.01960854,0.05932568
1761617539316,-0.19427154,-0.07444919,-0.12617136,0.00697073,-0.02621702,0.01188652,0.98984183,0.12765361,-0.01975536,0.05939224
1761617539327,0.03551172,-0.07773921,0.13418449,-0.01853410,-0.00396944,0.00688114,0.98985264,0.12754797,-0.01977798,0.05943147
1761617539338,0.01327126,-0.12899468,0.00026676,-0.02582048,-0.03121146,-0.00772679,0.98987035,0.12740337,-0.01995277,0.05938820
1761617539390,-0.15237957,-0.03852684,0.12215473,-0.00674702,-0.00958904,-0.00368649,0.98989329,0.12723031,-0.02019873,0.05929364
1761617539428,0.31809836,-0.04096546,-0.11043153,-0.02488459,-0.05482453,-0.01971857,0.98995547,0.12675004,-0.02125684,0.05891307
1761617539473,-0.12265440,0.03956763,0.01639180,0.00987503,-0.03762215,-0.00545580,0.98991602,0.12697075,-0.02209770,0.05879113
1761617539512,0.05127974,-0.01821233,0.02014200,-0.01675778,-0.03656531,-0.01797754,0.98996246,0.12664397,-0.02281072,0.05844057
1761617539548,-0.06682487,0.05968033,0.05430269,0.01573466,-0.04119245,-0.01276219,0.98992281,0.12692405,-0.02354394,0.05821340
1761617539583,-0.05499221,0.05618124,0.01471125,0.01707409,-0.04688376,0.01193510,0.98985087,0.12722882,-0.02438082,0.05842644
1761617539614,-0.05764102,-0.03818110,0.02056935,0.00382621,-0.04409701,0.01714464,0.98981124,0.12728698,-0.02505109,0.05868704
1761617539646,-0.04016941,0.01664433,-0.07112363,0.00891534,-0.03097540,0.02061612,0.98976061,0.12742962,-0.02554670,0.05901690
1761617539679,-0.03569772,-0.01446382,-0.06103866,-0.00224045,-0.02662226,0.02363971,0.98973014,0.12739210,-0.02599262,0.05941287
1761617539714,-0.06689146,-0.11668129,-0.00755749,-0.02358476,-0.01090618,0.00297563,0.98977476,0.12698172,-0.02618239,0.05946464
1761617539751,0.02098940,-0.00099723,-0.02132512,-0.03283817,-0.01676227,0.00576090,0.98983734,0.12637914,-0.02648998,0.05957035
1761617539773,0.04569953,-0.08919491,-0.10293234,-0.05186879,-0.04888628,0.01275266,0.98988905,0.12578524,-0.02704973,0.05971637
1761617539786,0.18358372,-0.17672552,-0.29956182,-0.06466823,-0.08302429,0.02218123,0.98991878,0.12536490,-0.02758938,0.05986055
1761617539851,-0.06080161,0.06878965,0.14266691,-0.03239776,-0.00862815,0.01496136,0.99001374,0.12431683,-0.02786850,0.06034455
1761617539853,47.73055608,32.58882674,-94.16072163,0.71612325,-0.74404553,-0.35126843,0.98994631,0.12485392,-0.02842654,0.06008110
1761617539886,-2.14263429,-1.34805621,4.31845539,-0.01474512,-0.01426395,0.00631454,0.98996379,0.12461137,-0.02866118,0.06018497
1761617539909,-0.15963228,-0.09358147,0.02268238,-0.00113619,0.00394080,0.02239937,0.98995100,0.12459824,-0.02861566,0.06044369
1761617539935,-0.04398579,-0.07285550,-0.04816465,-0.01702288,0.02185563,0.01308403,0.98997650,0.12437780,-0.02833263,0.06061312
1761617539950,-0.24811724,-0.21372506,0.03210857,-0.03238787,0.06694719,-0.01685680,0.99003071,0.12412679,-0.02781379,0.06048248
1761617539959,-1.14091503,-0.76358511,0.32168942,-0.08153445,0.12971844,0.05015719,0.99007905,0.12375989,-0.02723006,0.06070819
1761617539974,0.49050531,0.38743401,-0.08921982,-0.04863565,0.07103897,0.03663475,0.99012306,0.12338782,-0.02668661,0.06098845
1761617539986,-0.16446890,0.01825039,-0.25881245,-0.06049879,0.10551221,0.05320973,0.99016467,0.12303088,-0.02606409,0.06130238
1761617539997,-0.22138410,-0.10047045,-0.01741017,-0.06793011,0.13531441,0.03136802,0.99021716,0.12267425,-0.02535369,0.06146707
1761617540012,0.29667347,0.19374980,0.19942053,-0.04541564,0.07616144,0.00845098,0.99027157,0.12232228,-0.02476344,0.06153256
1761617540037,0.14463161,0.08959395,0.09494333,-0.00528366,0.03241905,-0.00797613,0.99029548,0.12225755,-0.02436631,0.06143485
1761617540041,-9.07641315,-1.20714737,2.23228392,-0.00142984,0.23340329,0.00485443,0.99030770,0.12225441,-0.02385282,0.06144553
1761617540074,1.27336016,0.22932616,-0.34706910,0.00121857,0.02296920,-0.00018246,0.99031451,0.12227463,-0.02347153,0.06144250
1761617540076,-53.41402117,8.71904175,6.94416093,0.23522526,0.73923905,0.11372654,0.99029658,0.12249810,-0.02276925,0.06155054
1761617540118,2.45397492,-0.43501359,-0.27570296,0.00803075,0.01876266,0.00169475,0.99028264,0.12266474,-0.02237993,0.06158571
1761617540150,-0.15798996,0.02260624,0.02617066,0.00856756,0.05063341,0.00105474,0.99028257,0.12280482,-0.02155207,0.06160296
1761617540180,-0.01942147,-0.06579180,0.14265782,0.01142610,0.03605462,0.00608787,0.99026765,0.12297164,-0.02102567,0.06169184
1761617540211,0.04510984,0.09282538,-0.07669799,0.03331411,0.01944696,0.00371820,0.99020535,0.12349467,-0.02072036,0.06175021
1761617540245,0.04080318,-0.00734096,0.01874152,-0.00904137,0.01032002,0.00236525,0.99022548,0.12334232,-0.02054646,0.06179007
1761617540266,-0.08639964,-0.07958459,0.26258521,-0.01731104,0.00286057,0.00325426,0.99024700,0.12315709,-0.02051586,0.06182489
1761617540278,-0.42063906,-0.08294505,0.62531436,-0.03878160,-0.04500221,0.01287670,0.99026468,0.12293410,-0.02077462,0.06189893
1761617540300,0.28046245,0.01806113,-0.14757270,-0.00865211,-0.03446957,0.01568055,0.99025738,0.12283503,-0.02116929,0.06207847
1761617540322,0.04484453,0.06177953,-0.37028831,-0.01285822,-0.02526052,0.00321495,0.99026663,0.12269488,-0.02144463,0.06211352
1761617540344,-0.02809410,-0.01505041,0.09732599,-0.00917687,-0.00362970,0.00800646,0.99027269,0.12259485,-0.02148420,0.06220079
1761617540366,0.01889789,-0.08855667,0.01839193,-0.01548539,-0.00544856,0.00182695,0.99029136,0.12242296,-0.02154468,0.06222106
1761617540378,-0.78469309,-0.28299228,1.08238659,-0.00526868,0.00080513,0.01301058,0.99029051,0.12239293,-0.02154009,0.06229522
1761617540389,0.39627804,0.23608931,-1.00760773,-0.01340609,0.00213841,-0.02367190,0.99030918,0.12231451,-0.02152758,0.06215674
1761617540413,0.25080600,0.09528743,-0.21625515,-0.01774746,-0.00308969,0.02023523,0.99031904,0.12210863,-0.02156342,0.06239147
1761617540434,-0.10900452,-0.06629963,0.35806205,-0.00112908,0.00660476,0.03080655,0.99030108,0.12209644,-0.02149209,0.06272418
1761617540456,0.01737447,0.10692963,-0.10731289,0.05768011,-0.01566190,0.02509513,0.99020318,0.12271939,-0.02166124,0.06299521
1761617540468,-0.03004029,-0.11492126,0.04425759,-0.02338303,-0.08644954,-0.09977058,0.99024662,0.12258026,-0.02217561,0.06240158
1761617540504,0.12706567,0.01548214,-0.15586835,-0.01152259,-0.02013623,0.01251941,0.99024985,0.12237343,-0.02253706,0.06262630
1761617540539,-0.06118898,-0.00622161,0.09202065,0.00138212,-0.01782620,0.01762000,0.99022008,0.12239768,-0.02284991,0.06293553
1761617540574,-0.00984117,-0.08652040,-0.08064489,-0.02324899,-0.01760866,-0.02894688,0.99029605,0.12198618,-0.02316158,0.06242317
1761617540590,-0.20865843,-0.27163290,0.57313819,-0.06122330,0.01414695,-0.01363673,0.99036403,0.12150863,-0.02305123,0.06231680
1761617540633,0.17885548,0.13984180,-0.29786307,-0.01093761,-0.01460291,0.00126935,0.99038405,0.12127019,-0.02336958,0.06234448
1761617540646,0.60446503,-0.84310234,1.06523846,-0.02917853,-0.12126566,-0.01169662,0.99039279,0.12108783,-0.02412749,0.06227137
1761617540690,-0.11873714,0.24372983,-0.32616575,-0.00817040,-0.02425301,-0.01080801,0.99041674,0.12090644,-0.02466590,0.06203143
1761617540703,1.64364701,-0.87036243,1.28133807,-0.12573566,-0.19823085,-0.05967256,0.99050264,0.12013317,-0.02588502,0.06166445
1761617540734,-0.48287781,0.32477884,-0.44958135,-0.03038437,-0.06789998,-0.01472100,0.99054727,0.11964550,-0.02697482,0.06142818
1761617540756,0.08097061,-0.05817020,0.24097826,-0.02755610,-0.06010203,-0.01408929,0.99057521,0.11934238,-0.02763594,0.06127319
1761617540768,0.17099013,-0.08863979,0.14942630,-0.06025764,-0.05949926,-0.02971833,0.99061673,0.11900494,-0.02796914,0.06110677
1761617540791,-0.22150262,0.12253574,-0.31175683,-0.01739648,-0.03528668,-0.02660028,0.99064816,0.11880401,-0.02837670,0.06079954
1761617540801,0.29469144,0.09000599,0.18765728,-0.01457935,-0.04920349,-0.05990960,0.99066797,0.11873184,-0.02862025,0.06050299
1761617540812,-0.11463180,-0.01766453,0.44896529,-0.00311804,-0.05025501,-0.02747856,0.99067133,0.11871407,-0.02890671,0.06034636
1761617540823,-0.01052649,0.03703193,0.04914707,0.00300662,-0.04193970,-0.01452293,0.99066749,0.11873046,-0.02913528,0.06026721
1761617540834,0.07625542,-0.04916468,-0.08428230,-0.00557977,-0.03923499,-0.00725478,0.99066723,0.11870005,-0.02934911,0.06022767
1761617540844,-0.00384238,0.00314469,-0.37101230,-0.02183783,-0.05010610,-0.00856055,0.99067578,0.11858649,-0.02960966,0.06018315
1761617540856,-0.05138304,0.00928424,-0.01479650,-0.02012245,-0.05985517,-0.01206351,0.99068375,0.11846676,-0.02996580,0.06011138
1761617540867,0.02528469,-0.10495019,-0.01529920,-0.00239171,-0.06816007,-0.03065302,0.99068412,0.11845409,-0.03032705,0.05994892
1761617540879,0.02125183,-0.00458630,0.21903049,-0.00602079,-0.06092441,-0.00722593,0.99067984,0.11841826,-0.03068955,0.05990592
1761617540890,0.00494328,-0.01750993,0.18677262,-0.02478387,-0.06003102,-0.00667234,0.99068851,0.11827452,-0.03103773,0.05986722
1761617540902,-0.01973727,-0.03900008,0.04542102,-0.03835880,-0.05669727,-0.01286209,0.99070883,0.11805587,-0.03136090,0.05979391
1761617540913,-0.03981379,-0.04966720,-0.42728133,-0.04179712,-0.07400071,0.00799704,0.99072079,0.11782181,-0.03177531,0.05983869
1761617540924,-0.01937413,0.06196189,-0.10423357,-0.01082845,-0.07230803,-0.00986579,0.99071838,0.11776388,-0.03216216,0.05978591
1761617540958,-0.14205785,0.06179249,-0.05457550,-0.00491413,-0.02330110,0.00154342,0.99071370,0.11767886,-0.03256526,0.05981261
1761617540992,0.18809535,-0.09447892,0.18046257,-0.00330302,-0.07477108,-0.00607501,0.99068382,0.11762238,-0.03384385,0.05970873
1761617541026,-0.03758232,0.01047535,-0.11181826,-0.02769554,-0.06947733,0.01539729,0.99068275,0.11715155,-0.03502496,0.05997048
1761617541039,1.68556882,0.16051861,0.40848369,0.09151641,-0.19233206,-0.03777247,0.99058754,0.11771438,-0.03620781,0.05973818
1761617541066,-0.82860907,0.10515336,-0.25883783,-0.04524730,-0.05213067,-0.01391442,0.99064570,0.11709902,-0.03691678,0.05954894
1761617541088,0.05522324,-0.03706858,0.13588124,0.00618162,-0.03134756,0.01089755,0.99061715,0.11716794,-0.03726631,0.05967045
1761617541102,0.03257154,-0.10076214,0.17835166,0.01102574,-0.03511398,0.01454058,0.99059313,0.11724347,-0.03750684,0.05977006
1761617541131,-0.15318736,0.02417880,-0.20078765,0.01962731,-0.02378827,-0.00578623,0.99055120,0.11752905,-0.03785296,0.05968587
1761617541133,58.38347920,8.60953617,7.30176212,0.21732721,-0.60557821,-0.32838311,0.99052624,0.11771377,-0.03836770,0.05940674
1761617541154,-4.51184766,-0.70868715,-0.49763516,-0.01015265,-0.02312842,-0.00649436,0.99053372,0.11760463,-0.03861633,0.05933693
1761617541166,0.31172645,-0.15448862,0.08472641,-0.00774639,-0.03431962,0.00189062,0.99053046,0.11755738,-0.03882568,0.05934846
1761617541174,0.95966699,-0.57321528,-0.09960724,-0.05830259,-0.09563512,-0.03099825,0.99054947,0.11733583,-0.03918909,0.05923067
1761617541193,-0.55146680,0.20044332,-0.12284171,-0.03049384,-0.03719886,-0.00759203,0.99057401,0.11704614,-0.03954248,0.05915854
1761617541196,7.43271841,-2.37086918,1.16264270,-0.19115069,-0.18840291,-0.07897124,0.99060850,0.11671163,-0.03987219,0.05902034
1761617541229,-0.89435188,0.31823488,-0.13728239,-0.01087427,-0.02371246,-0.00815508,0.99062145,0.11653709,-0.04025277,0.05888945
1761617541241,1.24462856,-0.38507193,0.55607113,-0.03711693,-0.11669739,-0.07343293,0.99064521,0.11631254,-0.04095879,0.05844518
1761617541269,-0.51607659,0.16042246,-0.19635848,-0.01628940,-0.02310514,-0.01368427,0.99067025,0.11608041,-0.04128804,0.05825018
1761617541280,1.64199105,-0.20426136,-0.30068433,-0.10250157,-0.17722170,-0.03601675,0.99070635,0.11552178,-0.04225390,0.05805389
1761617541296,-0.83492000,0.24638192,0.29843269,-0.00239674,-0.05357616,0.00255206,0.99068869,0.11550224,-0.04269054,0.05807469
1761617541312,-0.01906999,0.18856134,-0.12807486,0.02814033,-0.06574571,0.01517179,0.99063460,0.11571893,-0.04319679,0.05819151
1761617541321,-0.27058328,0.04215404,-0.46114864,0.02725543,-0.04384929,0.02756869,0.99060468,0.11584021,-0.04339192,0.05831419
1761617541364,-0.11131542,-0.08486837,0.06672087,-0.00305718,-0.00656257,0.00221247,0.99060338,0.11577448,-0.04353301,0.05836176
1761617541374,0.62031081,-0.62405199,0.69912071,-0.00131456,-0.09280877,0.03692798,0.99057213,0.11576778,-0.04400634,0.05855009
1761617541410,-0.18313358,0.23738404,-0.21840966,0.02491093,-0.00222240,0.01329877,0.99050291,0.11622116,-0.04404678,0.05879213
1761617541432,-0.15382123,0.25288669,0.11153338,0.04340230,0.02115425,0.03061069,0.99043705,0.11669858,-0.04381409,0.05912885
1761617541443,-0.12693426,-0.53389737,0.08331543,-0.01814324,0.02913358,0.04324514,0.99044161,0.11659970,-0.04365531,0.05936454
1761617541488,0.06937621,-0.03608935,-0.08348511,0.00472613,0.00894386,0.00149245,0.99043594,0.11670557,-0.04345497,0.05939797
1761617541522,-0.06537463,0.05365402,0.04928017,0.02562659,0.04232233,-0.00451641,0.99042037,0.11714250,-0.04273337,0.05932096
1761617541552,-0.04017046,-0.07256327,-0.24015075,-0.00743105,0.04756302,0.00291004,0.99046160,0.11703066,-0.04201755,0.05936476
1761617541583,-0.00105233,-0.15019910,0.05473967,-0.01768831,0.04004435,-0.01483043,0.99053291,0.11676003,-0.04140487,0.05913785
1761617541613,0.09142098,0.02233332,-0.10514380,-0.02709553,0.02377252,0.04285240,0.99055723,0.11634954,-0.04104472,0.05978707
1761617541624,0.12760138,-0.00683950,-0.75005316,0.01813263,0.00284589,-0.01027673,0.99054957,0.11644926,-0.04102906,0.05973054
1761617541646,0.04957268,0.06264533,0.40935287,-0.07286730,-0.02691215,-0.02595251,0.99064923,0.11564044,-0.04132779,0.05944247
1761617541669,0.01607283,0.04612336,-0.04847209,-0.03553652,-0.00901611,0.01967010,0.99067905,0.11522999,-0.04143192,0.05966966
1761617541680,-0.16237658,-0.45158754,0.61045975,-0.03437474,-0.00479766,0.01683476,0.99069323,0.11505468,-0.04145639,0.05975552
1761617541691,0.09876350,-0.09841773,0.16556205,-0.01364989,-0.02322009,0.01070364,0.99069302,0.11497483,-0.04159223,0.05981813
1761617541703,0.05450043,0.16246586,-0.24258836,-0.01754466,-0.01934593,-0.00356384,0.99070150,0.11487131,-0.04170637,0.05979711
1761617541713,-0.06155382,0.17377241,-0.28514349,-0.02864631,0.00002963,-0.00345616,0.99071968,0.11472379,-0.04170622,0.05977931
1761617541725,-0.14577242,0.13511988,-0.02508098,0.00228556,0.02446590,-0.01117897,0.99072802,0.11473704,-0.04156432,0.05971447
1761617541736,-0.10685474,0.14029971,-0.05525997,-0.01137728,0.00720687,-0.00300440,0.99073774,0.11467560,-0.04152540,0.05969825
1761617541747,-0.20893163,-0.03204721,0.27087901,0.02315578,0.06349160,-0.02024070,0.99074438,0.11480528,-0.04116985,0.05958490
1761617541759,-0.26473536,-0.02755975,0.04403962,0.02092385,0.12667777,-0.02107441,0.99076812,0.11492768,-0.04042878,0.05946161
1761617541770,-0.30597932,-0.22103310,-0.08333455,0.00841743,0.12646565,-0.06235047,0.99081062,0.11497314,-0.03974587,0.05912492
1761617541779,-0.46882330,0.25453593,-0.01038969,-0.04545008,0.18154406,-0.09700277,0.99089997,0.11475043,-0.03885630,0.05864961
1761617541794,0.22094566,0.23015564,0.13201363,-0.00161540,0.13984364,-0.04767136,0.99096054,0.11473880,-0.03784943,0.05830637
1761617541834,0.20022655,-0.03770600,0.04184408,0.01691935,0.04604112,-0.00801659,0.99096552,0.11508142,-0.03691709,0.05814404
1761617541875,-0.31547807,0.19701167,-0.02482119,0.06295098,0.17924911,-0.00911142,0.99095571,0.11638135,-0.03321560,0.05795589
1761617541905,-0.15233525,0.01550624,0.17459706,0.09493093,0.17941526,0.03685503,0.99084270,0.11779108,-0.03055128,0.05850318
1761617541932,0.27126704,-0.12693767,0.01099614,0.08095109,0.10041123,0.05212698,0.99071174,0.11887987,-0.02920075,0.05920429
1761617541963,0.30542068,-0.10148185,-0.02013587,0.03695218,0.02078936,0.03797201,0.99061724,0.11945078,-0.02887956,0.05979096
1761617541981,-0.03072298,0.09166118,0.42305461,0.05117452,-0.00984814,0.07687824,0.99051812,0.11990623,-0.02896720,0.06047518
1761617542004,0.21096822,-0.10881751,-0.44097873,0.02093381,-0.00552634,0.01992754,0.99047268,0.12014907,-0.02903131,0.06070634
1761617542015,0.01804407,0.11659043,0.57719885,0.03876053,-0.00514217,0.00405963,0.99044511,0.12035837,-0.02905908,0.06072826
1761617542039,0.02985322,-0.04101505,-0.12619416,0.02111821,-0.00990392,0.01247247,0.99040196,0.12060968,-0.02917693,0.06087668
1761617542049,0.18283475,0.03966042,-0.39706360,0.00455522,0.00457934,0.00582602,0.99039780,0.12063405,-0.02915243,0.06090785
1761617542060,-0.01263267,-0.14337433,-0.09159605,-0.01750113,-0.01466773,-0.00059756,0.99040734,0.12053779,-0.02923311,0.06090456
1761617542071,0.05131086,0.00911702,0.02024911,0.00220238,-0.01010721,-0.00131637,0.99040479,0.12054936,-0.02928617,0.06089765
1761617542082,-0.15737451,-0.11771411,0.54713617,0.01268939,-0.00852413,-0.00438082,0.99039623,0.12062042,-0.02933391,0.06087312
1761617542093,-0.01090758,0.03085789,-0.04834521,0.01814843,-0.01501974,0.00406948,0.99038025,0.12072023,-0.02941651,0.06089550
1761617542104,0.05382981,-0.11169686,-0.06871217,0.01640744,-0.01228642,-0.00530534,0.99036892,0.12081130,-0.02948470,0.06086606
1761617542115,0.12213883,0.00382362,-0.44071943,0.00485717,-0.01389703,-0.02638808,0.99037227,0.12083777,-0.02956044,0.06072224
1761617542126,0.08474534,0.06212640,-0.14812358,-0.02166737,-0.00908808,-0.00000121,0.99038531,0.12071860,-0.02961043,0.06072223
1761617542138,0.03967240,0.01041936,-0.02764211,-0.00991177,-0.00102915,0.02789428,0.99038212,0.12065962,-0.02961655,0.06088821
1761617542159,-0.11532117,0.07261013,0.19360600,-0.00559903,-0.00170583,0.01904094,0.99037641,0.12060055,-0.02963455,0.06108909
1761617542160,33.67907308,54.22703849,-4.63612111,0.72882412,0.01644080,0.58135000,0.99029554,0.12107429,-0.02962386,0.06146697
1761617542171,-4.02066835,-6.58263204,-0.00881726,0.06284244,-0.02707346,-0.03741570,0.99026337,0.12140107,-0.02976464,0.06127240
1761617542182,0.01821486,-0.09336561,-0.01906385,-0.00282971,-0.02618712,-0.04859070,0.99027731,0.12138565,-0.02990736,0.06100758
1761617542193,0.07293662,-0.03625593,0.05702711,-0.01118469,-0.02497853,-0.01769422,0.99028745,0.12131910,-0.03005598,0.06090230
1761617542216,-0.06355787,-0.04406083,0.06923726,-0.00351734,-0.00317819,0.01643498,0.99027999,0.12128041,-0.03009094,0.06108309
1761617542217,31.69551628,3.85329099,-3.24895076,-0.35354176,0.10361131,0.32340241,0.99029848,0.12103293,-0.03001842,0.06130947
1761617542227,-4.37425155,-0.86514255,0.87578519,-0.01298148,0.00396534,0.03632800,0.99029572,0.12096737,-0.02999839,0.06149293
1761617542238,0.02059818,0.12585149,0.00371267,0.00006301,0.00505550,0.01044806,0.99029282,0.12096773,-0.02996932,0.06155300
1761617542260,-0.04080594,0.05820605,-0.16698468,0.00890500,-0.00481675,0.00440637,0.99027699,0.12106124,-0.03001990,0.06159927
1761617542270,0.67250619,0.17106186,-0.76958893,0.07829546,-0.03122313,0.03876395,0.99020834,0.12147620,-0.03018538,0.06180472
1761617542272,21.31261963,10.82442842,-5.55881594,0.05887214,-0.01677760,0.05367178,0.99020058,0.12151741,-0.03019712,0.06184229
1761617542282,-3.28544655,-1.59894236,1.70148736,0.00401233,0.00852739,0.00923767,0.99019649,0.12153767,-0.03015406,0.06188894
1761617542293,-0.00225821,-0.01922770,0.03936809,-0.00672621,-0.00676188,0.01813846,0.99019360,0.12150001,-0.03019193,0.06199051
1761617542304,-0.00235871,-0.12433195,-0.12986018,0.00868649,-0.00452214,0.00905668,0.99018351,0.12154952,-0.03021770,0.06204214
1761617542315,0.17580179,0.11384006,-0.35109211,-0.00221116,-0.01856145,0.00175634,0.99018133,0.12153769,-0.03031701,0.06205153
1761617542327,0.03146124,-0.01490248,0.00144024,0.01672998,-0.01046181,0.00033160,0.99016720,0.12163640,-0.03037873,0.06205349
1761617542337,0.12501327,0.18247586,-0.03301559,0.00051955,-0.02039161,0.00936989,0.99016043,0.12163915,-0.03048681,0.06210315
1761617542358,-0.23662883,-0.06738703,0.23726539,0.01337480,-0.00886613,-0.00574377,0.99014400,0.12178026,-0.03058035,0.06204255
1761617542369,1.59568902,0.26194667,-0.19153049,0.00151580,-0.06688587,-0.01282318,0.99013596,0.12178859,-0.03094822,0.06197203
1761617542382,-1.22952063,-0.34568180,-0.07807890,-0.03395932,-0.03341305,-0.00150240,0.99015576,0.12157974,-0.03115371,0.06196279
1761617542392,0.20787885,-0.03417062,-0.17020188,-0.02625636,-0.04363278,0.00473773,0.99016396,0.12144058,-0.03138496,0.06198790
1761617542404,-0.11352929,0.03968532,0.05422982,0.00138262,-0.01830124,0.00054906,0.99015921,0.12144895,-0.03149568,0.06199122
1761617542415,0.00680684,-0.02516740,0.41235129,-0.01568054,-0.02392609,0.01881116,0.99015911,0.12136271,-0.03162728,0.06209468
1761617542426,0.02146807,0.08336387,-0.07939777,0.00712437,-0.02485352,0.02288355,0.99014249,0.12140082,-0.03176024,0.06221711
1761617542438,-0.00317937,0.00936839,-0.07160214,0.02410414,-0.02307853,0.04409147,0.99010494,0.12154063,-0.03189410,0.06247284
1761617542449,-0.10631031,0.09080672,-0.36145504,0.01305256,-0.01801625,0.02576740,0.99008283,0.12161633,-0.03199859,0.06262229
1761617542502,-0.10890485,-0.03158296,0.11362065,-0.00257888,-0.00110915,0.00372460,0.99008401,0.12154863,-0.03202771,0.06272006
1761617542534,0.20055275,-0.09137961,-0.24275489,-0.02224098,0.00625650,0.00399040,0.99012669,0.12119389,-0.03192792,0.06278371
1761617542567,-0.06436493,0.06296395,0.04016315,-0.00141866,0.01092104,0.00310634,0.99013222,0.12116992,-0.03174335,0.06283620
1761617542598,0.01836616,-0.09085526,0.11949293,-0.02444277,0.00567232,-0.00304900,0.99018282,0.12080205,-0.03165798,0.06279032
1761617542633,0.02498473,0.08963611,-0.16695411,-0.00852806,-0.00586235,-0.01079223,0.99020969,0.12065281,-0.03176058,0.06260145
1761617542663,-0.00511715,-0.04133928,0.17137698,0.01282201,0.00499123,-0.00184944,0.99018993,0.12084963,-0.03168396,0.06257306
