UnixTime(ms),Ax,Ay,Az,Gx,Gy,Gz,QuatW,QuatX,QuatY,QuatZ
1759198516072,0.00000000,0.00000000,0.00000000,0.00000000,0.00000000,0.00000000,0.68652361,0.05383789,-0.72277713,0.05813816
1759198516102,0.62852737,-0.25382046,0.23513254,-0.07674169,-0.02267313,-0.08566252,0.68635855,0.05265991,-0.72312516,0.05682324
1759198516125,-0.31129229,0.12621402,-0.31707326,-0.02319759,0.00143899,-0.01567091,0.68641061,0.05239662,-0.72310883,0.05664537
1759198516158,-0.30392312,-0.01249983,-0.05612172,-0.02930539,0.00598254,-0.00992123,0.68656200,0.05192187,-0.72301191,0.05648465
1759198516180,0.14918700,-0.07467747,-0.03170971,-0.03458774,-0.00079115,-0.03863138,0.68661707,0.05153622,-0.72302073,0.05605391
1759198516225,-0.07967444,0.11541968,0.03859364,-0.01680130,0.00491638,-0.00368121,0.68676889,0.05115735,-0.72290987,0.05597090
1759198516236,0.87610404,0.18193288,-0.83844191,0.00796160,0.01578195,0.06399227,0.68682983,0.05120233,-0.72282070,0.05633245
1759198516258,-0.50514067,0.16788937,0.25543985,0.03143775,0.00902429,0.01539095,0.68689481,0.05154972,-0.72272098,0.05650252
1759198516280,0.02504774,-0.10098908,0.13681683,0.00805897,-0.00035438,-0.03600925,0.68691573,0.05163514,-0.72272474,0.05612083
1759198516292,-0.22240757,-0.01124923,0.03810298,-0.03901649,0.00461098,-0.01418297,0.68696979,0.05139909,-0.72269684,0.05603502
1759198516314,0.03722956,-0.03049833,-0.00421246,-0.02401278,0.00740968,0.00361392,0.68707106,0.05113735,-0.72261607,0.05607441
1759198516336,-0.04511289,-0.02250803,0.03828532,-0.00735343,0.00601298,0.00708822,0.68714247,0.05105389,-0.72254783,0.05615486
1759198516348,-0.62376237,0.03392980,0.02152794,0.02537886,0.00040065,0.00270447,0.68713293,0.05119728,-0.72254556,0.05617014
1759198516359,0.34888753,-0.08861544,-0.03009381,0.03694329,-0.00222995,0.00211153,0.68710233,0.05141155,-0.72255850,0.05618239
1759198516369,0.13623196,0.11664467,-0.10607563,0.02983662,0.00451136,0.01043044,0.68711077,0.05156372,-0.72253549,0.05623558
1759198516394,0.08083463,-0.03877188,0.03769424,0.00917388,0.00173974,0.01618828,0.68710847,0.05167656,-0.72251409,0.05643470
1759198516426,-0.01518681,0.02696903,-0.00459100,0.01764729,0.00878503,0.03043892,0.68719532,0.05196068,-0.72237265,0.05692477
1759198516437,-0.68867991,-0.17924522,-0.60131084,0.04775740,0.02741854,0.08751681,0.68729208,0.05221857,-0.72222459,0.05739736
1759198516460,0.28703914,-0.00694137,0.22901108,0.01186229,0.00040075,0.01429542,0.68727313,0.05235261,-0.72222006,0.05755890
1759198516470,0.03814103,0.36850985,0.27971776,-0.00001400,0.00890598,0.03583418,0.68730554,0.05235254,-0.72217464,0.05774165
1759198516482,0.16795549,-0.10509892,-0.06921233,0.04467324,0.00550482,-0.01210312,0.68732637,0.05262728,-0.72214079,0.05766722
1759198516494,-0.07243759,0.13010662,-0.00108460,-0.00297172,-0.00908090,-0.00947876,0.68727739,0.05261020,-0.72219300,0.05761271
1759198516518,0.01212069,-0.08276623,0.03230834,-0.00171245,-0.00226977,-0.00208552,0.68725244,0.05258965,-0.72222024,0.05758769
1759198516532,-0.07249573,0.02279071,0.07122712,0.00231123,-0.00826901,-0.00148245,0.68719036,0.05260606,-0.72227895,0.05757716
1759198516552,0.05690785,-0.08479846,-0.03035166,-0.00191445,-0.00882983,0.00372580,0.68709399,0.05258653,-0.72236901,0.05761516
1759198516583,-0.00811523,0.00985716,0.01593113,0.00032686,-0.01002925,0.00437154,0.68692718,0.05259151,-0.72252196,0.05768183
1759198516605,-0.05995405,-0.00268271,0.04524896,0.01265146,-0.01699516,-0.01240002,0.68672592,0.05273448,-0.72271401,0.05754171
1759198516616,-0.10258128,-0.05341609,-0.02197931,0.05040712,-0.00286116,0.01820023,0.68668173,0.05299911,-0.72272903,0.05763726
1759198516648,0.05347244,0.04267184,-0.08790707,0.02172921,0.00546290,0.02116988,0.68671839,0.05334787,-0.72264135,0.05797704
1759198516659,-0.26929101,-0.00867286,-0.19112718,0.04031636,0.00373571,0.01732380,0.68671463,0.05357364,-0.72262043,0.05807405
1759198516724,0.06211637,-0.00461780,0.04289255,0.00416874,0.00070387,0.00004955,0.68672792,0.05370850,-0.72259766,0.05807565
1759198516762,-0.00076796,0.09294647,0.03094838,0.01822721,-0.00263903,0.02032311,0.68661551,0.05405390,-0.72264767,0.05846078
1759198516781,0.02574832,0.01782007,0.05903889,-0.00003213,-0.00096221,0.02429659,0.68658514,0.05405359,-0.72265714,0.05870010
1759198516813,-0.02117204,-0.10841927,-0.04801929,-0.00202876,0.00349006,-0.00972792,0.68665929,0.05402133,-0.72260165,0.05854542
1759198516841,-0.01787494,-0.08490821,-0.06835812,0.00383903,0.00728509,0.00145970,0.68676027,0.05407488,-0.72250003,0.05856579
1759198516865,-0.08760726,0.01431662,-0.07446306,0.00987150,0.00484398,0.00464889,0.68680673,0.05419186,-0.72244262,0.05862088
1759198516885,0.04130594,0.03308913,0.14428424,0.00726238,0.00175634,0.01053402,0.68681061,0.05426703,-0.72242445,0.05872990
1759198516898,-0.13388026,-0.11024921,-0.01193679,-0.01136798,-0.00144349,0.00670981,0.68680296,0.05419427,-0.72243368,0.05877285
1759198516930,0.08258212,0.04794856,0.00640284,-0.01371185,-0.00133742,0.00085572,0.68679655,0.05397488,-0.72245508,0.05878654
1759198516943,0.02365850,0.11007979,-0.08191603,-0.00392164,-0.00084195,0.01561284,0.68678449,0.05395018,-0.72246039,0.05888490
1759198516955,0.09669434,0.15309678,-0.09750298,0.01498901,-0.00454413,0.02415804,0.68673750,0.05403786,-0.72248697,0.05902622
1759198516967,0.00058871,0.09534228,0.24796420,0.03060661,0.00681059,0.02231093,0.68675478,0.05422456,-0.72244543,0.05916232
1759198516991,0.02681906,-0.08129023,-0.05618735,0.03316089,-0.00029201,-0.00056011,0.68671941,0.05463078,-0.72244900,0.05915546
1759198517003,-0.02481415,0.09612685,0.08436389,0.02135528,0.00240388,-0.05533177,0.68675289,0.05475891,-0.72243458,0.05882347
1759198517006,-0.20082841,0.13746270,0.59625085,-0.06484226,-0.01386317,-0.00199352,0.68674041,0.05467138,-0.72245330,0.05882078
1759198517023,-0.02324063,-0.15506972,-0.14745503,-0.03081669,-0.00310945,-0.00724844,0.68673873,0.05441560,-0.72247910,0.05876061
1759198517034,-0.08393639,0.28220594,-0.14797985,-0.05264114,-0.00686751,-0.00582952,0.68672371,0.05410765,-0.72251928,0.05872651
1759198517046,-0.00217710,-0.04375971,-0.00304794,-0.05165173,-0.00727451,0.00088884,0.68670223,0.05380548,-0.72256183,0.05873171
1759198517057,0.00633862,-0.02332588,0.04199481,-0.01855385,-0.00870037,-0.01730432,0.68666675,0.05369973,-0.72261143,0.05863308
1759198517065,-0.03941409,-0.58156788,0.20715312,0.02038941,-0.02202148,-0.03602046,0.68658646,0.05377517,-0.72269291,0.05849980
1759198517077,0.03131869,-0.00054794,-0.03677270,-0.00691955,-0.01237514,-0.00311772,0.68650947,0.05373158,-0.72277087,0.05848016
1759198517089,-0.01611062,0.02228281,-0.04252517,-0.00735903,-0.00563784,-0.00157864,0.68647760,0.05368669,-0.72280526,0.05847053
1759198517102,-0.06667679,0.02542929,-0.03243736,-0.00211722,0.00482673,0.01923251,0.68649961,0.05367377,-0.72277582,0.05858785
1759198517114,0.00489046,0.07409516,-0.04471965,0.00538744,0.00841521,0.02031663,0.68653948,0.05370583,-0.72272575,0.05870873
1759198517121,-0.27789284,0.00635962,-0.12987515,0.01437430,0.02947381,0.06551992,0.68662327,0.05375542,-0.72262406,0.05893478
1759198517135,0.21470402,-0.03361803,-0.00368864,0.02387435,0.01095288,0.01711595,0.68668423,0.05393328,-0.72254246,0.05906229
1759198517163,0.01000391,-0.00376822,0.04736470,0.01045113,0.00909694,0.01367007,0.68678682,0.05407489,-0.72241920,0.05924752
1759198517184,-0.06175966,-0.03697499,-0.08145550,0.00112926,0.01321190,0.00248546,0.68693428,0.05408715,-0.72227585,0.05927449
1759198517197,-0.12848162,0.19672966,-0.11377893,0.01529402,0.03457961,0.02526953,0.68714687,0.05418579,-0.72205281,0.05943747
1759198517211,0.19295130,0.10168787,0.14910119,0.01430557,0.01551446,0.02741794,0.68723644,0.05428593,-0.72194421,0.05962940
1759198517223,-0.03792367,0.04074596,0.00034171,0.03231444,0.01984391,0.00318580,0.68734090,0.05447336,-0.72182912,0.05964788
1759198517235,-0.00639264,0.05751099,-0.27248493,0.00234048,0.00339890,0.00082494,0.68736094,0.05448752,-0.72180855,0.05965287
1759198517247,-0.02667631,-0.03550533,-0.00362717,-0.00917898,0.00680245,0.01335824,0.68740321,0.05442969,-0.72176570,0.05973703
1759198517262,0.00308730,-0.03926045,0.05491466,-0.00794151,0.00637484,0.00025035,0.68745467,0.05437370,-0.72172075,0.05973879
1759198517263,-13.02923687,9.11000732,-7.85849847,-0.09709845,0.02917081,0.03459103,0.68748467,0.05429117,-0.72169596,0.05976819
1759198517275,1.77087079,-1.30161925,1.39032084,-0.01273129,-0.00218705,0.00729455,0.68747302,0.05421414,-0.72170919,0.05981233
1759198517287,0.01410734,-0.03371952,0.07590241,0.00417105,-0.00477832,0.00974990,0.68743617,0.05423896,-0.72173762,0.05987034
1759198517299,0.01092026,-0.03786325,0.06982454,0.01449171,-0.00095778,0.02475171,0.68741096,0.05432374,-0.72174323,0.06001513
1759198517310,-0.04062383,0.06780768,-0.02597444,0.02069925,-0.00611099,0.02387341,0.68735468,0.05443862,-0.72177714,0.06014763
1759198517321,-0.03147858,-0.05442561,-0.01357430,0.02398677,-0.00757802,0.01857501,0.68729035,0.05457294,-0.72181958,0.06025165
1759198517334,-0.00518478,-0.18479699,0.18539231,0.01620389,-0.00052896,0.00835645,0.68727438,0.05467341,-0.72182286,0.06030346
1759198517346,-0.01420901,-0.10359914,0.08411691,0.01532308,0.00149282,0.00441542,0.68727414,0.05476458,-0.72181398,0.06032973
1759198517358,0.06635609,-0.02540067,-0.04816273,0.01419873,-0.00103818,0.00167316,0.68725945,0.05485261,-0.72182041,0.06034011
1759198517369,-0.04582640,0.08749874,-0.14331463,0.01795737,0.00206385,0.00155886,0.68726267,0.05494958,-0.72180927,0.06034853
1759198517380,0.07878012,-0.00434213,-0.06073139,0.01766443,-0.00301671,0.01145369,0.68723054,0.05505115,-0.72182661,0.06041438
1759198517394,0.06590708,0.04918387,0.00676537,0.01714629,0.00050375,0.00672826,0.68722033,0.05517289,-0.72182304,0.06046215
1759198517405,-0.03285126,0.10718476,0.06783698,0.00736464,-0.00121508,0.01169070,0.68720527,0.05521119,-0.72182936,0.06052295
1759198517408,-0.81096704,2.44971269,0.08151063,0.09870979,-0.01215803,0.01999015,0.68717156,0.05535925,-0.72184759,0.06055293
1759198517420,0.29358194,-0.55000078,-0.07815789,0.02994184,-0.00564476,0.01434655,0.68711533,0.05553441,-0.72188061,0.06063686
1759198517431,-0.11782158,0.07271352,-0.30639554,-0.00957592,0.00124348,0.00354097,0.68712558,0.05547887,-0.72187340,0.06065740
1759198517442,0.08118988,-0.03624859,-0.00343971,-0.01181127,-0.00824692,0.00248654,0.68708196,0.05541391,-0.72191876,0.06067107
1759198517453,-0.02405190,-0.02559115,0.07727041,-0.00172826,-0.00103140,-0.00847711,0.68708087,0.05540432,-0.72192448,0.06062402
1759198517464,0.18714712,-0.15058094,0.24503244,0.00451062,-0.00968970,0.00959274,0.68701879,0.05542890,-0.72197729,0.06067630
1759198517478,-0.09010495,0.07230629,0.01144371,-0.01377097,-0.00413235,-0.00858434,0.68700208,0.05533595,-0.72200519,0.06061836
1759198517491,-0.03341413,-0.01815048,0.05652187,-0.01415888,0.00640953,-0.01211853,0.68706021,0.05524391,-0.72196352,0.06053959
1759198517503,0.22314548,-0.02292810,-0.15509129,0.01294331,-0.00324558,0.01341964,0.68702668,0.05532093,-0.72198284,0.06061944
1759198517515,-0.09737736,0.19255726,0.01276802,0.02567955,0.01237848,0.01076971,0.68708909,0.05548142,-0.72190547,0.06068675
1759198517528,0.00782013,-0.03929138,0.00839233,0.02578007,0.01475372,0.02529056,0.68715896,0.05564255,-0.72181326,0.06084481
1759198517550,-0.08036541,-0.11057603,0.01292813,0.01145076,0.00874731,0.00402807,0.68724667,0.05576965,-0.72171616,0.06088953
1759198517572,-0.07403401,-0.15647509,-0.01174853,0.00942749,0.00802419,0.01098898,0.68732255,0.05587665,-0.72162509,0.06101425
1759198517583,-0.07497607,0.13937731,-0.17534751,-0.00403502,0.01078397,-0.01192528,0.68739117,0.05585486,-0.72156686,0.06094985
1759198517607,0.13047740,0.07521066,0.08134322,0.00036414,0.00036346,0.00431163,0.68739082,0.05585911,-0.72156262,0.06100008
1759198517608,-3.93216475,19.20953540,-11.59574056,0.38657531,0.23954791,0.73294120,0.68753756,0.05622635,-0.72133505,0.06169638
1759198517651,0.19487105,-0.82794632,0.50903142,0.01353028,0.01066348,0.01264317,0.68772527,0.05651049,-0.72111112,0.06196188
1759198517662,0.32652465,0.87633019,-0.70195113,0.01088592,0.10131794,0.07308331,0.68831715,0.05657580,-0.72050321,0.06240038
1759198517695,-0.18743444,-0.28169899,0.19459083,0.00816107,0.03924158,0.01720681,0.68895743,0.05671046,-0.71985572,0.06268430
1759198517707,-0.02900241,0.93927126,-0.53337467,0.13734052,0.10074681,0.08657173,0.68946850,0.05752764,-0.71925628,0.06319940
1759198517720,-0.11692302,0.18536540,0.08823254,0.16111221,0.10106904,0.02012185,0.69004861,0.05856681,-0.71860439,0.06332919
1759198517765,0.00554891,-0.29969561,0.11319956,0.00235808,0.02461104,0.00952089,0.69060185,0.05861999,-0.71804941,0.06354388
1759198517806,-0.06539840,-0.01642637,-0.02841494,0.00581675,0.04494392,0.01088282,0.69152564,0.05873894,-0.71713030,0.06376643
1759198517841,-0.10092370,-0.01345218,0.00084683,0.02954673,0.02978539,0.01762019,0.69199454,0.05925748,-0.71660757,0.06407567
1759198517852,-0.67153781,-1.45835322,0.17066428,-0.03746962,0.03095100,0.09303157,0.69214084,0.05905140,-0.71643734,0.06458734
1759198517900,0.28836243,0.29997095,0.03627612,0.00635699,-0.00082840,0.01189409,0.69208154,0.05920143,-0.71645689,0.06486804
1759198517910,-1.87389665,0.77845248,-0.62141121,0.05850220,0.00444440,0.12307553,0.69201969,0.05950271,-0.71643400,0.06550188
1759198517942,0.61959452,-0.19533189,0.17506098,0.00440293,0.00647936,0.00669289,0.69210995,0.05957250,-0.71633130,0.06560796
1759198517963,-0.03003525,0.03655286,-0.03352060,-0.00115591,0.00938495,0.00683577,0.69220708,0.05956025,-0.71623182,0.06568042
1759198517997,0.00761986,0.00502234,0.02104958,0.00748673,0.00774861,0.01679980,0.69230523,0.05968752,-0.71610010,0.06596602
1759198518007,-0.83134361,0.91478518,-0.46053126,0.02680855,0.04640732,0.08819375,0.69248959,0.05982022,-0.71587038,0.06640258
1759198518021,0.24514125,-0.29636751,-0.01545275,0.05951016,0.02665075,0.04747033,0.69261969,0.06025465,-0.71567583,0.06674911
1759198518052,0.17667668,-0.20491808,0.08736374,0.01005050,0.00893868,0.01293767,0.69272813,0.06040792,-0.71553951,0.06694641
1759198518055,-12.11232757,1.59585613,-11.91592640,0.09038974,0.16004844,0.15226389,0.69294922,0.06054802,-0.71529144,0.06718242
1759198518076,1.80720017,-0.22409195,1.81921920,0.01956154,0.00609294,0.01969925,0.69297679,0.06075048,-0.71522838,0.06738631
1759198518090,-0.05762258,0.05896336,0.01590991,0.02611824,0.02173703,0.04576782,0.69309044,0.06093984,-0.71507078,0.06771813
1759198518101,-0.02404087,0.00877249,-0.16984129,0.01154495,0.02092183,0.04904027,0.69317637,0.06100276,-0.71495676,0.06798539
1759198518112,0.04717371,-0.10687871,0.05169181,0.01757455,0.03276658,0.02408463,0.69334218,0.06110030,-0.71477491,0.06811906
1759198518123,0.05699977,0.05643460,0.00267809,0.02922521,0.02966843,0.01763740,0.69348271,0.06125665,-0.71461618,0.06821342
1759198518133,0.14864892,0.03649276,0.19458253,0.00335179,0.02155062,0.00504351,0.69359298,0.06127392,-0.71450519,0.06823940
1759198518146,0.09351704,-0.09554368,0.05471199,0.02512400,0.02484448,0.01626020,0.69373010,0.06143220,-0.71434867,0.06834184
1759198518157,-0.07190824,0.07122189,-0.10575052,0.01695999,0.02876997,0.01418081,0.69387972,0.06152717,-0.71418756,0.06842125
1759198518168,-0.10688310,0.02625827,-0.27640210,0.00520490,0.02835406,0.00962942,0.69402827,0.06155502,-0.71403587,0.06847277
1759198518178,-0.01561830,-0.06819992,-0.00624732,-0.00102977,0.04663634,0.02125050,0.69427414,0.06154951,-0.71378636,0.06858646
1759198518191,0.06239212,0.07296284,-0.06703720,0.01334616,0.03241407,0.00328685,0.69448247,0.06163693,-0.71357405,0.06860799
1759198518203,0.06292274,0.09523574,-0.17466420,-0.00120454,0.04773603,0.03766237,0.69474132,0.06163006,-0.71330196,0.06882266
1759198518214,0.08125390,-0.10134351,0.07088195,0.01275342,0.05665035,0.05010063,0.69504051,0.06170339,-0.71297622,0.06911074
1759198518226,-0.04527559,0.01211005,-0.15451727,-0.02848135,0.04959719,0.02417741,0.69533107,0.06154105,-0.71269351,0.06924855
1759198518236,0.25044763,-0.33317851,0.08718397,-0.00330306,0.07351236,0.01155868,0.69572192,0.06152371,-0.71230757,0.06930924
1759198518247,0.05749323,-0.14230682,0.00753665,-0.00144943,0.07382966,0.01459784,0.69610787,0.06151617,-0.71192366,0.06938514
1759198518258,-0.04648894,0.02360741,0.01807987,-0.01072427,0.05721006,0.01140223,0.69644305,0.06145451,-0.71159470,0.06945071
1759198518270,-0.15856682,0.20450786,-0.11908013,-0.00197530,0.05918788,0.00965648,0.69680993,0.06144236,-0.71123069,0.06951009
1759198518282,-0.00230997,0.01267408,-0.03609820,-0.00351349,0.06947597,0.03744702,0.69719436,0.06142233,-0.71083468,0.06972354
1759198518293,0.00932729,0.03436951,-0.11987960,0.00828379,0.07230209,0.03444119,0.69757313,0.06146748,-0.71044064,0.06991125
1759198518305,-0.05891750,0.04959219,0.12787235,-0.00560923,0.06167874,0.01567889,0.69795261,0.06143298,-0.71006131,0.07000767
1759198518316,-0.00347223,-0.10610732,-0.10053052,0.01386765,0.07179645,0.03350891,0.69832890,0.06150925,-0.70966643,0.07019197
1759198518317,-4.18531872,-1.27834823,-50.40241746,-0.08754960,0.50783150,0.15679151,0.69868433,0.06144797,-0.70931095,0.07030172
1759198518332,0.42073310,0.16717684,4.85707843,-0.00380770,0.04643597,0.00231512,0.69903848,0.06141941,-0.70896268,0.07031909
1759198518346,-0.00384970,-0.02356768,0.00292953,0.00403349,0.05369603,0.01693550,0.69939984,0.06144724,-0.70859218,0.07043594
1759198518357,0.01716102,0.04367382,-0.14759714,-0.00086949,0.05564519,0.03231337,0.69969760,0.06144237,-0.70828056,0.07061690
1759198518367,-0.04468630,0.03509020,-0.04273229,0.02225184,0.06987764,0.06829773,0.70001297,0.06155586,-0.70792419,0.07096522
1759198518379,-0.00240762,0.09812958,0.12359525,0.01825450,0.03869718,0.03221272,0.70021331,0.06166265,-0.70769781,0.07115366
1759198518390,-0.10852835,0.07802424,-0.02474430,0.03894452,0.07135527,0.02832816,0.70055859,0.06186711,-0.70732319,0.07130238
1759198518400,-0.01675958,-0.04243959,0.17192088,-0.02332024,0.04343759,0.03029797,0.70078336,0.06174467,-0.70709515,0.07146145
1759198518414,0.07815542,-0.06236844,0.07614243,0.01734931,0.04283925,0.02402854,0.70105989,0.06186699,-0.70679313,0.07163085
1759198518427,-0.01007154,0.15422488,-0.12570352,0.04524137,0.05303360,0.03681440,0.70134080,0.06214522,-0.70646697,0.07185726
1759198518438,-0.08205289,0.19038464,-0.11373022,0.03354933,0.05179801,0.02473259,0.70160434,0.06233478,-0.70617431,0.07199700
1759198518439,-6.55131691,33.45669962,-44.67657160,0.45534758,0.45410223,0.32832558,0.70187214,0.06265352,-0.70585644,0.07222682
1759198518455,0.60724099,-2.97897021,4.14525630,0.03466782,0.03597404,0.00839198,0.70212652,0.06292739,-0.70557225,0.07229312
1759198518466,0.03073741,0.08150842,-0.18050012,0.07929788,0.05958237,0.00948905,0.70240334,0.06335164,-0.70525348,0.07234389
1759198518479,0.03397657,-0.10147254,0.11951505,0.03340006,0.03749674,0.00457063,0.70262872,0.06357208,-0.70500600,0.07237405
1759198518489,-0.01668255,-0.03165194,-0.19578531,0.00747087,0.05417659,0.06090171,0.70287272,0.06361055,-0.70472699,0.07268770
1759198518499,-0.11301527,-0.10124198,0.09803001,-0.00356587,0.07021299,0.02364376,0.70321051,0.06359290,-0.70437944,0.07280473
1759198518512,0.04291947,-0.12582315,0.08512219,0.00031467,0.04550773,0.00918415,0.70349140,0.06359489,-0.70409274,0.07286259
1759198518523,-0.00038344,-0.05659110,-0.20669985,0.01092001,0.06021649,0.03217123,0.70380733,0.06365658,-0.70375252,0.07304436
1759198518534,0.10350765,0.03661989,-0.01211397,0.02171694,0.07064290,0.01689684,0.70415511,0.06376951,-0.70338517,0.07313223
1759198518543,0.03360622,-0.15014592,-0.06676468,0.02507903,0.07450586,0.01752341,0.70449253,0.06388989,-0.70302755,0.07321634
1759198518577,-0.00829013,-0.03356994,0.20348544,-0.00102886,0.02091321,-0.00111187,0.70484542,0.06387266,-0.70267725,0.07319771
1759198518609,-0.06652481,-0.09312269,-0.19974350,-0.00760871,0.06781076,0.00148876,0.70595770,0.06374825,-0.70156854,0.07322206
1759198518642,0.01005460,0.07478979,0.02540644,0.01240397,0.06087595,0.03322836,0.70688178,0.06395354,-0.70056105,0.07377198
1759198518689,0.04955085,0.00921388,0.02725023,0.00524010,0.04355116,0.02002293,0.70782417,0.06407537,-0.69954848,0.07423752
1759198518722,-0.03075991,0.08225305,-0.04675711,0.00165587,0.05469129,0.00181254,0.70870661,0.06410261,-0.69864881,0.07426733
1759198518754,0.05796738,-0.03355759,0.06371474,-0.02066649,0.03697700,0.00720620,0.70931271,0.06376885,-0.69805163,0.07438371
1759198518787,0.03016319,-0.00640890,0.07552580,-0.01991531,0.03374931,0.01435099,0.70986155,0.06344224,-0.69749814,0.07461907
1759198518844,-0.02638509,-0.03993468,0.03295562,-0.00409349,0.01940549,-0.00198657,0.71042188,0.06332537,-0.69694412,0.07456235
1759198518879,0.23475245,0.11699299,-0.07919897,0.03011675,0.02885900,0.01439119,0.71083736,0.06384488,-0.69644630,0.07481060
1759198518911,-0.15324975,-0.11977178,0.05764685,-0.00338933,0.02451470,-0.02777059,0.71128107,0.06378964,-0.69604671,0.07435794
1759198518954,0.00002003,-0.01266143,0.01922536,-0.01912670,0.02100106,-0.01138723,0.71177672,0.06338511,-0.69560254,0.07411710
1759198518986,0.04635047,-0.01465610,-0.01688659,-0.01600698,0.02126578,-0.00386014,0.71214164,0.06312659,-0.69525910,0.07405476
1759198519008,-0.10884763,-0.14864818,-0.14047917,-0.03804522,0.02878043,-0.03096129,0.71252978,0.06270049,-0.69493675,0.07370799
1759198519041,-0.01371664,0.14558261,0.07097159,-0.01436971,0.01757169,-0.00064525,0.71283528,0.06246267,-0.69464594,0.07369731
1759198519065,0.00468936,0.08377051,0.00572842,0.00398126,0.01380145,0.00899749,0.71298067,0.06251024,-0.69448102,0.07380483
1759198519086,-0.08831896,-0.01703019,-0.00178581,0.01031353,0.01733320,0.03703489,0.71310865,0.06261905,-0.69429815,0.07419555
1759198519097,-0.18303738,0.05667167,-0.16725165,-0.03195052,0.03278274,0.03123900,0.71327853,0.06244652,-0.69412112,0.07436424
1759198519132,0.03761056,-0.04691340,0.10745504,0.00065477,0.00854625,0.00135655,0.71342016,0.06245795,-0.69397199,0.07438792
1759198519143,0.21743416,0.57902034,-1.07705977,0.01445051,0.07085044,0.08812955,0.71372970,0.06253453,-0.69359648,0.07485500
1759198519175,-0.03110703,-0.15337805,0.33797614,0.00436596,0.01633612,0.02762721,0.71393352,0.06260526,-0.69333184,0.07530256
1759198519211,0.00819778,0.03721622,-0.05872873,0.01696616,0.03621772,0.02217317,0.71449549,0.06290980,-0.69268173,0.07570057
1759198519221,0.39056800,0.38534993,-1.20571712,-0.02319893,0.09888714,-0.05062939,0.71503723,0.06278801,-0.69216257,0.07543477
1759198519242,-0.13196375,-0.24910985,0.49778824,-0.02430534,0.04306343,-0.01018602,0.71550603,0.06253402,-0.69171256,0.07532832
1759198519264,-0.01804792,-0.08940461,0.04189762,-0.02375216,0.03109161,-0.00550850,0.71586729,0.06227156,-0.69136900,0.07526745
1759198519275,-0.06105458,-0.38401654,-0.04925335,-0.01683625,0.03596884,0.00236051,0.71606497,0.06217896,-0.69117117,0.07528044
1759198519320,-0.03688519,0.08080311,0.09222311,-0.01010769,0.01132213,-0.00572122,0.71633904,0.06195558,-0.69092095,0.07515400
1759198519331,0.27653170,-0.94933125,-1.55347889,-0.05226476,0.09205988,0.02625456,0.71684121,0.06166551,-0.69041002,0.07529971
1759198519353,-0.00567194,0.40536873,0.51065761,0.00655652,0.03046171,0.01470713,0.71714874,0.06173960,-0.69006580,0.07546590
1759198519365,-0.10991217,-0.00807266,-0.12384189,-0.01775578,0.05144622,0.01264278,0.71743439,0.06163750,-0.68976999,0.07553860
1759198519398,-0.03499243,0.06370105,0.15793103,-0.00968576,0.02302294,0.00572598,0.71780207,0.06147817,-0.68939126,0.07563279
1759198519408,0.05762631,0.08547183,-0.79432276,-0.02426797,0.07199364,0.02120782,0.71817094,0.06134834,-0.68900609,0.07574625
1759198519420,-0.02369395,0.05464110,0.05220869,-0.01972636,0.05830142,-0.01231620,0.71851837,0.06123195,-0.68866211,0.07567359
1759198519431,-0.07648606,0.30986357,0.49220185,-0.01142421,0.05223738,0.00950822,0.71879597,0.06116855,-0.68837220,0.07572636
1759198519443,0.03755361,0.12141002,0.03019428,0.00097185,0.05380230,0.01458511,0.71907781,0.06117404,-0.68806821,0.07580876
1759198519453,-0.06589864,-0.11139673,-0.00656982,-0.01881169,0.05205094,0.02213056,0.71934024,0.06107340,-0.68778974,0.07592716
1759198519464,0.03531455,-0.19315163,-0.10998053,0.00383878,0.04340762,0.01133673,0.71955806,0.06109432,-0.68755317,0.07598895
1759198519476,-0.11028425,-0.01006625,0.12141522,-0.01003688,0.04618077,-0.00078955,0.71981707,0.06103661,-0.68728763,0.07598441
1759198519486,0.07773542,-0.01216975,-0.09476867,0.01553115,0.03468610,-0.00712249,0.71998468,0.06111659,-0.68710900,0.07594773
1759198519497,-0.02523027,-0.12205568,0.09930206,0.00611925,0.03457100,0.01528884,0.72016207,0.06115178,-0.68691021,0.07603564
1759198519509,-0.07436496,0.13340624,0.05228082,0.00134629,0.02939805,-0.00801944,0.72032747,0.06115952,-0.68674117,0.07598952
1759198519520,0.03191585,-0.14070401,-0.00584304,0.02713549,0.03037118,0.02094867,0.72046306,0.06131012,-0.68657261,0.07610579
1759198519542,0.02908635,-0.07546729,0.16302869,0.00603501,0.01503565,0.00235652,0.72061360,0.06137711,-0.68640572,0.07613195
1759198519553,-0.11247487,-0.37789549,-0.27452929,0.01922652,0.03509061,0.01467852,0.72077985,0.06148285,-0.68621272,0.07621268
1759198519566,0.04289846,0.24098269,0.18421703,-0.00141624,0.00830601,0.00461396,0.72082660,0.06147407,-0.68616122,0.07624129
1759198519576,-0.09691810,0.15214291,-0.21088143,0.00824775,0.01327523,-0.01188969,0.72089452,0.06151655,-0.68609286,0.07618005
1759198519609,0.05600181,0.01442171,0.10776311,0.00924685,0.00360881,0.00463961,0.72093006,0.06166912,-0.68603331,0.07625661
1759198519642,-0.00667329,0.06863923,-0.11739015,0.01273711,0.01100973,0.01657414,0.72105628,0.06187992,-0.68585110,0.07653091
1759198519653,-0.37831806,0.94306912,-1.07239606,-0.04302247,0.02982515,0.03423538,0.72120544,0.06165405,-0.68569452,0.07671064
1759198519676,0.17086236,-0.49401461,0.52760493,-0.01298701,0.00885256,-0.00830180,0.72132511,0.06150470,-0.68559271,0.07661517
1759198519687,0.07489370,0.02456238,-0.11274849,-0.02088080,0.01867229,0.00215310,0.72143413,0.06138673,-0.68548721,0.07662734
1759198519709,-0.00642147,-0.03943942,0.12139057,-0.00917888,0.00912001,0.00172393,0.72153739,0.06128438,-0.68538553,0.07664656
1759198519720,-0.09011487,0.01232162,-0.44331933,-0.00531269,0.03522188,-0.00183767,0.72172150,0.06125569,-0.68519533,0.07663664
1759198519754,0.02906932,-0.02852472,0.18663748,-0.00939347,0.00750407,-0.00121630,0.72185792,0.06109647,-0.68506813,0.07661602
1759198519765,0.05999198,-0.34800619,-0.79270908,0.02133530,0.04734330,0.01187380,0.72209226,0.06121595,-0.68480301,0.07668251
1759198519776,-0.29452664,0.34456076,0.56434410,-0.01096179,0.00810650,0.01358904,0.72213171,0.06115566,-0.68475843,0.07675725
1759198519798,0.05094906,0.00259506,0.11456783,-0.00838667,0.00522782,0.00856579,0.72218355,0.06106425,-0.68470144,0.07685062
1759198519809,-0.18091059,-0.10248873,-0.22130646,-0.01727849,0.00924952,0.00377568,0.72223661,0.06097094,-0.68465149,0.07687101
1759198519820,0.13751050,0.00120186,0.11451453,0.00482344,-0.00100553,-0.00118424,0.72222951,0.06099868,-0.68465728,0.07686420
1759198519831,-0.21403479,0.18463449,-0.21863355,-0.00823885,0.00368287,-0.00451607,0.72225565,0.06095254,-0.68463665,0.07683891
1759198519843,0.14852513,-0.06978265,0.01099094,0.01103595,0.00459024,0.02946879,0.72225725,0.06101545,-0.68461049,0.07700688
1759198519854,0.02243940,0.00200109,0.00644234,-0.00312602,0.00707040,0.06620851,0.72225661,0.06099731,-0.68456948,0.07739089
1759198519865,0.13823099,0.16434338,0.21937145,0.00224013,0.01477767,0.02263785,0.72231697,0.06100919,-0.68449116,0.07751087
1759198519876,0.02755795,0.18327930,0.06155968,0.03035305,0.00871196,0.00172374,0.72234641,0.06117158,-0.68444455,0.07752009
1759198519887,0.04207452,0.12465304,0.03446843,0.01043214,-0.00161399,0.01562093,0.72232330,0.06123052,-0.68445367,0.07760835
1759198519898,0.00736136,0.07024862,-0.02998057,0.02553341,0.00094550,-0.01606632,0.72232582,0.06137223,-0.68444842,0.07751918
1759198519909,-0.02809862,-0.03520350,0.03908587,0.01737682,-0.00206780,-0.03519174,0.72232764,0.06146693,-0.68445969,0.07732739
1759198519922,0.03090308,-0.10816423,0.03326938,-0.00988916,-0.01059632,-0.01164201,0.72227753,0.06140463,-0.68452645,0.07725404
1759198519932,-0.25938786,0.04819191,0.03893000,-0.02917114,-0.00666123,-0.01372801,0.72226545,0.06125586,-0.68456042,0.07718403
1759198519954,0.05330709,-0.15257572,0.01925729,-0.01088397,-0.00044448,0.00006954,0.72227088,0.06113613,-0.68456531,0.07718480
1759198519966,-0.11321251,-0.00782696,-0.06871307,-0.03464394,-0.01378413,0.01037299,0.72220395,0.06093000,-0.68464732,0.07724652
1759198519976,0.16935215,-0.03964106,0.11878277,-0.00553518,-0.00673622,0.01849081,0.72216209,0.06090067,-0.68468303,0.07734452
1759198519978,-1.16506769,-2.00480005,-4.34468974,0.03358021,-0.09996903,0.10878929,0.72208560,0.06092417,-0.68475300,0.07742067
1759198519998,0.10393439,0.08216017,0.27131033,0.00555514,-0.00325116,0.00963442,0.72203767,0.06098222,-0.68478698,0.07752135
1759198520009,-0.17368355,-0.11176287,-0.05891817,-0.00166116,0.00372002,0.00900064,0.72205226,0.06097325,-0.68476689,0.07756995
1759198520021,0.07047159,-0.06387642,-0.03492819,-0.01205064,-0.00204487,0.01660009,0.72203656,0.06090336,-0.68477875,0.07766623
1759198520032,0.03202084,-0.11144837,0.15731648,0.00076972,0.00826198,0.01538758,0.72207172,0.06090778,-0.68473124,0.07775471
1759198520043,-0.06678112,-0.07176958,0.08429104,-0.01117597,0.00473344,0.00834202,0.72209529,0.06084967,-0.68470663,0.07779809
1759198520054,0.05916435,0.11343362,-0.05117346,0.00022809,0.00132801,0.00501287,0.72209928,0.06085097,-0.68469906,0.07782666
1759198520065,0.03293928,0.07120561,-0.02614019,0.00820792,0.00217629,0.01092737,0.72210033,0.06089570,-0.68468720,0.07788622
1759198520067,-3.93132864,-2.09972176,-1.50267093,-0.05346862,0.00953646,0.04123450,0.72210670,0.06085828,-0.68468052,0.07791508
1759198520077,0.55796693,0.61161835,0.08848745,0.00929890,0.00194864,0.01493976,0.72210385,0.06090663,-0.68467039,0.07799277
1759198520087,0.04325966,0.22153354,0.00771510,0.00747069,-0.00097405,0.02668518,0.72208076,0.06094548,-0.68467546,0.07813153
1759198520098,-0.01918300,0.03356314,0.03374313,0.00819966,0.00191797,0.01837650,0.72207602,0.06099058,-0.68466491,0.07823260
1759198520109,0.02487632,0.03719133,0.00935941,0.02133181,0.00257991,0.00342661,0.72207751,0.06110790,-0.68465072,0.07825145
1759198520133,-0.00499940,-0.07274504,-0.00293964,0.00691165,-0.00390542,-0.00867071,0.72203866,0.06118808,-0.68469602,0.07815087
1759198520143,0.12070497,0.18202222,0.50306661,0.00731757,-0.00829978,-0.01392375,0.72200094,0.06122759,-0.68474084,0.07807568
1759198520155,-0.02036168,-0.15545801,-0.28471158,0.00698414,-0.01453989,-0.01274393,0.72192810,0.06126670,-0.68482226,0.07800432
1759198520156,3.39267509,5.47318320,8.51827540,0.01013346,-0.09350110,0.01530886,0.72185513,0.06127481,-0.68489706,0.07801656
1759198520166,-0.66563487,-0.95680356,-1.47297978,-0.00741637,-0.01415048,-0.00845089,0.72179570,0.06123773,-0.68496782,0.07797431
1759198520187,-0.00583119,-0.05866070,-0.00762646,-0.00307714,-0.00518259,-0.00232243,0.72174877,0.06120495,-0.68502301,0.07794957
1759198520189,1.42059486,-4.35672044,2.83495903,-0.05553026,-0.26188870,-0.12805432,0.72156469,0.06116053,-0.68523252,0.07784713
1759198520199,-0.21129847,0.54515898,-0.43377280,-0.00114888,-0.01720190,0.00382810,0.72148142,0.06115479,-0.68531853,0.07786627
1759198520211,0.00652037,0.01358114,-0.04100034,0.00357120,-0.01569214,0.00664540,0.72138904,0.06117550,-0.68540955,0.07790481
1759198520221,0.06541815,-0.02756205,-0.05298390,0.00345816,-0.01603718,0.00982121,0.72130110,0.06119383,-0.68549454,0.07795687
1759198520233,-0.25948773,-0.19165258,-0.11228085,0.01317285,-0.02066309,0.00066528,0.72117924,0.06127089,-0.68561542,0.07796076
1759198520244,0.00286644,-0.14623125,0.06859300,0.00494945,-0.01124315,0.02396174,0.72110456,0.06129786,-0.68567670,0.07809135
1759198520266,0.01828482,0.15975219,-0.00655422,-0.01060728,-0.00316419,-0.01422845,0.72109839,0.06118277,-0.68571103,0.07793697
1759198520267,9.27372079,-21.67712019,-19.91854506,0.15371745,-0.07803364,0.06901843,0.72103681,0.06128269,-0.68576175,0.07798183
1759198520277,-1.01759635,2.98301569,2.46463917,-0.00015284,0.00423821,0.00209630,0.72105571,0.06128193,-0.68574077,0.07799221
1759198520312,-0.00170569,0.01211236,0.04237226,0.00116698,0.00189037,0.00157807,0.72108244,0.06130236,-0.68570769,0.07801983
1759198520322,0.43754067,0.31066792,-1.17915017,-0.01364047,0.02921848,0.03573653,0.72120778,0.06123415,-0.68556160,0.07819851
1759198520332,-0.49665394,-0.18479865,0.48234794,0.00464943,0.02101052,0.00846109,0.72130480,0.06125833,-0.68545234,0.07824251
1759198520344,0.05712194,-0.03510729,0.13808179,-0.00344599,0.01552757,0.01079674,0.72138735,0.06123783,-0.68535995,0.07830675
1759198520356,0.09844714,0.04629308,0.03917642,-0.01246799,0.01643069,0.00336248,0.72148516,0.06116302,-0.68526137,0.07832692
1759198520366,0.03669432,0.05250640,0.09656250,-0.01404800,0.01573094,-0.00256969,0.72156884,0.06109137,-0.68518114,0.07831382
1759198520377,0.08971294,-0.05744833,-0.05224015,-0.01535015,0.00690795,0.00153207,0.72161191,0.06100541,-0.68514246,0.07832240
1759198520389,-0.06482093,-0.03703299,0.07469053,-0.02776913,0.01457536,-0.00306343,0.72170274,0.06085268,-0.68506229,0.07830555
1759198520400,0.13454001,-0.07080383,-0.12770151,-0.02341261,0.00911483,0.00561740,0.72175932,0.06072040,-0.68501079,0.07833729
1759198520412,-0.02498437,-0.01065305,-0.01667611,-0.02987549,0.00338636,-0.00287009,0.72179523,0.06054264,-0.68499065,0.07832021
1759198520422,0.05270192,-0.13870758,0.07978021,-0.01066136,0.02311736,0.02411722,0.72190335,0.06048560,-0.68486697,0.07844924
1759198520444,-0.16418146,0.08061487,0.07330405,-0.00357238,0.00587065,0.00453596,0.72196033,0.06044774,-0.68480474,0.07849732
1759198520455,0.08907687,-0.10764065,-0.42750422,-0.01193610,0.02531875,0.03690620,0.72207893,0.06038030,-0.68466169,0.07870584
1759198520467,0.10524220,-0.14407020,0.30191335,-0.01542514,0.01716634,0.02852517,0.72216564,0.06028775,-0.68455869,0.07887699
1759198520477,0.04588612,-0.06913328,-0.12177729,-0.03719201,0.01120506,-0.02379601,0.72225130,0.06009249,-0.68449986,0.07875206
1759198520488,-0.12550498,0.01370977,0.16816733,-0.03199470,0.01299173,-0.02241145,0.72234532,0.05991972,-0.68442971,0.07863104
1759198520499,0.04074374,0.01213443,0.05512230,-0.04789781,0.01204991,0.00678439,0.72242658,0.05965389,-0.68436283,0.07866869
1759198520511,0.06983784,0.10528926,0.01947622,-0.00902977,0.01128958,0.02239524,0.72247922,0.05960106,-0.68429679,0.07879970
1759198520523,0.08556003,0.04898475,-0.04180032,-0.00140173,0.01745288,0.02113719,0.72256309,0.05959286,-0.68419469,0.07892335
1759198520532,-0.27279940,0.05249266,-0.06600702,-0.01147692,0.01249876,0.01623240,0.72261647,0.05953720,-0.68413407,0.07900208
1759198520544,-0.16450933,0.13703831,0.16523748,0.01882119,0.01661601,0.00602869,0.72269353,0.05964448,-0.68403936,0.07903645
1759198520556,0.08906887,0.05137982,0.00723215,-0.00851062,0.00521326,0.00227823,0.72272531,0.05959427,-0.68400860,0.07904989
1759198520567,0.16071646,0.09999375,0.17037536,0.02344511,0.00937541,-0.03946051,0.72278773,0.05972439,-0.68395657,0.07883088
1759198520578,0.16036799,-0.05369788,-0.03144470,0.00349710,-0.00394130,-0.04078121,0.72279008,0.05974380,-0.68397844,0.07860455
1759198520589,-0.02658400,-0.01936976,0.11225712,-0.02455720,-0.00918842,-0.02462837,0.72276752,0.05960505,-0.68403035,0.07846540
1759198520600,-0.04850657,0.00249017,0.05118104,-0.05130323,-0.01198807,-0.02184117,0.72274208,0.05933057,-0.68409449,0.07834855
1759198520601,10.53308424,3.70657681,1.91247526,-0.08599405,-0.08389527,-0.12408427,0.72269495,0.05926178,-0.68416161,0.07824928
1759198520612,-1.62500543,-0.57636804,-0.26347626,-0.02372828,-0.01826369,-0.00160091,0.72261224,0.05913246,-0.68426114,0.07824055
1759198520623,-0.10875829,-0.02620540,0.02842672,-0.00211910,-0.01976103,-0.00127201,0.72251010,0.05912070,-0.68437082,0.07823349
1759198520634,-0.26691133,-0.02050017,0.11347421,0.00655585,-0.01918681,-0.00827291,0.72241656,0.05915512,-0.68447155,0.07819006
1759198520644,-0.01372508,-0.08280878,0.02288331,0.01225317,-0.02094395,-0.00449217,0.72231270,0.05921761,-0.68457836,0.07816715
1759198520656,-0.04024311,-0.07850237,-0.03832387,-0.00518350,-0.01436252,-0.01011800,0.72223772,0.05918547,-0.68466741,0.07810442
1759198520667,0.16378969,-0.00568281,-0.05939692,-0.03236842,-0.01103281,-0.00832240,0.72220247,0.05902039,-0.68472368,0.07806197
1759198520678,0.09404785,-0.13005096,-0.10718649,0.00186792,-0.00928559,0.00820422,0.72214636,0.05903104,-0.68477661,0.07810874
1759198520688,-0.05842085,-0.02709220,0.04474660,-0.00890996,0.00382196,0.00363688,0.72216655,0.05898560,-0.68475711,0.07812729
1759198520699,0.06318109,0.02177652,-0.02876977,-0.00096196,0.00133128,0.01043882,0.72216772,0.05898026,-0.68474972,0.07818522
1759198520710,0.03410541,0.09336658,-0.05369788,0.02188383,0.00590648,0.00860597,0.72218370,0.05910171,-0.68471694,0.07823299
1759198520723,-0.05123723,0.07784216,-0.00140216,0.02805661,0.00764892,0.00067694,0.72221419,0.05927707,-0.68466914,0.07823722
1759198520756,-0.05250899,-0.00000714,-0.01894969,0.00770031,0.00458979,0.00405187,0.72226780,0.05940297,-0.68459409,0.07830346
1759198520778,-0.08932091,0.02992623,0.00652620,0.01428847,0.00866954,0.01316248,0.72232953,0.05956014,-0.68449873,0.07844825
1759198520789,0.47400471,0.11231288,0.29531392,0.00683018,-0.00678395,-0.03933407,0.72231454,0.05959771,-0.68453604,0.07823191
1759198520801,-0.08781314,0.17637943,0.08537049,0.00593894,-0.00859082,-0.03138519,0.72228285,0.05963364,-0.68458802,0.07804203
1759198520834,-0.00655247,-0.05086334,-0.09389675,0.00194370,-0.00620330,-0.00320558,0.72218918,0.05966561,-0.68469006,0.07798930
1759198520856,-0.14156127,-0.03891935,0.17461405,0.00562082,-0.01930978,-0.00356615,0.72198502,0.05972800,-0.68490440,0.07794972
1759198520868,-0.04364592,-0.05753317,0.11191172,-0.00026698,-0.02335647,0.01897481,0.72184230,0.05972643,-0.68504220,0.07806167
1759198520878,0.20945837,0.10944056,-0.24690661,0.01126507,-0.00402644,0.02143194,0.72180481,0.05978613,-0.68506354,0.07817526
1759198520900,0.02557970,-0.05234104,-0.09576276,0.00996404,-0.00406286,0.01202555,0.72173807,0.05989723,-0.68510884,0.07830934
1759198520938,0.00677540,0.00382559,0.00669788,0.01100415,-0.00157849,0.00935070,0.72167618,0.06009586,-0.68513733,0.07847812
1759198520993,-0.03251110,-0.01036568,0.00616279,0.01660368,-0.00883030,0.00156538,0.72139672,0.06056242,-0.68538547,0.07852211
1759198521037,0.04187416,0.03837704,0.11680177,0.01641389,-0.03138093,-0.00079189,0.72071476,0.06092188,-0.68607271,0.07850477
1759198521069,-0.07687941,-0.03954847,-0.02938944,0.00000459,-0.02603216,-0.02424023,0.72035354,0.06092196,-0.68649703,0.07810965
1759198521090,0.15037355,0.01229785,0.17308076,0.01788311,-0.05309073,-0.03659818,0.71984514,0.06111063,-0.68705714,0.07772354
1759198521123,0.05227217,-0.05949960,-0.08483859,0.00768293,-0.03726286,-0.01505744,0.71927556,0.06123701,-0.68767011,0.07747585
1759198521145,-0.18505046,-0.17625594,-0.17124608,0.01218841,-0.04168028,-0.02077508,0.71884624,0.06137230,-0.68813277,0.07724524
1759198521190,0.04445066,0.09401395,-0.01572080,-0.00750480,-0.02068720,0.00163854,0.71841953,0.06120682,-0.68858892,0.07728137
1759198521226,0.07351140,0.04460219,0.11050774,-0.00034777,-0.03133503,0.01227918,0.71784892,0.06120049,-0.68915922,0.07750485
1759198521258,0.01416706,0.06026208,0.16246447,0.04429008,-0.07734307,-0.05349825,0.71670092,0.06190249,-0.69038510,0.07665691
1759198521302,-0.03660556,0.00540312,-0.13937459,-0.01345772,-0.03709882,0.00183950,0.71593677,0.06160709,-0.69119942,0.07669728
1759198521324,0.14028100,0.04647107,0.24326379,-0.02979117,-0.08497462,0.01408735,0.71504468,0.06127939,-0.69213414,0.07685224
1759198521347,-0.08356234,-0.40128730,-0.25285097,-0.02623513,-0.02849562,0.01509859,0.71473580,0.06097900,-0.69246042,0.07702512
1759198521368,-0.00155591,-0.01933010,0.02369743,-0.01694941,-0.02461460,0.01160746,0.71448022,0.06079594,-0.69272626,0.07715048
1759198521389,-0.02660139,0.01391199,0.00534284,-0.01386982,-0.01605157,-0.01942399,0.71434808,0.06064684,-0.69289881,0.07694168
1759198521401,0.09682782,-0.00159252,0.11531929,-0.02183090,-0.01365115,-0.04171088,0.71430907,0.06052350,-0.69297594,0.07670601
1759198521435,-0.06653119,0.16469076,-0.13892123,0.01132899,0.00070692,-0.00113610,0.71430642,0.06071836,-0.69296378,0.07668647
1759198521446,0.07190152,0.13846587,0.67348038,0.05495991,-0.01907370,-0.06214384,0.71421880,0.06100964,-0.69306487,0.07635711
1759198521457,-0.09430211,-0.06633815,-0.31012609,-0.02098965,-0.00660859,-0.06353485,0.71423109,0.06089000,-0.69310254,0.07599496
1759198521480,0.02718442,0.00074192,-0.12635001,-0.00605596,-0.01090987,-0.02077602,0.71414299,0.06082218,-0.69322473,0.07576227
1759198521491,0.07546239,0.02972960,0.30697241,0.00591414,-0.01210895,-0.03744736,0.71409573,0.06085589,-0.69329375,0.07554882
1759198521502,0.00847359,-0.00757049,-0.01189155,-0.01509284,-0.02974812,-0.03538762,0.71396449,0.06077288,-0.69345737,0.07535418
1759198521536,-0.05057208,-0.01532302,-0.11608750,-0.00284438,-0.00727530,-0.01055031,0.71386736,0.06072452,-0.69358105,0.07517483
1759198521546,0.21142795,-0.94835476,1.11632268,0.02730006,-0.10790224,-0.10040953,0.71337904,0.06086239,-0.69412595,0.07466776
1759198521569,-0.10786857,0.27599360,-0.37471097,0.00124014,-0.02722466,-0.01965719,0.71309915,0.06087653,-0.69443631,0.07444367
1759198521580,-0.01295980,-0.01262880,0.11737022,-0.00067053,-0.03972562,-0.02071966,0.71289669,0.06087280,-0.69465679,0.07432867
1759198521601,0.00823856,0.06298963,-0.17944535,0.00873511,-0.01251133,0.00277910,0.71275645,0.06096540,-0.69478941,0.07435813
1759198521613,-0.03184896,0.00872191,0.15715716,-0.00932389,-0.02906108,-0.01908067,0.71260444,0.06090992,-0.69496232,0.07424460
1759198521625,0.04447321,-0.02237107,-0.04863898,0.01670653,-0.02336289,-0.00523377,0.71246595,0.06100765,-0.69509900,0.07421399
1759198521658,-0.01041737,0.02170732,-0.06139367,0.00270226,-0.01234382,-0.00293326,0.71227021,0.06105183,-0.69530082,0.07416603
1759198521669,0.09002087,0.10265494,0.99770680,0.02587654,-0.07609362,-0.00337249,0.71183970,0.06119804,-0.69573075,0.07414697
1759198521691,-0.01846654,0.08829133,-0.55802790,-0.00220695,-0.00582078,0.00720717,0.71177031,0.06117354,-0.69579536,0.07422697
1759198521702,0.16133552,0.21406587,-0.10086493,-0.01826200,-0.02044821,0.01017342,0.71166217,0.06107219,-0.69590885,0.07428343
1759198521714,-0.05807202,-0.08880846,-0.05761335,-0.00075492,-0.00167869,0.00781087,0.71164781,0.06106766,-0.69591892,0.07433030
1759198521725,-0.08373614,-0.04432596,-0.13005582,-0.00974845,0.00011212,0.01346370,0.71164537,0.06101599,-0.69591832,0.07440166
1759198521736,-0.09864519,0.00907346,0.01625485,-0.00041206,0.00761901,0.00170921,0.71168738,0.06101362,-0.69587451,0.07441149
1759198521746,-0.02369933,-0.07317118,0.01088433,-0.01914042,0.01139671,0.00781984,0.71174720,0.06091792,-0.69581753,0.07445058
1759198521757,0.09112706,-0.08950200,-0.01054865,-0.02379725,0.01035640,0.00119288,0.71181459,0.06078465,-0.69575953,0.07445726
1759198521768,0.12192241,-0.16357915,-0.04619199,-0.01422095,0.01482390,0.00331961,0.71189750,0.06070786,-0.69567949,0.07447519
1759198521781,0.03475936,-0.06182224,-0.07439943,-0.01573557,0.01126796,-0.00384620,0.71197785,0.06060873,-0.69560850,0.07445096
1759198521791,-0.04154727,-0.14077801,0.05075318,-0.01477657,0.03811026,-0.00330437,0.71216810,0.06053632,-0.69542176,0.07443477
1759198521801,-0.01792995,0.09995213,-0.07078300,-0.01287981,0.01375858,-0.00987609,0.71225290,0.06046613,-0.69534677,0.07438094
1759198521813,0.00248710,0.01541672,0.05174329,-0.02209132,0.01729048,0.00478160,0.71235784,0.06033910,-0.69524735,0.07440844
1759198521824,0.06126947,-0.10805012,-0.06532244,-0.01685740,0.01429465,0.02099697,0.71243232,0.06024386,-0.69516659,0.07452707
1759198521836,-0.02845384,0.00597853,-0.28861748,-0.02711758,0.00886731,-0.00485361,0.71249758,0.06008929,-0.69511604,0.07449940
1759198521857,-0.04733937,0.06195369,0.18629813,-0.00074750,0.00588865,-0.00860781,0.71257001,0.06008121,-0.69505245,0.07440644
1759198521868,0.08695755,-0.08911591,-0.15512974,-0.04721706,-0.00603816,-0.01416469,0.71256767,0.05982860,-0.69508475,0.07433066
1759198521870,4.31019569,-2.01885586,0.83442820,-0.07211488,-0.02595517,0.09471754,0.71253560,0.05974928,-0.69511330,0.07443485
1759198521880,-0.93191862,0.66323714,0.26952137,-0.00068325,0.00416032,0.00521139,0.71255345,0.05974586,-0.69509250,0.07446091
1759198521902,-0.03581622,0.02537248,-0.00177093,-0.00508795,-0.00386068,0.00841057,0.71250746,0.05969040,-0.69513458,0.07455258
1759198521938,-0.00548751,0.02637260,0.02616522,0.00653544,0.00285117,0.00600845,0.71253634,0.05980804,-0.69508326,0.07466073
1759198521948,0.26745342,-0.10212211,0.32458316,0.05482924,-0.04538658,-0.17700177,0.71239015,0.06007122,-0.69530112,0.07381112
1759198521969,-0.13983591,0.02897026,-0.08111077,-0.01963886,-0.00896063,-0.00814659,0.71232484,0.05986599,-0.69539475,0.07372599
1759198521980,-0.00945945,0.10552477,0.01176051,-0.01048561,-0.00708130,0.00770951,0.71228488,0.05980465,-0.69543618,0.07377109
1759198521992,0.00195939,-0.04375971,-0.02525436,-0.01039643,-0.01636326,0.00761489,0.71219189,0.05974383,-0.69553191,0.07381564
1759198522003,-0.10739802,-0.11132186,-0.00004788,-0.00121856,-0.01518093,-0.00657245,0.71211254,0.05973695,-0.69561768,0.07377851
1759198522014,0.04068094,-0.18537467,-0.07097369,0.01176046,-0.01841229,-0.00718987,0.71201228,0.05980163,-0.69571895,0.07373896
1759198522025,-0.27015618,-0.01087151,0.02483472,-0.00794457,-0.01320961,-0.02213468,0.71195705,0.05975754,-0.69579226,0.07361611
1759198522036,-0.07218164,-0.05967405,0.04095650,-0.01017046,-0.00631256,-0.00114298,0.71192976,0.05970414,-0.69582540,0.07361011
1759198522048,-0.04711867,-0.04098546,-0.03447282,-0.01081600,-0.00023416,0.01067301,0.71192726,0.05964087,-0.69582677,0.07367255
1759198522058,0.20324773,0.04051440,-0.03519670,0.01110562,0.00606537,0.02022049,0.71194207,0.05969751,-0.69579584,0.07377568
1759198522069,0.14487691,0.14381645,-0.05065478,0.01905147,0.00205251,0.02239171,0.71193106,0.05980705,-0.69578403,0.07390443
1759198522092,-0.00699623,0.06446910,-0.00399215,0.00790386,0.00323651,0.00653774,0.71195180,0.05989716,-0.69574714,0.07397896
1759198522102,-0.01434887,-0.23030264,-0.05571983,0.06033380,0.00923584,0.02592791,0.71195818,0.06020788,-0.69569957,0.07411249
1759198522104,-2.59301905,-1.53301121,-1.61699300,-0.06864991,-0.00572265,-0.02395011,0.71196089,0.06013923,-0.69570530,0.07408854
1759198522126,0.25392274,0.21914825,0.15460721,-0.00419680,0.00269329,-0.00177390,0.71199513,0.06009390,-0.69567621,0.07406938
1759198522148,0.01718284,0.00983701,0.03896480,-0.01067229,0.00506635,0.00495558,0.71205274,0.05997864,-0.69562149,0.07412290
1759198522158,0.12649228,0.27773043,0.11836563,-0.00808178,0.00504949,-0.01055856,0.71208831,0.05993581,-0.69559473,0.07406694
1759198522169,-0.12734366,-0.00762664,-0.13303713,0.01334837,-0.00126911,-0.01407749,0.71208345,0.06000789,-0.69560158,0.07399092
1759198522181,-0.02650475,-0.02707154,0.01002004,-0.00409538,-0.00416242,-0.00768936,0.71206620,0.05998373,-0.69562614,0.07394555
1759198522192,0.01863870,-0.00622424,-0.01072661,-0.00623106,-0.00578527,-0.00400813,0.71204053,0.05994977,-0.69565767,0.07392371
1759198522202,-0.02971147,0.03688207,0.07499713,-0.01760826,-0.00026504,0.00675322,0.71204334,0.05985468,-0.69565910,0.07396018
1759198522214,0.01986604,-0.01810622,-0.06099509,-0.00798811,-0.00677571,0.01059340,0.71200210,0.05980795,-0.69569874,0.07402215
1759198522225,-0.00166798,-0.07856443,-0.05198180,-0.00164936,-0.00476833,0.01202593,0.71197065,0.05979896,-0.69572473,0.07408769
1759198522248,-0.04311442,-0.04254639,-0.05979278,-0.00413243,-0.00179838,0.00071389,0.71195357,0.05975144,-0.69574541,0.07409590
1759198522258,-0.45027661,-0.21409637,-0.57212006,0.00721266,-0.00704957,0.00199694,0.71191352,0.05978895,-0.69578207,0.07410628
1759198522269,0.48079590,-0.08565037,0.75954504,0.00319680,-0.00047903,-0.00377979,0.71191168,0.05980605,-0.69578463,0.07408606
1759198522280,0.00222271,0.04139832,0.00097721,0.00179935,0.00026375,-0.00780405,0.71191687,0.05981621,-0.69578314,0.07404197
1759198522291,0.05509827,0.05251661,0.02174540,0.00578819,-0.00110466,-0.00240436,0.71190970,0.05984776,-0.69578916,0.07402886
1759198522303,0.03274180,0.06557354,0.00563148,0.01432760,-0.00088601,0.00058331,0.71189765,0.05992871,-0.69579417,0.07403216
1759198522314,-0.01927026,0.02358161,0.05936924,0.00630932,-0.00393384,-0.00023204,0.71187372,0.05996341,-0.69581580,0.07403088
1759198522325,0.06676941,-0.09573451,0.03497326,0.01018636,-0.00701666,-0.00308977,0.71183156,0.06002147,-0.69585580,0.07401327
1759198522337,0.04735842,-0.08023951,0.07806827,0.00679048,-0.01122148,-0.00780744,0.71176663,0.06006256,-0.69592369,0.07396604
1759198522347,0.00727324,-0.03630957,0.17761692,-0.01722200,-0.02140994,-0.02326995,0.71168129,0.05997645,-0.69603074,0.07384969
1759198522360,-0.02603439,0.12278340,-0.10043166,-0.00927062,-0.00882547,-0.01666206,0.71164333,0.05991897,-0.69608545,0.07374638
1759198522370,0.13003426,0.19583971,-0.10792286,0.00038820,-0.02000327,-0.01652271,0.71155388,0.05992091,-0.69618547,0.07366377
1759198522381,-0.03025637,0.08685694,0.00285273,-0.00072025,-0.01731677,-0.01903000,0.71146886,0.05991680,-0.69628418,0.07355530
1759198522392,0.04195632,-0.06122701,-0.01423628,-0.00686064,-0.01469873,-0.01675144,0.71140304,0.05987941,-0.69636428,0.07346400
1759198522403,0.05733402,-0.07654743,-0.02345950,-0.00538679,-0.01184699,-0.01563757,0.71134919,0.05984898,-0.69643122,0.07337565
1759198522415,-0.00175131,0.01929720,-0.02807496,-0.01830106,-0.01582328,-0.01991006,0.71127956,0.05974192,-0.69652379,0.07325918
1759198522425,0.13037541,-0.12348582,0.04964108,-0.00237366,-0.01114916,-0.01263886,0.71123011,0.05972946,-0.69658232,0.07319282
1759198522437,-0.09526796,0.03616238,0.02375529,-0.01900346,-0.00999916,-0.03480338,0.71120330,0.05961924,-0.69664031,0.07299096
1759198522459,-0.04271782,-0.03320712,-0.06776266,-0.00759488,-0.00939768,-0.00766887,0.71111652,0.05953455,-0.69674510,0.07290545
1759198522470,0.52687800,-0.33852739,0.33721695,-0.03739435,-0.02494635,-0.07628778,0.71104283,0.05933075,-0.69688106,0.07248969
1759198522481,-0.28291305,0.17935851,-0.27932249,-0.01619830,-0.02356022,-0.02932467,0.71093966,0.05924166,-0.69701064,0.07232840
1759198522492,-0.00985727,0.02430559,0.03316942,-0.00873057,-0.01832008,-0.01759406,0.71085779,0.05919539,-0.69710773,0.07223515
1759198522502,-0.02677458,0.06370352,-0.03200278,-0.02251812,-0.02185866,-0.02927367,0.71076901,0.05907492,-0.69722468,0.07207854
1759198522514,0.01349371,-0.05759510,-0.06381930,-0.01553774,-0.01673055,-0.01526761,0.71069027,0.05898480,-0.69732171,0.07198999
1759198522525,-0.04738183,-0.11208952,0.07366568,-0.01458023,-0.01032055,-0.02521772,0.71065494,0.05890388,-0.69737899,0.07185003
1759198522538,-0.09007992,-0.03213045,0.06479869,-0.02342027,-0.01159930,-0.02547121,0.71061165,0.05875633,-0.69745207,0.07168956
1759198522559,-0.06354675,0.09893560,-0.04964801,-0.01578600,-0.01137028,-0.01243048,0.71052129,0.05859058,-0.69757146,0.07155904
1759198522570,0.46833831,-0.25894138,0.12417768,-0.02652791,-0.02318871,-0.00622538,0.71040653,0.05843804,-0.69770479,0.07152324
1759198522607,-0.15437903,0.13240415,-0.08200165,-0.00716259,-0.00542338,-0.01037959,0.71033929,0.05830768,-0.69780350,0.07133433
1759198522626,0.31163706,-0.03106649,0.04683782,-0.03142258,-0.02393269,0.00563871,0.71012740,0.05799817,-0.69803923,0.07138988
1759198522637,-0.15508583,0.18496602,0.30205395,-0.03252359,-0.00482519,0.07221705,0.71007821,0.05782742,-0.69806457,0.07176901
1759198522658,-0.11825771,0.05573883,-0.06495350,0.02431171,-0.00539744,0.00112455,0.70999823,0.05808999,-0.69812286,0.07178116
1759198522671,0.07379111,0.00178769,-0.02143912,0.00266122,-0.01076833,-0.02254689,0.70994663,0.05810609,-0.69818801,0.07164475
1759198522692,-0.12073545,-0.07388478,-0.05621046,-0.01151251,-0.00787551,-0.00395658,0.70987745,0.05798176,-0.69827306,0.07160202
1759198522703,0.03361117,0.01358667,0.06353339,-0.02328401,-0.01042283,-0.01490035,0.70983874,0.05785020,-0.69833195,0.07151783
1759198522726,-0.07431168,-0.02921819,-0.05012286,-0.02174975,-0.00542537,-0.01285522,0.70981315,0.05760552,-0.69839299,0.07137321
1759198522737,0.00816622,-0.37199538,0.83051328,-0.03254887,-0.03318351,-0.02310507,0.70966081,0.05742650,-0.69857550,0.07124613
1759198522748,-0.14545924,0.10891082,-0.16385989,0.01042271,-0.02414265,-0.02604015,0.70953870,0.05748434,-0.69870949,0.07110161
1759198522759,-0.02014290,0.00748076,-0.17153076,0.00051108,-0.00893024,-0.00625583,0.70949190,0.05748726,-0.69876039,0.07106595
1759198522771,0.08430236,0.04674058,-0.38016265,-0.00440452,-0.01090059,-0.00709545,0.70943824,0.05746281,-0.69882089,0.07102657
1759198522781,-0.02868270,-0.00948297,-0.04225694,0.00347631,-0.00535861,-0.00054028,0.70940933,0.05748106,-0.69884902,0.07102374
1759198522793,0.01400808,-0.01825032,0.00707869,-0.00866383,-0.00552256,0.01695970,0.70937167,0.05743038,-0.69888133,0.07112295
1759198522804,-0.04223725,0.05108172,0.06352294,-0.00074018,0.00378608,0.00998177,0.70938673,0.05742638,-0.69886088,0.07117685
1759198522815,0.03264776,0.10919775,-0.15805455,0.00633881,-0.00767661,-0.00455175,0.70934253,0.05746315,-0.69890541,0.07115045
1759198522837,-0.00073348,0.00644714,0.00707930,0.00788342,0.00166665,-0.00253399,0.70935611,0.05754829,-0.69888741,0.07112309
1759198522838,-7.36614068,-2.22615990,-16.35779569,0.12294446,0.02559015,-0.05411026,0.70937160,0.05764050,-0.69886822,0.07108250
1759198522859,0.52306154,0.22222508,1.07865381,0.00358917,0.00429504,-0.00300016,0.70941591,0.05767800,-0.69882333,0.07105115
1759198522870,-0.11498299,0.07524372,0.14645068,-0.00179178,0.01637994,0.02171380,0.70949206,0.05766833,-0.69873488,0.07116841
1759198522881,0.05719621,0.10072627,-0.10151131,0.00569817,0.00752469,-0.00567965,0.70953303,0.05769938,-0.69869387,0.07113745
1759198522892,-0.03425271,0.02347261,0.05208701,0.01765327,0.00935893,-0.01312444,0.70958486,0.05780001,-0.69864053,0.07106264
1759198522904,-0.00857269,0.13546203,0.04840209,0.00451649,0.00534430,-0.00457200,0.70961644,0.05782665,-0.69860899,0.07103567
1759198522916,0.09335534,-0.03444011,-0.02464318,0.02230898,0.00132685,0.01122119,0.70960702,0.05795493,-0.69860136,0.07110019
1759198522926,-0.05589810,0.00786766,-0.07686180,0.01975620,-0.00323748,0.00226430,0.70957961,0.05806260,-0.69861901,0.07111253
1759198522928,-19.83461768,1.89514361,-3.78349227,-0.01075701,-0.02833431,0.03348706,0.70955987,0.05805561,-0.69863743,0.07113430
1759198522939,2.22907351,-0.62577299,0.50548376,0.01093131,-0.00071534,0.01319359,0.70954379,0.05811573,-0.69864136,0.07120686
1759198522949,-0.03691992,-0.02931337,-0.08196163,0.00747579,-0.00837984,0.00756990,0.70949519,0.05815348,-0.69868368,0.07124509
1759198522960,0.06299239,0.16836116,0.16730311,0.00495583,0.00151608,0.00753954,0.70949707,0.05818173,-0.69867504,0.07128806
1759198523005,0.04023920,-0.02739954,-0.01861380,0.00066133,-0.00120283,0.00148203,0.70946626,0.05819641,-0.69870174,0.07132097
1759198523039,-0.05436430,-0.04141092,-0.00692260,0.00954642,-0.00849971,0.00570823,0.70929791,0.05836157,-0.69884879,0.07141972
1759198523050,-0.29348447,-0.25289475,0.27801792,0.03451818,-0.01430493,0.02695596,0.70919077,0.05854969,-0.69892675,0.07156663
1759198523116,0.08252763,0.07289452,-0.05477733,0.00460600,-0.00014383,0.00998570,0.70913997,0.05870238,-0.69893151,0.07189765
1759198523166,0.00557018,0.01463690,-0.01863266,-0.00639915,0.00969440,0.00581904,0.70937675,0.05854272,-0.69868964,0.07204284
1759198523204,0.00394505,-0.05226387,-0.01476470,-0.00858855,0.01787179,0.00302313,0.70971235,0.05838254,-0.69835633,0.07209922
1759198523217,0.13553059,-0.06149899,0.03011653,-0.00701743,0.01966956,0.00637841,0.70984152,0.05833553,-0.69822454,0.07214196
1759198523273,-0.05642900,-0.00676474,-0.00212483,-0.00357349,-0.00105776,0.00071931,0.70981860,0.05823565,-0.69825411,0.07216206
1759198523298,0.11401731,-0.00078333,0.05254728,-0.00863311,-0.00308032,0.01597729,0.70976923,0.05812773,-0.69829261,0.07236178
1759198523339,-0.03306484,0.02539689,0.01778608,-0.00608381,0.00005534,-0.01069652,0.70980279,0.05800332,-0.69829148,0.07214303
1759198523376,-0.01290028,0.03321607,0.03876058,-0.00042673,-0.00050022,0.01152708,0.70977287,0.05799549,-0.69830066,0.07235455
1759198523407,0.10619325,0.13821818,0.02105985,0.03403747,0.00554441,0.01730558,0.70978707,0.05853669,-0.69821250,0.07262971
1759198523428,-0.10708767,-0.01527283,0.10013033,-0.01661272,-0.01153116,-0.06110486,0.70974749,0.05836142,-0.69833416,0.07198506
1759198523449,-0.10338781,-0.08779547,-0.14256122,-0.02234600,-0.01028957,0.00091566,0.70965987,0.05812791,-0.69844168,0.07199463
1759198523472,0.00417276,-0.16600333,0.08059311,0.00850504,-0.01482066,-0.00138101,0.70949174,0.05822231,-0.69860619,0.07197930
1759198523505,0.01625817,-0.00182290,-0.05514338,0.01341061,-0.00285033,-0.00291588,0.70943121,0.05844694,-0.69865394,0.07193046
1759198523517,-0.13460104,-0.35644355,0.26719304,0.03803863,-0.01152027,0.01079181,0.70933850,0.05867327,-0.69872248,0.07199467
1759198523540,0.03350373,0.04605558,-0.12238611,-0.00471606,-0.00236846,0.00687837,0.70930839,0.05861951,-0.69874948,0.07207308
1759198523550,-0.26594129,-0.86718484,0.22412392,0.00565858,0.00351645,0.00011347,0.70932331,0.05864780,-0.69873190,0.07207365
1759198523572,0.13541357,0.48505719,-0.14961614,-0.01683153,-0.00263034,-0.00417379,0.70931483,0.05846434,-0.69876057,0.07202815
1759198523583,-0.04493464,0.08330849,0.01236707,-0.01365722,0.00232001,-0.00281041,0.70933534,0.05838854,-0.69874769,0.07201255
1759198523595,0.08085561,0.14503645,-0.03166716,0.00381679,0.00588298,0.01469480,0.70935987,0.05841201,-0.69871151,0.07210293
1759198523606,-0.11172800,0.15984845,0.01182589,0.00637611,0.01352516,-0.02829487,0.70944369,0.05844612,-0.69863916,0.07195155
1759198523617,0.08501005,-0.04807378,-0.05026531,0.00983804,0.00434253,-0.02160601,0.70947536,0.05850122,-0.69861484,0.07183056
1759198523628,-0.02146772,0.06705301,-0.15514660,0.01115793,0.00701903,-0.01275899,0.70951760,0.05856593,-0.69857413,0.07175655
1759198523651,0.01087753,-0.05918038,0.00771790,0.00003347,0.00224117,-0.00275664,0.70954552,0.05856631,-0.69854891,0.07172554
1759198523662,-0.32765738,0.27419543,-0.23235844,-0.01768866,0.00833408,-0.00382770,0.70960281,0.05846548,-0.69850141,0.07170372
1759198523673,0.04425158,-0.32793431,0.48207559,-0.00515820,0.00731468,0.00298965,0.70964052,0.05843892,-0.69846374,0.07171912
1759198523683,0.12003853,-0.06388846,-0.02649046,0.00106750,-0.00629462,0.00941364,0.70960181,0.05844463,-0.69849741,0.07176948
1759198523707,0.07112674,-0.00444533,-0.01029678,0.00409651,-0.00256687,0.00428251,0.70956306,0.05849276,-0.69852758,0.07181980
1759198523717,-0.47483984,0.02711037,0.02043565,0.01727794,-0.01193279,0.02938226,0.70948150,0.05858002,-0.69858784,0.07196818
1759198523729,0.25644594,-0.06155340,-0.01396298,0.00818541,-0.00265338,0.01430524,0.70945211,0.05863077,-0.69860429,0.07205688
1759198523740,0.14030279,-0.21148969,-0.07444892,0.02684937,-0.00259042,0.02074922,0.70941632,0.05877038,-0.69861776,0.07216477
1759198523750,0.01776784,-0.03649640,0.02427101,0.01020811,-0.00292700,0.02413748,0.70938508,0.05882194,-0.69863254,0.07228667
1759198523762,-0.07066544,0.17259151,-0.00942394,0.01416292,0.00399014,0.00781945,0.70939692,0.05890762,-0.69860840,0.07233397
1759198523784,0.04125595,0.02792959,0.00102371,0.00962132,0.00154803,0.00499545,0.70939930,0.05901394,-0.69859129,0.07238917
1759198523786,-7.24169464,3.30300083,-3.11555636,0.05507807,0.03564301,0.02088832,0.70942768,0.05906901,-0.69855565,0.07241006
1759198523807,0.71135537,-0.28114529,0.30277458,0.00463721,0.00373917,0.00066676,0.70946076,0.05911655,-0.69851732,0.07241690
1759198523818,-0.06021710,0.03090779,-0.02289450,-0.00175663,0.00391966,0.00211219,0.70948312,0.05910618,-0.69849420,0.07242936
1759198523852,0.03771474,-0.02315944,0.01428791,-0.00039308,0.00170048,0.00303489,0.70950638,0.05909964,-0.69846588,0.07247989
1759198523863,0.83368778,0.78837515,0.30219166,-0.01595648,0.01199585,0.00390304,0.70957708,0.05901108,-0.69839931,0.07250155
1759198523907,-0.21460400,-0.19386161,-0.08765099,-0.00177238,0.00275390,-0.00376037,0.70964920,0.05897164,-0.69833803,0.07241788
1759198523918,-0.32426388,-0.14100270,-0.38183170,-0.02337714,0.01273384,0.00831534,0.70972412,0.05884307,-0.69826800,0.07246362
1759198523952,0.13372194,0.00867380,0.09456852,0.00050071,0.00228859,0.00400757,0.70975446,0.05885151,-0.69822943,0.07253115
1759198523962,-0.18748844,-0.43391916,-0.41677266,-0.00940914,0.00832114,0.00498796,0.70979674,0.05880446,-0.69818783,0.07255609
1759198523985,-0.05931720,0.10641770,0.20894997,-0.01095834,0.00147029,0.00308951,0.70981986,0.05868008,-0.69817114,0.07259115
1759198523996,-0.09378145,0.08189726,-0.03411300,-0.01822904,0.00252021,-0.00528006,0.70984565,0.05857618,-0.69815677,0.07256105
1759198524032,0.08605505,0.03205015,0.03556972,-0.00193858,0.00065172,-0.00081423,0.70986174,0.05854090,-0.69814491,0.07254624
1759198524063,0.00873482,0.05688948,-0.03837844,-0.00179351,0.00330745,0.01717448,0.70988686,0.05851345,-0.69809431,0.07280901
1759198524073,0.58475401,1.43876734,-0.16834732,0.10223731,0.04562384,0.09520506,0.71002382,0.05903998,-0.69785935,0.07329931
1759198524118,-0.13370258,-0.31690953,0.07022675,0.01256496,0.00016419,-0.01344578,0.71003505,0.05932269,-0.69785565,0.07299678
1759198524130,-0.55404902,0.06169037,0.00292953,-0.07046699,-0.01176551,-0.03140079,0.71002084,0.05891750,-0.69792330,0.07281623
1759198524152,0.29973126,-0.12568806,-0.08515026,-0.01228463,-0.00928202,-0.00151887,0.70993337,0.05878237,-0.69802541,0.07279952
1759198524174,-0.08860571,-0.04097977,0.13581923,0.00243572,-0.01729322,-0.00414328,0.70974622,0.05880953,-0.69821823,0.07275332
1759198524196,0.04190886,-0.04524162,-0.01113174,0.00546470,-0.00507759,0.00388237,0.70968308,0.05886855,-0.69827306,0.07279525
1759198524219,0.00052305,0.02652207,-0.02429964,-0.00048804,-0.00036441,-0.00096102,0.70968057,0.05886296,-0.69827724,0.07278425
1759198524241,-0.04093911,-0.03869842,0.02195146,0.00233565,0.00775396,0.01303558,0.70974885,0.05888912,-0.69819039,0.07293025
1759198524252,0.93758035,-0.09034676,0.01219018,0.04896014,0.01632177,0.00971545,0.70980762,0.05915106,-0.69810307,0.07298222
1759198524297,-0.16962089,0.06775051,-0.01512103,-0.00522787,-0.00083105,-0.00712905,0.70981547,0.05903369,-0.69812173,0.07282218
1759198524308,-0.58572481,0.05839869,0.36080548,-0.00934000,-0.00228740,-0.02411802,0.70982102,0.05898185,-0.69813442,0.07268832
1759198524329,0.35409926,0.09664997,-0.14513881,0.00762049,-0.01118560,-0.02213251,0.70972072,0.05906339,-0.69825411,0.07245150
1759198524352,0.14864224,0.05053756,-0.07840359,-0.00616502,-0.00896683,-0.00366785,0.70963025,0.05899311,-0.69835633,0.07240969
1759198524363,-0.41334785,-0.14045801,0.12750147,-0.00390054,-0.00721546,0.00606624,0.70958809,0.05897088,-0.69839746,0.07244427
1759198524386,-0.03659107,-0.05510461,-0.01218323,-0.00292150,-0.00353868,0.00260094,0.70954917,0.05893845,-0.69843674,0.07247314
1759198524396,-0.07662318,-0.12233998,0.05558562,0.00071904,-0.00335137,0.01446832,0.70952353,0.05894226,-0.69845450,0.07254982
1759198524408,0.03666801,-0.05374559,-0.07243037,-0.00378755,-0.00328614,0.00488192,0.70950387,0.05892048,-0.69847340,0.07257789
1759198524442,0.02846596,0.02216111,-0.00725670,0.00220445,0.00146997,0.00177838,0.70952221,0.05895785,-0.69844848,0.07260803
1759198524453,0.87684124,0.33141468,0.53943935,0.03415878,0.01627396,0.00465041,0.70959333,0.05914914,-0.69835735,0.07263408
1759198524474,-0.42604108,-0.12969808,-0.27167096,0.01785861,0.00739218,0.01219854,0.70964070,0.05933576,-0.69828010,0.07276155
1759198524486,-0.13077571,0.03123955,-0.09075377,0.00696568,0.00432367,-0.00430216,0.70966661,0.05937964,-0.69825286,0.07273445
1759198524542,0.01956219,-0.01370028,0.01254093,-0.00051914,-0.00002356,0.00067000,0.70966527,0.05936519,-0.69825351,0.07275311
1759198524587,0.07765038,0.05432276,-0.06185682,-0.01013573,-0.00231259,0.00597021,0.70961932,0.05913713,-0.69830555,0.07288744
1759198524619,-0.09388458,-0.07316354,-0.02093794,-0.01015880,0.01110041,0.00485878,0.70980184,0.05897256,-0.69812572,0.07296615
1759198524664,0.01076900,-0.04443926,0.03836410,-0.00871485,0.01066806,-0.00419694,0.71006438,0.05877604,-0.69788516,0.07287151
1759198524675,0.56031490,-0.51966335,-0.18831752,-0.02073299,0.01619070,0.00464707,0.71015870,0.05866201,-0.69779611,0.07289707
1759198524742,-0.11286455,0.10302722,0.04863865,-0.00850501,-0.00247780,0.00101725,0.71009785,0.05838049,-0.69787812,0.07293074
1759198524753,0.57250126,1.51452025,-0.40612776,-0.03642224,-0.01705531,0.02155192,0.71000670,0.05817289,-0.69797534,0.07305358
1759198524787,-0.17226661,-0.39477285,0.14288282,0.03920864,0.01051945,0.03171373,0.71007111,0.05883159,-0.69779861,0.07358638
1759198524809,0.01166542,0.04034036,0.00861274,0.05015353,0.01040672,-0.00353853,0.71014235,0.05938829,-0.69768310,0.07354710
1759198524830,0.01333672,-0.05154525,-0.00271680,0.00819173,-0.00246898,-0.02426668,0.71013599,0.05947472,-0.69770914,0.07329108
1759198524842,0.28307498,0.02005458,0.08369054,-0.01764731,0.00072522,0.02270792,0.71013505,0.05936883,-0.69770479,0.07342733
1759198524864,-0.16064930,-0.12397109,-0.01707681,-0.02047965,0.00133291,-0.00073376,0.71016909,0.05914356,-0.69769013,0.07341926
1759198524875,-0.20212677,-0.14857183,0.05230156,-0.05527786,-0.00455344,-0.01496655,0.71017833,0.05883677,-0.69771540,0.07333620
1759198524886,0.12037972,-0.07431241,0.00946620,-0.02015344,-0.01534943,-0.00675622,0.71010648,0.05872290,-0.69780213,0.07329802
1759198524898,-0.13770358,0.14867319,0.01307017,-0.00252267,-0.01210031,-0.02876556,0.71005723,0.05870865,-0.69787049,0.07313550
1759198524909,0.04956447,-0.01256932,-0.02197490,0.00208342,-0.01034230,-0.00343334,0.71000182,0.05872021,-0.69792789,0.07311644
1759198524931,0.04103671,0.00314724,-0.02334734,0.00525458,-0.00216093,0.00759223,0.70996523,0.05877775,-0.69795156,0.07319958
1759198524942,0.19510980,-0.31004269,0.09294652,0.00300234,0.00548972,0.03400604,0.70997456,0.05879486,-0.69792026,0.07339341
1759198524953,0.01248766,0.01136644,-0.09997629,0.00464596,-0.00021289,0.01197162,0.70996430,0.05882088,-0.69792146,0.07346045
1759198524964,-0.17717172,0.09334875,0.09002260,0.01368041,0.00177667,0.00525844,0.70996465,0.05889201,-0.69791222,0.07348780
1759198524975,-0.11658031,0.20409055,-0.05366532,0.00624439,-0.00659411,-0.01731616,0.70993574,0.05892667,-0.69794881,0.07339169
1759198524986,0.00024768,-0.13224092,0.05635333,0.01993395,0.00445753,-0.00994071,0.70995732,0.05904129,-0.69792318,0.07333453
1759198524997,-0.02133153,0.06837446,-0.00889393,-0.00242941,-0.00198315,-0.00803984,0.70995255,0.05902866,-0.69793350,0.07329273
1759198525008,0.01094706,0.12071008,0.02832712,-0.00575894,0.00136232,0.00219842,0.70996146,0.05899641,-0.69792587,0.07330504
1759198525019,0.02274875,0.12624264,-0.00360388,0.00305413,0.00322991,0.01403731,0.70997007,0.05901427,-0.69790697,0.07338716
1759198525031,0.09640226,-0.09747242,-0.01322995,0.00447697,0.00130727,0.01992990,0.70996352,0.05903979,-0.69789952,0.07350076
1759198525042,0.02161165,-0.14456674,0.03576239,0.01446281,0.00412980,-0.01585016,0.70998870,0.05912079,-0.69787639,0.07341200
1759198525053,0.02910572,0.03481767,-0.06432558,0.01343989,-0.01359858,-0.03342140,0.70992634,0.05919672,-0.69795323,0.07322316
1759198525064,-0.06419398,0.06165313,0.10542584,0.00659353,-0.01371444,-0.01719622,0.70986074,0.05923200,-0.69802660,0.07313116
1759198525075,-0.08849163,0.07584204,-0.00730954,-0.00705352,-0.00894084,-0.00844475,0.70981967,0.05919250,-0.69807667,0.07308387
1759198525087,0.00352786,0.03348300,-0.05951479,-0.00809985,-0.00899194,-0.00469234,0.70977509,0.05914552,-0.69812882,0.07305666
1759198525098,-0.06074896,0.04958596,0.07739215,-0.01458453,-0.00449245,0.00610280,0.70975440,0.05906676,-0.69815308,0.07308961
1759198525109,0.01886820,-0.00473519,0.00032657,-0.00235745,-0.00644955,0.00689543,0.70971427,0.05905297,-0.69819081,0.07312995
1759198525131,0.04352774,-0.05493936,-0.04622534,0.00355683,-0.00737670,0.00364970,0.70962784,0.05909174,-0.69827122,0.07316973
1759198525143,-0.27017694,-0.06124390,-0.25717033,0.03186029,-0.01406473,0.00449818,0.70952691,0.05928131,-0.69835490,0.07319650
1759198525153,0.13617919,-0.11954868,-0.07960255,0.01997496,-0.00362344,0.00125220,0.70949981,0.05938218,-0.69837320,0.07320282
1759198525176,0.07631504,0.05109788,0.13646649,0.00460269,-0.00103002,-0.00433501,0.70948895,0.05943465,-0.69838494,0.07315340
1759198525186,-0.01145049,-0.05882037,0.12955106,0.02193159,-0.00625288,0.01366994,0.70944099,0.05954650,-0.69841683,0.07322312
1759198525197,0.07705787,0.15866977,-0.07773421,0.02352941,0.00258296,0.00230485,0.70944276,0.05967356,-0.69840288,0.07323556
1759198525234,-0.00278528,-0.01733465,-0.01657006,0.00578413,-0.00061994,0.00240318,0.70941767,0.05978144,-0.69841444,0.07328038
1759198525254,0.03135010,0.00391152,0.02580562,0.01435418,-0.00569639,0.00078845,0.70935073,0.05992067,-0.69846970,0.07328803
1759198525277,0.00331685,0.00628382,-0.02504307,-0.00236457,-0.00338804,-0.00192480,0.70931724,0.05989372,-0.69850832,0.07326609
1759198525287,0.17187960,0.11966658,-0.09187380,-0.00026990,-0.00583049,-0.01046880,0.70929382,0.05989235,-0.69853777,0.07321322
1759198525309,-0.05369088,-0.04894959,-0.02632521,-0.00914185,0.00065399,-0.00175520,0.70931186,0.05978905,-0.69853038,0.07319339
1759198525321,0.02288298,-0.23487443,-0.03685581,-0.01013073,0.00713222,-0.00162408,0.70935851,0.05973029,-0.69848901,0.07318397
1759198525333,0.03366493,-0.17696236,0.04739668,-0.00520711,0.00869396,-0.01161961,0.70941765,0.05970009,-0.69843859,0.07311657
1759198525355,-0.04343552,0.10048343,0.03432964,-0.00100337,0.00605049,0.00322757,0.70948187,0.05968880,-0.69837052,0.07315289
1759198525365,0.09936899,-0.04974487,-0.19678771,-0.00215325,0.01050465,0.00753413,0.70953107,0.05967793,-0.69831747,0.07319093
1759198525376,-0.17602673,0.18009844,0.07384092,-0.00563215,0.01108745,-0.00156079,0.70959631,0.05964611,-0.69825482,0.07318211
1759198525388,0.06112255,-0.16202914,0.00181496,0.00144259,0.00450118,0.00509720,0.70961824,0.05965447,-0.69822872,0.07321168
1759198525399,-0.09005259,-0.02902157,0.01914249,-0.00616874,0.00433597,-0.00321856,0.70964715,0.05961962,-0.69820422,0.07319349
1759198525409,0.01710338,0.03235878,-0.04600955,-0.00431109,0.00022209,-0.01298912,0.70965694,0.05959763,-0.69820309,0.07312725
1759198525432,-0.00025056,0.05389729,0.05530796,-0.00477106,-0.00070163,-0.00207561,0.70965608,0.05954372,-0.69821102,0.07310379
1759198525443,0.20388103,-0.12966415,0.22597241,-0.02921181,-0.00865654,0.00473171,0.70962100,0.05938744,-0.69825733,0.07312911
1759198525453,-0.04406696,0.26603285,0.00799189,-0.00852667,-0.00533064,0.01796122,0.70958717,0.05934225,-0.69828558,0.07322430
1759198525465,-0.18926622,-0.05953645,-0.18696870,0.00169008,0.00304293,0.00882858,0.70959823,0.05935188,-0.69826824,0.07327463
1759198525487,-0.00893055,0.01385095,-0.02481840,-0.00093169,-0.00002690,-0.00294562,0.70960218,0.05934154,-0.69826853,0.07324193
1759198525498,-0.14254401,-0.03173555,-0.04882345,-0.03089727,0.00081886,0.01727153,0.70961139,0.05916388,-0.69826383,0.07334124
1759198525510,0.13889287,0.06068932,0.01472167,0.00767169,0.01053384,0.02594146,0.70965223,0.05920837,-0.69820273,0.07349170
1759198525522,0.08569843,0.10644214,-0.03918731,0.01772840,0.01105003,0.01811575,0.70969543,0.05931031,-0.69813919,0.07359587
1759198525532,0.12531976,0.16949598,0.01543867,0.04768448,0.02520906,0.02771390,0.70979312,0.05957019,-0.69800180,0.07374691
1759198525543,0.07695445,-0.00596573,-0.03751966,0.05737427,0.01385251,0.02240455,0.70982802,0.05988001,-0.69792700,0.07386789
1759198525555,-0.12991844,0.01068593,-0.00351965,0.04123810,0.00475835,-0.04484731,0.70986225,0.06012126,-0.69789916,0.07360554
1759198525565,-0.15806767,-0.22260508,0.15417950,0.01102673,0.00565075,-0.03312191,0.70990412,0.06017860,-0.69786978,0.07343330
1759198525577,-0.00980474,-0.06157990,0.02957607,-0.00927464,-0.00411057,-0.00044385,0.70988551,0.06012480,-0.69789362,0.07343073
1759198525588,-0.02531018,-0.01816750,0.04938166,-0.00088158,0.00319741,0.00682584,0.70989894,0.06012009,-0.69787651,0.07346725
1759198525599,-0.02669875,0.05246173,-0.05829662,-0.02865633,-0.00811247,-0.00795104,0.70987222,0.05995818,-0.69792235,0.07342232
1759198525610,0.04516370,-0.06054636,0.00235001,-0.02841747,-0.01294578,0.00378721,0.70981110,0.05979620,-0.69799614,0.07344391
1759198525622,-0.03279264,-0.02637171,0.06237482,-0.02181389,-0.01797555,-0.00300212,0.70972256,0.05967186,-0.69809860,0.07342680
1759198525632,0.10827360,-0.09877151,-0.04301535,-0.00093476,-0.02168246,-0.00072776,0.70961033,0.05966691,-0.69821352,0.07342294
1759198525643,0.05857375,0.09265258,-0.18329967,0.00668333,-0.03049790,-0.01918518,0.70945592,0.05970300,-0.69837821,0.07331934
1759198525655,-0.02728898,-0.13513270,0.03156961,-0.00945559,-0.00593936,0.00408460,0.70942472,0.05964910,-0.69841206,0.07334262
1759198525666,-0.07949017,-0.02633335,0.01494578,-0.01551000,-0.00268495,0.00941637,0.70941188,0.05956302,-0.69842696,0.07339488
1759198525688,0.00589430,0.05166302,0.00879440,-0.00294002,0.00074373,0.00686647,0.70941491,0.05952980,-0.69841856,0.07347247
1759198525698,-0.29823312,-0.35635724,-0.21989268,-0.00600573,0.03845088,0.03595387,0.70959148,0.05949917,-0.69822246,0.07365584
1759198525710,0.16595582,0.25812993,0.09408516,0.01058301,0.01764289,-0.00674117,0.70969020,0.05956002,-0.69812101,0.07361708
1759198525722,0.05470058,-0.01022205,-0.00185365,0.01592808,0.01095728,-0.00856914,0.70975217,0.05965559,-0.69805527,0.07356566
1759198525732,0.30281207,0.47494012,0.11388532,-0.00249400,0.01011525,-0.01065626,0.70980904,0.05964299,-0.69800419,0.07351185
1759198525755,-0.04574216,-0.07064493,0.03636216,-0.00687508,0.00566759,-0.00050682,0.70988099,0.05956324,-0.69793844,0.07350597
1759198525777,-0.02301862,0.03494791,-0.00213200,-0.00309623,0.01018997,0.00549144,0.70998729,0.05952934,-0.69782686,0.07356610
1759198525818,-0.02223882,-0.03930033,0.00709867,0.01082252,-0.00194918,-0.00575302,0.70994148,0.05975174,-0.69786692,0.07344788
1759198525857,-0.03732643,0.02396793,0.03127465,-0.01268061,-0.01036997,0.00225746,0.70975793,0.05950320,-0.69807017,0.07349212
1759198525877,-0.01369374,0.05418833,0.02865081,0.01522137,-0.01227676,0.01410987,0.70961642,0.05964857,-0.69818741,0.07362687
1759198525910,0.03144161,-0.06522009,-0.05870069,0.02030128,0.00384920,0.00816935,0.70963680,0.05998557,-0.69812352,0.07376248
1759198525922,-0.32062463,-0.17498383,0.01024767,0.03823808,0.02313235,0.02673289,0.70974221,0.06022647,-0.69797778,0.07393090
1759198525944,0.31774817,0.01120539,0.20342956,0.01981436,0.00213464,0.01586343,0.70972889,0.06043947,-0.69795483,0.07410143
1759198525966,-0.08798072,0.08263944,-0.11075776,0.00165366,0.00034673,-0.00483838,0.70973665,0.06045766,-0.69795102,0.07404821
1759198525999,0.00870797,-0.00136774,-0.05955440,0.00001598,-0.00379958,-0.00078506,0.70967614,0.06045793,-0.69801390,0.07403522
1759198526010,-0.08674056,0.05894409,0.09485481,-0.01159530,-0.00841178,-0.01169010,0.70964398,0.06039647,-0.69805849,0.07397326
1759198526021,0.13162056,0.00692284,-0.01721192,-0.02867235,-0.01330130,-0.01856072,0.70959430,0.06023304,-0.69813430,0.07386746
1759198526043,0.04388573,0.03978646,0.02472292,-0.00281714,-0.00075180,-0.00515009,0.70959469,0.06020177,-0.69814265,0.07381030
1759198526055,0.10344461,0.11707797,0.09385655,-0.01217239,0.00627645,-0.00467380,0.70963970,0.06013056,-0.69810593,0.07378296
1759198526066,-0.01326670,-0.36321286,-0.38785944,0.00120861,-0.00621440,0.00714476,0.70960212,0.06013709,-0.69813949,0.07382154
1759198526076,-0.21762679,0.08127497,0.08699665,0.00107276,0.01596248,-0.01150496,0.70969036,0.06014272,-0.69805569,0.07376114
1759198526088,0.10268420,-0.07715467,-0.06842512,-0.00002832,0.00113299,0.00912662,0.70969138,0.06014255,-0.69804883,0.07381635
1759198526111,-0.04873286,0.03110272,0.04238401,-0.00105040,0.00202611,-0.00039761,0.70971611,0.06013031,-0.69802523,0.07381172
1759198526121,0.07020640,-0.44642152,-0.25122487,-0.01998959,0.01251058,0.00110044,0.70978205,0.06003536,-0.69796580,0.07381695
1759198526133,-0.02732375,0.20659304,0.22384713,-0.01424523,0.00605221,-0.00735920,0.70982838,0.05995202,-0.69793040,0.07377390
1759198526169,-0.00621685,0.03799989,0.01866879,-0.00467840,0.00020520,0.00044501,0.70983845,0.05986641,-0.69792664,0.07378204
1759198526203,0.00187339,-0.05110789,-0.00838073,-0.01318156,0.00149718,-0.00989751,0.70989908,0.05964496,-0.69790149,0.07361576
1759198526236,-0.00942410,0.05823406,-0.00184786,0.00672687,-0.00300496,0.00883351,0.70982454,0.05975797,-0.69795197,0.07376416
1759198526280,0.01506969,0.11071257,-0.00216757,-0.00275967,-0.00004982,-0.00012873,0.70982878,0.05969850,-0.69795305,0.07376139
1759198526324,0.02386891,-0.07056681,-0.01637954,0.02439952,0.01456847,0.02604815,0.71003821,0.06023407,-0.69763327,0.07433315
1759198526368,0.03064526,-0.00015255,0.00432833,0.01214177,0.01026974,-0.02105139,0.71028799,0.06050362,-0.69740528,0.07386581
1759198526390,0.06424999,-0.22271316,0.08895223,-0.09977164,-0.02307929,-0.03538862,0.71017062,0.05939615,-0.69766146,0.07347299
1759198526423,-0.09466242,0.04025797,0.04651843,-0.00367837,-0.02094732,-0.00890773,0.70985409,0.05933601,-0.69800395,0.07332735
1759198526446,-0.05985285,0.08630655,-0.09408099,-0.00140147,-0.00213207,0.01114670,0.70981854,0.05932010,-0.69802815,0.07345387
1759198526467,0.03929153,-0.03449493,0.00781442,0.01006542,0.00871809,0.00683890,0.70989473,0.05942931,-0.69793356,0.07352807
1759198526502,-0.01637247,0.01134892,-0.01353788,0.00446149,0.00508722,-0.00229128,0.70997840,0.05950605,-0.69784606,0.07348866
1759198526522,0.03621070,-0.06456626,0.03774084,-0.00719358,0.00477414,-0.01212762,0.71004618,0.05943160,-0.69779664,0.07336314
1759198526534,-0.07231179,0.27049316,-0.03360195,-0.00910196,0.00578434,0.02185995,0.71007025,0.05937926,-0.69776338,0.07348883
1759198526545,-0.43182938,0.23114066,-0.11825312,0.01315258,0.00141754,-0.01902190,0.71008279,0.05945226,-0.69775552,0.07338326
1759198526567,0.19316121,-0.13994701,0.07973061,0.00088873,-0.00676056,-0.01781336,0.71002789,0.05946226,-0.69783157,0.07318286
1759198526601,0.00576181,-0.00364856,-0.00449189,-0.00331903,-0.00479316,-0.00646058,0.70996459,0.05940650,-0.69791210,0.07307432
1759198526613,0.19267896,0.38917240,0.56421711,-0.00731919,-0.02329105,-0.00492375,0.70983499,0.05936295,-0.69805068,0.07304503
1759198526634,-0.27170714,-0.14544477,-0.25821614,0.01608331,-0.00946781,0.01201652,0.70971126,0.05953021,-0.69814914,0.07317000
1759198526646,-0.10713739,-0.23491713,-0.07401473,0.00482763,-0.00718071,0.01030052,0.70965709,0.05956087,-0.69819474,0.07323541
1759198526667,0.20159894,0.01490018,-0.03661211,0.00345513,-0.00249582,-0.00095532,0.70963022,0.05959594,-0.69822007,0.07322571
1759198526678,0.06548659,-0.06090227,0.08256473,0.00801928,-0.00013124,0.01140147,0.70961943,0.05963964,-0.69822079,0.07328785
1759198526689,0.03396446,0.09200937,-0.01565251,0.01416263,0.00420914,0.01301755,0.70962850,0.05971966,-0.69819701,0.07336140
1759198526700,0.04531185,0.09162824,-0.12398660,0.01895913,-0.00450693,0.00617206,0.70959048,0.05982773,-0.69822270,0.07339658
1759198526712,-0.02705966,-0.06099891,0.13117058,0.01567241,0.00651476,0.01272158,0.70961198,0.05991706,-0.69818556,0.07346909
1759198526735,-0.02441790,0.02124678,-0.05832909,0.00723790,-0.00099340,-0.00315416,0.70959721,0.06000175,-0.69819719,0.07343219
1759198526746,-0.54515776,-0.46919207,-0.10774513,0.00455468,-0.00228219,0.00226353,0.70958216,0.06002566,-0.69820917,0.07344407
1759198526756,0.03464416,0.19771640,-0.00867536,-0.02607914,-0.00530584,-0.00871973,0.70957138,0.05989265,-0.69823623,0.07339960
1759198526767,0.53918343,0.25309268,0.05110913,-0.00681822,-0.00567554,-0.01219850,0.70955020,0.05985413,-0.69826829,0.07333068
1759198526779,0.00085154,-0.06539889,0.02108702,-0.01498413,-0.00558736,-0.00502183,0.70952883,0.05976797,-0.69830042,0.07330180
1759198526790,-0.01453870,0.04018029,0.00641714,-0.01141425,-0.00112031,-0.00841028,0.70953304,0.05970177,-0.69830692,0.07325302
1759198526801,0.08166528,-0.08963886,-0.04082824,-0.00860048,-0.00375270,0.00529126,0.70951405,0.05965533,-0.69832718,0.07328160
1759198526813,-0.04631097,0.06785326,-0.03295356,-0.01285603,-0.00316206,-0.00364840,0.70950429,0.05957948,-0.69834584,0.07326007
1759198526824,-0.01562808,0.02459178,-0.01117845,-0.01004966,0.00559853,-0.00203128,0.70954104,0.05952320,-0.69831449,0.07324870
1759198526834,-0.23836111,-0.15235351,-0.26601344,-0.01099616,0.00559350,0.00476246,0.70957191,0.05946602,-0.69828540,0.07327346
1759198526836,-9.15620213,-9.93956576,-18.44457311,-0.10250354,0.05492222,0.02040860,0.70961427,0.05939427,-0.69824696,0.07328775
1759198526846,1.16957085,1.26212835,2.56291458,-0.00511550,0.01338731,-0.00484070,0.70968477,0.05936869,-0.69818002,0.07326354
1759198526858,0.19731621,0.03207889,0.16002191,-0.01486391,0.00631809,0.00421086,0.70972691,0.05927950,-0.69814211,0.07328881
1759198526868,0.05290133,0.02644686,-0.01695214,-0.01069575,0.01429303,-0.00443843,0.70980318,0.05922656,-0.69807136,0.07326684
1759198526879,-0.05751228,0.02448220,0.00761875,-0.01137586,0.01349947,-0.00698652,0.70988388,0.05916513,-0.69799846,0.07322911
1759198526891,0.00527490,-0.02454690,0.02867271,-0.00091049,0.01063180,-0.00513946,0.70995190,0.05915953,-0.69793308,0.07319750
1759198526901,0.03946291,-0.07131655,-0.03785354,-0.00323989,0.00643004,-0.00355345,0.70998633,0.05914349,-0.69790125,0.07317991
1759198526913,-0.03415246,0.06746153,0.11310804,-0.00967224,0.00481737,0.00046068,0.71001984,0.05908449,-0.69787186,0.07318272
1759198526923,-0.03168249,0.21579238,-0.07898490,-0.00131032,0.00232683,-0.00308025,0.71003395,0.05907768,-0.69785976,0.07316671
1759198526934,0.02316954,0.15390461,0.03079813,-0.00187556,-0.00230928,0.00606036,0.71001875,0.05906727,-0.69787258,0.07320034
1759198526946,-0.05479214,0.02451831,0.03313230,-0.00112007,-0.00210413,-0.00451307,0.71001007,0.05906083,-0.69788468,0.07317439
1759198526958,0.01415430,-0.08433193,-0.01999419,-0.00861656,-0.01280501,-0.00766085,0.70994358,0.05900913,-0.69796151,0.07312843
1759198526969,-0.06501465,-0.15956815,0.14429919,-0.00455055,-0.00382381,0.01180225,0.70991921,0.05898501,-0.69798178,0.07319098
1759198526979,0.06659570,0.06417079,-0.04591410,0.00009258,-0.01181033,0.02252536,0.70984391,0.05898551,-0.69804555,0.07331261
1759198526990,-0.09247913,0.17386525,0.02114508,-0.00085701,-0.00431019,0.00195661,0.70982119,0.05898106,-0.69806796,0.07332279
1759198527001,0.07850654,-0.13281550,-0.04843927,0.00363653,-0.01041493,0.00455388,0.70975840,0.05900178,-0.69812733,0.07334875
1759198527013,0.04395450,-0.05904524,0.00561463,0.00493390,-0.00751941,0.00978043,0.70970681,0.05903065,-0.69817132,0.07340596
1759198527046,0.00926389,0.01944569,-0.01114726,0.00064838,-0.00166466,0.00667934,0.70966713,0.05904144,-0.69819903,0.07351717
1759198527057,0.27448992,0.30839873,-0.96225137,0.03903689,0.03267486,0.07108872,0.70978003,0.05924639,-0.69802749,0.07389039
1759198527068,-0.03031550,-0.24071838,0.81918373,0.01625412,0.01453909,0.01380490,0.70984444,0.05933741,-0.69794607,0.07396770
1759198527080,0.02714766,0.10557769,-0.00863065,0.02604847,0.00723422,0.00761634,0.70986865,0.05948979,-0.69790375,0.07401225
1759198527090,-0.01061185,-0.01137583,0.10277695,0.02981423,0.02115395,-0.03606871,0.70998551,0.05964781,-0.69779164,0.07382109
1759198527101,-0.02058073,-0.14334333,-0.10528662,-0.00301440,-0.00276696,-0.02480024,0.70998610,0.05963138,-0.69780672,0.07368593
1759198527112,-0.05073684,-0.07646821,0.08272065,-0.02523976,0.00073831,-0.03514979,0.71002275,0.05948878,-0.69780255,0.07348733
1759198527124,-0.01313383,-0.15047652,0.06621088,-0.06967229,-0.00528340,-0.02655201,0.71004263,0.05907771,-0.69783372,0.07333067
1759198527135,0.01674220,0.01750439,0.03360565,-0.03784282,-0.00509964,-0.02014459,0.71004377,0.05887336,-0.69786126,0.07322189
1759198527146,-0.03252111,0.01717238,0.05800634,-0.03213795,-0.00753615,-0.00427041,0.71001901,0.05868857,-0.69790459,0.07319734
1759198527157,0.07952288,-0.08701973,0.07365977,-0.01206650,-0.01240210,-0.00624645,0.70996150,0.05862280,-0.69797218,0.07316329
1759198527169,-0.06955350,0.01178421,-0.06746485,-0.00365015,-0.01084606,-0.01743457,0.70990924,0.05860054,-0.69803834,0.07305694
1759198527180,0.09947790,-0.14339897,0.01927118,-0.00450834,-0.01089758,-0.00256096,0.70985582,0.05857664,-0.69809610,0.07304337
1759198527202,-0.08568520,0.11362463,-0.03135744,-0.00671789,-0.00018205,-0.00682543,0.70986745,0.05850409,-0.69809806,0.07296966
1759198527213,0.24500898,-0.42207229,0.12581742,-0.00737674,-0.00077748,0.01049322,0.70986034,0.05846167,-0.69810253,0.07302999
1759198527225,-0.16360292,0.19537704,-0.02163344,-0.00448135,0.00742209,0.00216894,0.70990315,0.05843591,-0.69805986,0.07304246
1759198527246,-0.03315267,0.18687015,-0.05534198,-0.00387401,-0.00387717,-0.00427686,0.70987047,0.05839445,-0.69810134,0.07299670
1759198527257,0.26182630,0.07466348,0.26255600,0.01671114,0.00490951,-0.02134574,0.70990152,0.05848636,-0.69807434,0.07287930
1759198527268,-0.10989154,-0.13623033,-0.12836476,-0.01505287,-0.00476839,-0.01633473,0.70989167,0.05840282,-0.69810081,0.07278864
1759198527280,0.02987107,0.07768606,-0.00592323,-0.01946819,-0.00499497,-0.00347279,0.70987379,0.05828504,-0.69813102,0.07276763
1759198527292,0.07270372,0.08399535,0.07031242,0.00292120,0.00536948,0.01921686,0.70989144,0.05830184,-0.69810015,0.07287813
1759198527302,0.02145467,0.10861444,-0.00170536,0.01435149,0.00423315,-0.00992753,0.70991105,0.05837216,-0.69807941,0.07282948
1759198527313,-0.04258872,-0.16160564,-0.04163648,0.01652948,-0.00572824,-0.02614176,0.70988560,0.05846968,-0.69811320,0.07267525
1759198527324,-0.04307748,-0.04688888,0.11020055,0.00679977,-0.00068259,-0.02838108,0.70989479,0.05850708,-0.69811696,0.07251915
1759198527335,-0.08802467,-0.12086805,0.05236755,0.00217404,-0.00529081,-0.02477716,0.70987980,0.05851849,-0.69814474,0.07238907
1759198527390,-0.03506396,0.02446096,-0.05543706,-0.00130511,-0.00059062,-0.00563012,0.70988257,0.05848241,-0.69816107,0.07223340
1759198527421,0.13037319,-0.12155782,0.17937906,-0.01882046,-0.02523852,-0.03157726,0.70957831,0.05819728,-0.69854343,0.07175500
1759198527451,-0.06391458,0.08118405,-0.10871765,0.01114890,-0.01254227,-0.00477818,0.70938208,0.05836841,-0.69873595,0.07168166
1759198527484,-0.02209409,0.02332405,-0.04757157,-0.00332880,-0.00095508,-0.00430719,0.70937829,0.05831399,-0.69875157,0.07161123
1759198527514,0.01809234,0.00782927,-0.04375542,0.00396474,0.00275495,-0.00975185,0.70942868,0.05837326,-0.69871038,0.07146544
1759198527589,-0.01839349,0.02239037,-0.00692243,0.00112108,0.00058727,0.00206841,0.70943905,0.05841513,-0.69868845,0.07154270
1759198527620,-0.00198674,-0.06534794,-0.10318091,-0.02537800,0.01168922,0.00371326,0.70964985,0.05801035,-0.69850200,0.07160193
1759198527668,-0.02868140,-0.01364154,0.02552693,0.00334200,0.00581592,0.00622755,0.70976315,0.05808889,-0.69836533,0.07174827
1759198527680,-0.33308680,-0.25841045,-0.45828282,-0.01871873,0.01673656,0.02510527,0.70986052,0.05797096,-0.69825989,0.07190644
1759198527715,0.08013906,0.15202345,0.17045643,-0.00553114,0.00344649,-0.00279290,0.70993248,0.05787444,-0.69819975,0.07185770
1759198527747,0.05374381,0.08109899,0.03387203,0.01391051,0.00192427,0.02539687,0.70990297,0.05809979,-0.69816858,0.07226913
1759198527792,-0.00928391,-0.05027345,0.01609077,-0.00547148,0.00025238,0.00065676,0.70991693,0.05797833,-0.69816297,0.07228371
1759198527803,-0.04110831,0.11079476,-0.60958461,0.04729556,0.03796026,0.09796889,0.71005169,0.05825028,-0.69794470,0.07284703
1759198527837,0.04163085,0.00671761,0.18626745,0.02253257,0.00359024,0.00576599,0.71007020,0.05863558,-0.69788331,0.07294563
1759198527848,-0.24560540,1.26974128,-0.63154870,0.03329087,0.00349829,-0.05210111,0.71010245,0.05881369,-0.69786459,0.07266689
1759198527870,0.06768524,-0.64770862,0.32989939,-0.02396493,-0.00581288,-0.00934220,0.71007217,0.05855247,-0.69792795,0.07256506
1759198527882,0.02363186,-0.16993293,0.04489390,-0.03325856,-0.00790136,-0.00559559,0.71004521,0.05835126,-0.69797576,0.07253120
1759198527904,0.02745663,-0.01535930,0.02688032,-0.00978071,-0.00595490,0.00330830,0.70998647,0.05824465,-0.69804066,0.07256727
1759198527916,0.00223859,0.05949072,0.02252263,-0.00150688,-0.01467267,-0.00718487,0.70990505,0.05823561,-0.69812870,0.07252416
1759198527949,0.00253826,-0.00681431,-0.00975622,0.00138965,-0.00376050,-0.00119129,0.70984415,0.05825854,-0.69819075,0.07250450
1759198527959,-0.27456704,-0.81588741,0.37876225,0.02545138,0.00735305,0.02593356,0.70985672,0.05838707,-0.69815362,0.07263546
1759198527970,0.42434314,0.41281217,-0.29922666,0.02052631,0.01869025,0.02001326,0.70993871,0.05850201,-0.69804895,0.07274754
1759198527993,-0.05532273,0.11087010,-0.01483391,0.00609971,0.00388099,-0.00169847,0.70997829,0.05857125,-0.69800490,0.07272826
1759198528015,-0.00790537,-0.01019458,0.01835873,0.00983241,0.00244269,-0.00414277,0.71000084,0.05868137,-0.69797754,0.07268186
1759198528026,0.13000531,-0.22800871,0.32824594,-0.02114741,-0.00792044,-0.02439853,0.70998241,0.05857140,-0.69801873,0.07255499
1759198528038,0.00188534,0.62115743,0.31715907,-0.00074328,-0.00781062,-0.00108583,0.70993549,0.05856676,-0.69806755,0.07254820
1759198528049,0.08025445,0.02654131,-0.02819645,0.00633978,-0.01073965,0.00880372,0.70986957,0.05860163,-0.69812661,0.07259662
1759198528070,-0.07601777,-0.17207662,-0.29798465,0.01096026,-0.01001475,-0.01773081,0.70977699,0.05871506,-0.69823027,0.07241311
1759198528108,-0.01613372,-0.01566926,-0.01615366,0.00338619,-0.00755620,-0.01121916,0.70965180,0.05877957,-0.69837421,0.07219938
1759198528143,0.03589713,0.02508561,0.07740600,-0.00589310,-0.01163804,-0.00780429,0.70947170,0.05867526,-0.69858021,0.07206125
1759198528184,-0.07424246,-0.02889386,-0.03885546,0.01205461,-0.00859845,0.00047570,0.70927947,0.05891877,-0.69875389,0.07207086
1759198528204,0.10591209,-0.03669354,-0.00577059,0.02128231,0.00026628,0.01536204,0.70924783,0.05913797,-0.69875115,0.07222909
1759198528226,-0.02196331,0.00829711,-0.04328681,0.01397908,0.00555586,0.00958091,0.70928463,0.05929244,-0.69868976,0.07233496
1759198528247,-0.02940530,0.13334342,0.02293792,0.00360235,-0.00464851,-0.00587343,0.70923988,0.05933009,-0.69873834,0.07227358
1759198528269,0.07834760,-0.04256637,-0.06837979,0.00188741,0.00092886,0.00252472,0.70924543,0.05935104,-0.69872803,0.07230160
1759198528283,0.00919003,0.00782632,-0.05510319,0.00375354,-0.00063213,0.00167042,0.70923812,0.05937581,-0.69873220,0.07231263
1759198528304,-0.04548107,-0.04307272,0.01598727,-0.00575621,-0.00239524,-0.00031537,0.70921809,0.05931336,-0.69875819,0.07230921
1759198528315,0.14404955,-0.03637694,-0.03227856,-0.00526243,-0.00241780,-0.00492678,0.70921046,0.05928547,-0.69877100,0.07228309
1759198528327,-0.13479344,-0.08515272,-0.00171333,-0.01158122,-0.00500484,-0.00099089,0.70918806,0.05921829,-0.69880003,0.07227735
1759198528338,-0.25189454,-0.11081678,0.03947208,-0.00843957,-0.00029534,-0.01130943,0.70919690,0.05917061,-0.69880170,0.07221345
1759198528348,-0.11355897,-0.11076252,-0.07254512,-0.01771602,0.00186200,-0.01414381,0.70922184,0.05907760,-0.69879192,0.07213919
1759198528360,0.15234440,-0.04566047,-0.01013141,-0.01070593,0.00111706,-0.00218528,0.70923413,0.05901818,-0.69878572,0.07212707
1759198528371,0.23846717,0.10530709,-0.02128330,-0.01054521,0.00718389,-0.00524519,0.70928251,0.05895808,-0.69874477,0.07209717
1759198528394,-0.02180409,0.06715455,0.01440708,-0.00218609,0.00059071,-0.00255049,0.70929407,0.05893337,-0.69873810,0.07206835
1759198528405,0.19815177,-0.31806072,-0.24146137,-0.01105999,0.00423744,-0.00371381,0.70932416,0.05887254,-0.69871479,0.07204792
1759198528415,-0.21307150,0.22722736,0.20639822,-0.01163265,0.00715257,-0.01307132,0.70937411,0.05881031,-0.69867653,0.07197799
1759198528427,-0.00852942,-0.01929321,-0.01487848,-0.00762683,-0.00289956,-0.00546050,0.70936426,0.05876531,-0.69869363,0.07194577
1759198528438,-0.15870499,0.10852654,0.04966915,-0.00544907,0.00161477,-0.00863882,0.70938030,0.05873534,-0.69868475,0.07189826
1759198528448,-0.05610965,0.07959929,0.00623139,-0.00621958,-0.00113222,-0.00580009,0.70938024,0.05870424,-0.69869041,0.07186926
1759198528459,0.15814935,-0.02261036,-0.05344714,-0.00241003,-0.00714190,0.00146848,0.70934183,0.05869099,-0.69872969,0.07187734
1759198528471,0.02999642,0.02983937,-0.00734508,0.00856178,-0.00191140,-0.00260690,0.70932833,0.05874065,-0.69874078,0.07186222
1759198528482,-0.00429327,-0.01028516,0.07129116,-0.00494523,0.00075847,0.00040470,0.70933447,0.05871345,-0.69873661,0.07186444
1759198528493,0.01426865,0.03861652,-0.04154605,-0.00396696,-0.00662390,0.00575974,0.70929548,0.05869064,-0.69877470,0.07189756
1759198528516,0.00378964,-0.00325181,0.03740626,-0.00116638,-0.00099693,0.00848246,0.70927575,0.05867746,-0.69878596,0.07199341
1759198528528,0.05193111,-0.02725829,-0.23512478,-0.01213688,-0.00563720,0.00703653,0.70924468,0.05860585,-0.69881922,0.07203493
1759198528538,-0.49085940,-0.10316150,0.11394590,-0.00948305,-0.00042907,0.00500618,0.70924394,0.05855843,-0.69882137,0.07205996
1759198528549,0.05733579,0.06401900,0.02447365,-0.01192092,0.00675521,0.00931779,0.70928108,0.05849227,-0.69878388,0.07211167
1759198528560,0.22895801,-0.00014820,-0.01309863,0.01052222,0.00993075,0.01703712,0.70932238,0.05855278,-0.69872677,0.07220964
1759198528571,0.22010670,-0.01673770,0.04609026,0.01046872,0.01551884,0.02882189,0.70938554,0.05861035,-0.69864142,0.07236816
1759198528606,-0.03050217,0.03018035,0.02813948,0.01220583,0.00556427,0.00822350,0.70944833,0.05882151,-0.69854516,0.07251042
1759198528627,0.18869087,0.04214688,-0.07405918,0.03793671,0.01604419,-0.03433083,0.70961536,0.05921416,-0.69837910,0.07215510
1759198528648,-0.11953263,-0.03188903,0.17739444,-0.02794573,-0.00263878,-0.03045923,0.70964636,0.05890676,-0.69840813,0.07182005
1759198528650,22.01596468,30.18523173,52.84549729,-0.62595724,-0.06483078,-0.05240026,0.70964199,0.05849988,-0.69845027,0.07178599
1759198528671,-1.33143142,-1.90628727,-3.30129458,-0.02158003,-0.01805017,-0.00000426,0.70947246,0.05827114,-0.69864160,0.07178594
1759198528693,-0.06190191,0.01193976,0.00917223,-0.00347238,-0.01384031,-0.01280337,0.70934109,0.05823329,-0.69879246,0.07164638
1759198528705,0.05268453,-0.11322949,-0.05322460,-0.00226260,-0.01284911,-0.01803839,0.70927611,0.05821948,-0.69887084,0.07153635
1759198528726,-0.03681369,0.01079503,-0.00002908,-0.01363943,-0.00113608,0.00194802,0.70927400,0.05807422,-0.69888294,0.07155710
1759198528738,-0.09929947,-0.11051775,-0.12827065,-0.01638692,0.00581894,0.00600661,0.70931216,0.05797754,-0.69884861,0.07159254
1759198528748,-0.10645767,0.20913323,-0.04052062,-0.01288595,0.01049494,0.00831804,0.70936598,0.05791182,-0.69879508,0.07163496
1759198528760,0.12006140,0.02319978,-0.02790018,0.01688954,0.00678899,0.00142981,0.70939644,0.05801147,-0.69875503,0.07164339
1759198528772,0.05080521,-0.03958107,0.17166562,0.00279141,0.01081107,-0.00298171,0.70945862,0.05802766,-0.69869232,0.07162610
1759198528782,-0.00288181,-0.01310616,-0.04890351,0.02000083,0.01383059,-0.01315787,0.70952716,0.05813067,-0.69862109,0.07155834
1759198528817,-0.01471730,0.02033686,0.01710835,-0.00343266,0.00032385,-0.00182808,0.70954073,0.05807128,-0.69861549,0.07152671
1759198528851,0.01518952,0.01479983,0.01080518,-0.01137156,0.00313449,0.00852616,0.70959436,0.05787796,-0.69856221,0.07167166
1759198528872,-0.05136322,0.24822716,0.21319725,0.01230511,-0.01010262,-0.03330684,0.70951195,0.05801148,-0.69867182,0.07131028
1759198528907,0.00887086,-0.11250134,-0.13198884,-0.00732250,-0.00177947,0.00440055,0.70948440,0.05788516,-0.69870251,0.07138619
1759198528929,-0.01153348,0.05714217,0.01774896,0.01086624,-0.00117582,0.02651978,0.70943272,0.05800415,-0.69871539,0.07167658
1759198528951,-0.10439295,-0.06213866,-0.09469932,0.01810019,0.00136635,0.00558774,0.70942504,0.05820234,-0.69870043,0.07173776
1759198528984,0.02611452,-0.03323187,0.02811210,0.00630198,0.00368987,0.00175446,0.70947442,0.05830822,-0.69863844,0.07176724
1759198529019,0.04312773,0.00680235,0.01490813,0.01243800,0.00372525,0.00795425,0.70950678,0.05852713,-0.69857287,0.07190723
1759198529050,0.01956667,0.01595539,0.00500699,0.00503370,-0.00294564,0.01000551,0.70943964,0.05860515,-0.69861853,0.07206232
1759198529087,-0.03524620,0.01145753,0.04454600,-0.00469304,0.00171569,0.00539899,0.70946730,0.05852020,-0.69858748,0.07216004
1759198529119,0.05983956,-0.00662512,-0.11648473,-0.00576335,0.00572932,-0.00019305,0.70956700,0.05842655,-0.69849438,0.07215690
1759198529163,-0.01123058,-0.02977864,-0.01922183,-0.01009297,0.00655114,-0.00022656,0.70972760,0.05820451,-0.69835025,0.07215192
1759198529184,0.11509410,-0.07625759,-0.05322636,-0.00433579,0.00985156,0.00298501,0.70983089,0.05815855,-0.69824582,0.07218356
1759198529206,-0.03031948,0.00583904,0.17136308,-0.01255437,0.00215900,-0.00735615,0.70987319,0.05802233,-0.69822240,0.07210375
1759198529252,-0.04219817,0.01415885,0.00581362,-0.00635307,-0.00400386,-0.00488350,0.70980593,0.05787621,-0.69831449,0.07199142
1759198529273,-0.07871253,0.06421766,0.03979663,0.00406535,-0.01007865,-0.01886923,0.70971880,0.05791869,-0.69841981,0.07179424
1759198529306,0.07308202,-0.01175471,0.00300457,-0.00538180,-0.00438184,0.00023158,0.70965450,0.05782989,-0.69849211,0.07179806
1759198529318,0.32578382,-0.00096812,0.16899687,-0.00376868,-0.01698475,-0.00798484,0.70955697,0.05780634,-0.69859827,0.07174816
1759198529339,-0.20849565,0.02385354,-0.11351215,0.01610651,-0.00230366,0.01777347,0.70950127,0.05797304,-0.69862211,0.07193211
1759198529361,-0.00383201,-0.02067740,-0.00714811,0.00700587,0.00252315,0.01474767,0.70950589,0.05805116,-0.69859398,0.07209655
1759198529373,0.37334443,0.17381000,0.25266376,0.03404849,0.01550744,0.00762818,0.70957376,0.05824864,-0.69850403,0.07214079
1759198529385,-0.12132939,-0.05357549,-0.14281965,0.02667322,0.00317588,-0.02620694,0.70959569,0.05841134,-0.69848466,0.07198093
1759198529407,-0.10544217,-0.05853207,-0.03052129,0.01120707,0.00071835,-0.04724020,0.70964560,0.05853406,-0.69847679,0.07146365
1759198529417,0.16594884,-0.00811394,0.22645046,-0.01738906,-0.01421313,-0.04007907,0.70960126,0.05844364,-0.69855070,0.07125524
1759198529429,-0.17261267,-0.20516144,0.00866262,-0.04456452,-0.01305991,0.00106122,0.70954917,0.05819408,-0.69862384,0.07126118
1759198529450,-0.06479486,-0.00211578,-0.08004461,-0.01665715,-0.00728812,-0.01521705,0.70950396,0.05801835,-0.69870073,0.07110064
1759198529452,-1.28595544,-13.65772463,15.53097762,-0.18787635,-0.20086732,-0.05414116,0.70930914,0.05781168,-0.69892168,0.07104109
1759198529473,0.17799325,1.54405144,-1.60354582,0.00716278,-0.01701137,-0.00663180,0.70913310,0.05788725,-0.69910115,0.07097112
1759198529511,-0.01562554,-0.00490552,-0.03005990,0.00446483,-0.00765269,-0.00240448,0.70898775,0.05797186,-0.69924617,0.07092556
1759198529539,-0.04641177,-0.07216685,0.05075820,-0.01526352,-0.00494758,0.00415186,0.70892983,0.05775359,-0.69931692,0.07098493
1759198529551,-1.63871341,0.20741143,-1.26698393,0.05962374,0.04582696,0.03539259,0.70913759,0.05809046,-0.69905800,0.07118490
1759198529574,0.75562606,-0.03214352,0.54606006,0.02156670,0.01068166,-0.00004602,0.70923705,0.05833524,-0.69893676,0.07118437
1759198529606,0.03658315,0.01272584,-0.00906367,-0.00779640,0.00177544,-0.00104338,0.70927809,0.05820699,-0.69890755,0.07116721
1759198529608,-15.68022385,13.45035736,8.46201390,0.11840757,0.05282336,0.21253765,0.70929487,0.05830172,-0.69886530,0.07133724
1759198529629,1.16667299,-0.91446328,-0.67967650,0.02400041,-0.00466146,-0.00787081,0.70923361,0.05855612,-0.69891471,0.07125381
1759198529651,0.02114702,-0.01976589,-0.02476327,0.00184918,-0.00755536,-0.00577805,0.70915570,0.05857665,-0.69899857,0.07118967
1759198529662,-0.11332187,0.05127905,0.02902588,-0.01148653,-0.01062124,0.00478560,0.70910019,0.05851290,-0.69905752,0.07121623
1759198529673,0.02606568,-0.00174475,0.11962306,-0.01215494,-0.00901319,0.00566030,0.70905497,0.05844787,-0.69910574,0.07124652
1759198529685,-0.01124521,-0.02243470,0.06059170,-0.00944530,0.00226908,0.01342740,0.70906446,0.05839403,-0.69909281,0.07132305
1759198529706,0.09076859,-0.06376791,-0.05379595,0.00270555,-0.00581214,0.00721989,0.70899198,0.05842339,-0.69915587,0.07140139
1759198529718,-0.13531788,0.09887661,0.07079005,0.00368986,-0.00644729,0.00294592,0.70895022,0.05844553,-0.69919455,0.07141906
1759198529740,0.05014732,-0.08309523,-0.05876627,0.00663654,-0.00115359,0.00607545,0.70892529,0.05851753,-0.69920707,0.07148498
1759198529751,-0.46157280,-0.18884434,-0.47375943,0.01029192,-0.00025768,0.01038862,0.70891335,0.05857465,-0.69920850,0.07154264
1759198529774,0.23434673,0.04616865,0.21043863,0.00009372,0.00611146,0.00251931,0.70897936,0.05857573,-0.69913852,0.07157148
1759198529796,0.10104804,-0.01124384,-0.00734539,0.00098589,0.00450703,0.00293511,0.70902389,0.05858652,-0.69908917,0.07160362
1759198529807,0.39168858,0.33298405,-0.09208646,0.03410499,0.01420925,0.02459413,0.70907261,0.05877751,-0.69900960,0.07174135
1759198529819,-0.08557820,0.06723262,-0.05824462,0.01575049,0.00652664,0.00939197,0.70909767,0.05887201,-0.69897044,0.07179770
1759198529840,-0.17078380,-0.15635473,0.18286620,-0.00943708,-0.00046983,-0.01004359,0.70911156,0.05877387,-0.69897532,0.07169325
1759198529851,0.00999797,-0.06678451,0.12317934,-0.03001821,0.00387704,-0.03018211,0.70916160,0.05861327,-0.69895458,0.07153178
1759198529873,-0.02234630,0.03066823,-0.09174268,-0.01260520,0.00063788,-0.01006033,0.70919219,0.05846957,-0.69894731,0.07141709
1759198529884,0.34840380,0.16871523,-0.29178886,-0.01467969,0.00143496,-0.00818076,0.70921081,0.05839030,-0.69893956,0.07137291
1759198529895,-0.11763708,-0.00369989,0.08317210,-0.00209987,0.00351061,0.01211819,0.70922396,0.05837886,-0.69892043,0.07143896
1759198529906,-0.07034878,-0.09744657,0.00395215,-0.00454349,-0.00252770,0.00387725,0.70921041,0.05835432,-0.69893408,0.07145989
1759198529919,-0.05249083,-0.11887405,0.05701393,-0.00838698,-0.00143593,-0.00406510,0.70920833,0.05829897,-0.69894356,0.07143306
1759198529930,-0.08645085,-0.17506696,-0.14956890,-0.02457994,-0.00682945,-0.01850127,0.70919308,0.05816746,-0.69898009,0.07133408
1759198529940,-0.03968444,-0.26651353,0.05524292,-0.02077814,0.00597245,-0.00781170,0.70923495,0.05806357,-0.69895023,0.07129502
1759198529952,0.07686615,0.12383461,-0.08535385,-0.00956839,-0.00834473,-0.00906283,0.70919413,0.05800377,-0.69900239,0.07123838
1759198529963,0.10052504,-0.00695322,0.12497368,-0.02391630,0.00260418,-0.00993248,0.70922255,0.05788060,-0.69898897,0.07118723
1759198529974,0.14877063,0.06968340,-0.05171872,-0.01365303,-0.00948400,-0.00803998,0.70918059,0.05780346,-0.69904256,0.07114180
1759198529984,0.03869682,-0.05906863,0.04768680,-0.02479714,0.00156313,-0.01769935,0.70920886,0.05767204,-0.69903427,0.07104800
1759198529986,15.67971476,-9.10192638,-6.23363508,-0.09354589,0.01761693,-0.12349276,0.70924245,0.05758785,-0.69901842,0.07093685
1759198529997,-2.56844137,1.66963671,0.97399637,-0.03304301,-0.00679385,-0.00804605,0.70922591,0.05741768,-0.69905341,0.07089542
1759198530007,0.07163345,-0.05225028,0.05730676,-0.02251893,0.00646957,-0.00493801,0.70927066,0.05730170,-0.69902009,0.07086998
1759198530019,-0.12912375,0.02222854,0.00977914,-0.02767514,0.00593012,-0.01347643,0.70932626,0.05713842,-0.69898510,0.07079047
1759198530066,-0.09837102,0.05484332,0.03257348,-0.00675790,0.00226702,-0.00385237,0.70940024,0.05698028,-0.69893205,0.07070033
1759198530099,0.06280668,-0.01821206,-0.09459756,-0.01764714,0.01734250,-0.02025122,0.70974268,0.05668558,-0.69864243,0.07036213
1759198530120,-0.16637141,0.32132518,0.14808734,0.02967466,0.01870837,0.01439193,0.70989532,0.05699568,-0.69844693,0.07051253
1759198530141,-0.07099603,-0.13876582,0.11829982,0.03083098,-0.00138974,0.04253119,0.70980999,0.05732094,-0.69846159,0.07096123
1759198530152,-0.22220845,0.08797131,0.42092513,0.04825839,0.01147521,0.05743931,0.70981935,0.05759843,-0.69839561,0.07129151
1759198530187,0.03316892,0.04983047,-0.13101525,-0.00813656,0.00523061,-0.02783647,0.70996669,0.05745889,-0.69830591,0.07081411
1759198530220,0.13706584,-0.21781034,-0.04221473,0.05134490,-0.00408721,0.00383968,0.70982538,0.05830351,-0.69837314,0.07087728
1759198530259,-0.10572686,0.06515568,0.05614825,-0.03373709,-0.02059013,-0.00817491,0.70949728,0.05764058,-0.69877774,0.07071664
1759198530303,0.03234921,-0.05150126,-0.01457025,-0.01794736,-0.01925297,-0.00917275,0.70912780,0.05724125,-0.69920611,0.07051254
1759198530334,0.08413049,-0.14100841,-0.13609709,-0.03729741,0.01445220,0.00280941,0.70938899,0.05666687,-0.69898355,0.07055581
1759198530376,-0.01502649,0.01642332,-0.01026485,-0.00442584,0.01651700,-0.01518555,0.70977145,0.05657348,-0.69863504,0.07023539
1759198530387,0.53501812,-0.33172360,-0.23816429,-0.06346015,0.04782855,-0.01480645,0.71005803,0.05623397,-0.69837916,0.07015618
1759198530420,-0.11729725,0.31301961,0.16947061,0.00409983,0.00018332,-0.00540924,0.71006436,0.05630059,-0.69837618,0.07006828
1759198530442,-0.18198022,0.17950497,0.08030794,-0.00357555,-0.01640435,-0.00736041,0.70989340,0.05626019,-0.69856155,0.06998511
1759198530464,0.05925314,-0.11707158,-0.03241651,-0.01367253,-0.01122293,-0.00399122,0.70978717,0.05610843,-0.69868612,0.06994080
1759198530476,0.11292078,-0.01686239,0.12450757,-0.00449543,-0.01956682,0.00745484,0.70967324,0.05608235,-0.69879961,0.06998404
1759198530509,-0.02742399,-0.05087082,-0.06338760,0.00700609,-0.00380225,0.00157172,0.70960042,0.05619690,-0.69886178,0.07000974
1759198530520,0.04175688,0.39509593,0.07814797,0.06684709,-0.01222172,0.02318338,0.70949142,0.05656790,-0.69892961,0.07013841
1759198530531,-0.27777476,-0.22732971,0.16880621,0.06880183,0.01658380,0.05395672,0.70952242,0.05695663,-0.69883591,0.07044326
1759198530552,0.05762359,-0.08280176,-0.12369441,0.01141300,0.00313069,0.01508042,0.70952956,0.05707875,-0.69880241,0.07060462
1759198530564,0.19198294,-0.01731928,-0.07725539,0.02563077,0.00657834,0.02275020,0.70954137,0.05721972,-0.69876623,0.07072975
1759198530575,-0.00366196,-0.08505776,0.00336231,0.01460737,0.00735431,-0.00215464,0.70957841,0.05730591,-0.69872284,0.07071704
1759198530586,-0.00048327,-0.02247800,-0.03299566,0.00621146,-0.00346056,0.00248128,0.70955701,0.05733789,-0.69874066,0.07072982
1759198530608,0.00113832,-0.01246096,0.00911578,0.00308374,-0.00079284,0.00067504,0.70954472,0.05737243,-0.69874954,0.07073738
1759198530609,16.98313556,-6.32803380,0.70034198,-0.12764631,-0.08445625,-0.02628677,0.70949906,0.05728946,-0.69880444,0.07072029
1759198530630,-1.06332378,0.40424176,-0.05673514,-0.01242474,-0.00633513,-0.00271052,0.70944690,0.05715900,-0.69887096,0.07069183
1759198530664,-0.01434872,-0.00056717,0.00891271,-0.00748960,-0.00170400,-0.00037112,0.70942923,0.05703168,-0.69889993,0.07068552
1759198530676,0.18115137,-0.52076150,-0.17479646,-0.07471929,-0.01746401,-0.06289027,0.70939939,0.05658336,-0.69900471,0.07030818
1759198530687,0.15790325,0.22096235,0.00229956,-0.03760755,-0.01285922,-0.00736721,0.70935108,0.05638028,-0.69907415,0.07026840
1759198530708,-0.12220294,0.10314591,0.07636315,-0.01775371,0.00609480,0.00223647,0.70942768,0.05619121,-0.69900924,0.07029221
1759198530720,0.06959879,-0.11048630,-0.19908947,-0.02535397,0.00323424,-0.02015708,0.70946901,0.05604542,-0.69899064,0.07017631
1759198530742,-0.03861764,0.08818542,0.00118311,-0.00254563,0.00741745,-0.00822100,0.70955887,0.05601793,-0.69891053,0.07008752
1759198530753,0.02994317,-0.04507385,-0.23207753,-0.00212629,0.00841728,-0.00069373,0.70960790,0.05600570,-0.69886214,0.07008354
1759198530765,-0.13569415,-0.04246291,0.12486021,0.00412387,0.01761313,-0.00155808,0.70971094,0.05603044,-0.69875646,0.07007419
1759198530775,-0.14575767,-0.02243812,0.03006732,-0.01089162,0.02663107,-0.00027597,0.70985051,0.05597435,-0.69861931,0.07007277
1759198530787,0.00763409,0.10094486,0.08540930,0.01408085,0.02148918,0.00889558,0.70995874,0.05605391,-0.69849789,0.07012303
1759198530798,0.05336823,0.13989361,-0.06964071,0.01857954,0.01313461,0.02168375,0.71001041,0.05615703,-0.69842500,0.07024337
1759198530810,-0.05503801,0.09916020,0.06781652,-0.00089653,0.01389101,0.02098216,0.71007918,0.05615174,-0.69834304,0.07036717
1759198530832,0.02858926,-0.01926654,0.04643526,0.00204721,0.00491869,0.01094521,0.71011903,0.05617446,-0.69828844,0.07048866
1759198530843,-0.49185876,-0.09897753,-0.14594920,-0.01759045,0.01791221,0.03918758,0.71020664,0.05607244,-0.69818455,0.07071595
1759198530854,0.23799328,0.15255624,0.13956661,0.01597230,-0.00049210,0.02512931,0.71018347,0.05615948,-0.69818723,0.07085290
1759198530865,0.13760583,0.13645476,0.05779727,0.02788107,0.00262911,0.01709305,0.71017636,0.05630865,-0.69817317,0.07094435
1759198530876,0.05656095,0.08277492,-0.01911074,0.00372330,-0.00682436,0.01223055,0.71013152,0.05632894,-0.69821036,0.07101100
1759198530898,0.04238437,-0.08281218,0.04182711,0.00947709,-0.00356042,0.01002247,0.71007213,0.05643603,-0.69825059,0.07112426
1759198530932,0.02245722,-0.03190664,-0.00015228,0.00816827,0.00191088,0.02754775,0.71004634,0.05657285,-0.69821858,0.07158568
1759198530943,0.62645862,1.58077337,-1.33764770,0.10524400,0.01607657,0.03391178,0.71006752,0.05713591,-0.69813258,0.07176711
1759198530976,-0.14368029,-0.46696293,0.41440026,-0.00018805,-0.00083732,-0.00830818,0.71006803,0.05713275,-0.69814664,0.07162753
1759198530998,-0.03360828,-0.11728678,0.01272972,-0.03621633,-0.00384112,-0.02170927,0.71008222,0.05674161,-0.69818813,0.07139307
1759198531009,0.16813689,-0.46769405,-0.08141627,-0.10007457,-0.00744807,-0.04466828,0.71011113,0.05617619,-0.69823021,0.07114070
1759198531021,0.01892132,-0.16366002,0.01954587,-0.03799294,-0.02081188,-0.03942031,0.71002998,0.05594823,-0.69835508,0.07090418
1759198531043,-0.10892230,0.25105351,0.02779129,-0.02168455,-0.00273703,-0.01587925,0.71003664,0.05570645,-0.69838560,0.07072712
1759198531055,0.06234156,-0.41252741,-0.08326934,-0.02211070,0.00700071,-0.01957788,0.71009475,0.05558484,-0.69834709,0.07061944
1759198531065,-0.04876744,-0.00911311,-0.02216702,-0.03397516,0.00212433,-0.01865387,0.71013104,0.05539798,-0.69833541,0.07051685
1759198531076,-0.05720848,0.12286543,0.07551837,-0.02418783,0.00586603,-0.00981554,0.71017461,0.05527583,-0.69830579,0.07046728
1759198531088,-0.01482406,0.25263284,-0.02290475,0.00015422,0.00533146,-0.00178977,0.71020895,0.05527681,-0.69827193,0.07045591
1759198531098,-0.00387723,0.05630446,0.01516609,0.00061877,0.00733966,0.00877777,0.71024106,0.05527996,-0.69823450,0.07050068
1759198531110,0.00220976,0.03188371,0.03353226,0.00256132,0.00836461,0.00025598,0.71028865,0.05529520,-0.69818473,0.07050220
1759198531143,-0.00054275,0.03671510,0.00945117,0.00414048,-0.00065697,0.00268424,0.71026871,0.05536207,-0.69819534,0.07054555
1759198531155,-0.07932934,0.28557007,-0.65675992,-0.01160256,0.01092438,0.05147672,0.71031041,0.05528781,-0.69812542,0.07087501
1759198531177,-0.00879953,-0.00488275,0.40758073,0.01554043,0.00343708,0.00150497,0.71033199,0.05545410,-0.69808865,0.07089111
1759198531187,-0.07133156,0.05327446,0.27639540,0.01760965,-0.00546963,-0.00626708,0.71030075,0.05554391,-0.69811654,0.07085915
1759198531198,0.02254486,0.03817472,-0.07724583,0.01152496,-0.01100799,-0.00549787,0.71023873,0.05560787,-0.69817764,0.07082863
1759198531221,0.02394568,-0.08786490,-0.03590523,0.00402030,-0.00301971,0.00821860,0.71019216,0.05565350,-0.69821191,0.07092191
1759198531232,-0.05885131,0.21054774,0.08338502,0.00493122,-0.00275580,0.02769399,0.71016019,0.05568038,-0.69822693,0.07107285
1759198531254,0.05173579,-0.11676611,-0.04991720,0.01066663,-0.00194673,0.00939122,0.71011995,0.05579664,-0.69824815,0.07117521
1759198531255,-20.15639518,16.03200895,16.31332343,0.16935153,0.02209322,0.16158989,0.71011410,0.05592366,-0.69823158,0.07129640
1759198531276,1.37529946,-1.25440070,-1.14762594,0.02058699,0.00497837,0.00659297,0.71014148,0.05613982,-0.69817931,0.07136563
1759198531287,-0.10880213,0.05568506,0.11109981,0.03037495,0.00685736,0.01141150,0.71015823,0.05629929,-0.69814330,0.07142554
1759198531298,0.13287186,0.06362454,-0.09880255,0.03692296,-0.00804661,0.01280557,0.71009029,0.05650606,-0.69818837,0.07149725
1759198531310,0.03553288,0.00013113,0.02832753,0.02317366,0.00713344,0.01866373,0.71011083,0.05665089,-0.69814378,0.07161390
1759198531322,0.03369318,0.00928011,-0.01132488,0.02191406,0.00194714,0.01231043,0.71010436,0.05678238,-0.69813210,0.07168776
1759198531343,0.00319712,-0.00581804,-0.03127382,0.00114847,-0.00294245,-0.00334648,0.71007723,0.05679415,-0.69816226,0.07165346
1759198531388,0.00823924,-0.01687973,-0.00372509,0.00714829,-0.00084208,-0.00116622,0.71004817,0.05695606,-0.69818133,0.07162705
1759198531399,-0.10226176,0.60148768,0.44424974,0.02685507,-0.04481612,-0.00698706,0.70979545,0.05710510,-0.69843006,0.07158827
1759198531433,0.07408840,-0.18260306,-0.16179257,-0.01139834,-0.00275812,0.00216878,0.70976135,0.05691247,-0.69847667,0.07162492
1759198531466,0.04952982,-0.04414774,0.00087068,-0.01368937,0.00068735,-0.00498327,0.70979922,0.05668454,-0.69846523,0.07154195
1759198531500,-0.05040580,-0.04601567,-0.05107375,-0.01248006,0.00910772,-0.00946150,0.70998410,0.05647300,-0.69831085,0.07138158
1759198531535,-0.00223934,0.01670973,-0.00679565,0.00064568,0.01112741,0.00239032,0.71016728,0.05648411,-0.69811946,0.07142269
1759198531571,-0.02693536,0.06494618,0.03325250,0.00041445,0.00353364,-0.00426521,0.71023770,0.05649165,-0.69805515,0.07134506
1759198531607,0.00083396,0.00888596,0.01219183,-0.00276740,-0.00269700,0.00907429,0.71017718,0.05644156,-0.69810397,0.07150931
1759198531656,0.00379986,0.02547565,-0.01150862,-0.00240517,-0.00210684,0.00743383,0.71011275,0.05638264,-0.69815558,0.07169144
1759198531689,0.07454077,-0.01865165,0.05964763,0.05504062,0.01623720,0.04425636,0.71022826,0.05728255,-0.69789010,0.07241503
1759198531711,0.09690284,0.03296681,-0.02532845,0.01363396,0.00088097,-0.04610521,0.71027852,0.05743661,-0.69788015,0.07189404
1759198531770,-0.07413103,-0.05460230,-0.00479833,-0.03241040,-0.00912912,-0.01430601,0.71013510,0.05649347,-0.69814581,0.07147773
1759198531810,0.03064006,-0.02466613,0.02992708,0.00856031,-0.01136872,-0.01301541,0.70991978,0.05666810,-0.69837773,0.07121222
1759198531834,-0.02819639,-0.17180899,0.01288151,-0.00003067,0.00584528,-0.00124041,0.70998971,0.05666774,-0.69830817,0.07119746
1759198531855,-0.12829893,0.17821934,-0.03815632,0.01791387,0.00466195,0.00399807,0.71001902,0.05685852,-0.69825852,0.07124004
1759198531906,0.04040626,0.05205973,-0.01886612,-0.00411690,0.00122992,-0.00068050,0.71005952,0.05675477,-0.69822753,0.07122289
1759198531936,0.02388452,0.04543796,0.01372332,-0.00014332,0.00129022,0.00435793,0.71007233,0.05675260,-0.69820791,0.07128913
1759198531967,-0.19863641,0.02491204,-0.06937452,-0.00438890,-0.00825650,-0.01972452,0.70998225,0.05668435,-0.69833630,0.07098241
1759198532002,0.09265584,-0.01303627,0.04511545,-0.00782868,-0.00087787,0.01196126,0.70995717,0.05654774,-0.69835162,0.07119114
1759198532022,0.01622288,-0.01838155,0.01340771,0.02207704,-0.00364156,0.02057872,0.70988269,0.05676961,-0.69838822,0.07139795
1759198532067,0.02218189,-0.03838245,0.03929447,0.01722974,0.00626780,0.00461313,0.70997986,0.05715728,-0.69824719,0.07150175
1759198532100,-0.03486116,0.06098880,-0.02795189,0.02254934,0.00541254,0.03719092,0.70997568,0.05752033,-0.69816005,0.07210052
1759198532111,-0.43481407,0.48628365,-0.10468071,0.04491879,-0.01669941,-0.00803520,0.70986207,0.05778535,-0.69825858,0.07205312
1759198532133,-0.01753756,-0.29360632,-0.03349172,-0.00568043,-0.00817826,-0.00018609,0.70978075,0.05772428,-0.69834650,0.07205112
1759198532179,0.09089246,-0.03607764,-0.00237812,-0.00678545,-0.00028500,0.00543242,0.70977434,0.05756957,-0.69835299,0.07217497
1759198532213,-0.01041512,0.03183537,-0.02355755,0.00115839,0.00965602,0.01747420,0.70990395,0.05758927,-0.69818884,0.07247204
1759198532223,-0.83595359,-0.70219064,-0.60187491,0.00453612,0.03481118,0.00455358,0.71007761,0.05761285,-0.69800782,0.07249571
1759198532245,0.34639412,0.06742061,0.25007799,-0.00778498,0.01056467,-0.00089527,0.71020255,0.05752527,-0.69788897,0.07248564
1759198532267,0.13170942,0.14929561,0.05942466,0.00008394,0.00671600,0.00724083,0.71026488,0.05752617,-0.69781745,0.07256276
1759198532278,-0.07745097,0.01856203,-0.01391253,0.00656060,0.00821212,0.00878256,0.71030073,0.05756159,-0.69777310,0.07261018
1759198532301,0.03964446,0.05927897,0.02686714,0.00380593,-0.00069666,0.00006892,0.71028918,0.05760555,-0.69778115,0.07261098
1759198532313,-0.07044453,-0.01418967,0.03376185,0.00667615,0.00261468,-0.00179751,0.71030233,0.05764528,-0.69776559,0.07260028
1759198532324,0.03267297,-0.02644353,-0.02472015,-0.01797382,-0.00667382,-0.00552396,0.71027581,0.05754013,-0.69780463,0.07256797
1759198532334,-0.15158867,0.22534325,-0.26860099,-0.01641307,-0.00839442,0.00673880,0.71023929,0.05746135,-0.69784492,0.07260032
1759198532356,0.08525596,-0.02695098,0.10315526,-0.00576845,0.00129419,0.00108150,0.71025736,0.05739732,-0.69783056,0.07261232
1759198532358,-9.54154661,13.10007982,-3.75570511,-0.04779103,-0.04686446,0.07220764,0.71021770,0.05735908,-0.69786805,0.07267009
1759198532379,0.80018727,-0.97420596,0.35375238,0.00330613,-0.00344071,0.01542325,0.71016254,0.05739396,-0.69790435,0.07283280
1759198532401,0.01304901,-0.01264563,0.00806485,0.01678717,0.00191066,0.01631197,0.71014959,0.05758198,-0.69788295,0.07301550
1759198532413,0.17803943,0.17404728,0.15546249,0.02344643,-0.00182880,0.02303416,0.71011377,0.05772031,-0.69789374,0.07315140
1759198532424,0.06122462,-0.09902621,-0.04418568,0.05933455,-0.00196072,0.00023460,0.71007746,0.05803775,-0.69790423,0.07315265
1759198532457,-0.07429946,-0.04388276,-0.05542207,0.01647797,-0.00080309,-0.01488121,0.71006738,0.05831046,-0.69791752,0.07290637
1759198532489,0.05166632,0.00034148,0.03682486,-0.00578371,-0.00735796,-0.01537436,0.70998316,0.05821648,-0.69803709,0.07265654
1759198532502,0.50682655,-0.15897017,0.46333900,-0.10139879,-0.03774638,-0.06257212,0.70984276,0.05758274,-0.69827300,0.07226546
1759198532534,-0.23411407,-0.00041592,-0.19512438,-0.00525950,-0.00311500,-0.01134385,0.70981878,0.05749780,-0.69832331,0.07208226
1759198532546,-0.01635568,-0.15544713,-0.13496658,0.01078505,-0.00284340,-0.00116307,0.70979711,0.05756358,-0.69834065,0.07207516
1759198532568,0.00842579,0.08626606,0.05706116,0.00109401,0.00476280,0.00738975,0.70983845,0.05757534,-0.69828945,0.07215460
1759198532578,-0.00179746,-0.14606684,0.09790672,-0.00934212,0.01116733,0.01513954,0.70989253,0.05752583,-0.69823027,0.07223484
1759198532616,-0.02553271,0.06559122,-0.03925071,0.00153858,0.00146448,-0.00114520,0.70991917,0.05755445,-0.69820303,0.07221354
1759198532636,0.01206572,-0.15178101,0.08408658,-0.00538914,0.00363616,-0.01130523,0.70997052,0.05750083,-0.69816685,0.07210105
1759198532682,-0.02544896,0.08919413,-0.04240528,0.00087019,0.00045813,0.00417346,0.70996948,0.05752132,-0.69815606,0.07219934
1759198532716,-0.02616582,0.05206044,0.04522008,0.01281590,-0.00488223,-0.01173732,0.70989160,0.05773599,-0.69823784,0.07200274
1759198532748,-0.02858177,0.01955771,-0.02033266,0.00049678,0.00037020,0.01259943,0.70987621,0.05774398,-0.69823188,0.07220559
1759198532782,-0.05517155,0.05338553,-0.07658931,0.02390451,0.00513108,0.02779115,0.70988052,0.05814080,-0.69814670,0.07266692
1759198532792,-0.66980247,-0.38313372,0.13303939,0.05957804,0.02872140,0.02441037,0.70999205,0.05845954,-0.69799304,0.07279752
