UnixTime(ms),Ax,Ay,Az,Gx,Gy,Gz,QuatW,QuatX,QuatY,QuatZ
1761620310483,0.00000000,0.00000000,0.00000000,0.00000000,0.00000000,0.00000000,0.99728651,0.05681045,0.02710563,0.03817693
1761620310488,-1.57632118,-1.11500094,6.39198240,0.04866869,-0.03535091,-0.11467519,0.99729354,0.05694428,0.02700842,0.03786158
1761620310500,1.05477972,0.10805806,-1.06285946,-0.01177630,0.00850797,-0.00719306,0.99729757,0.05687775,0.02705649,0.03782094
1761620310511,0.30621542,0.25755237,0.37343344,-0.02723923,0.02251800,0.02925390,0.99729659,0.05672385,0.02718371,0.03798622
1761620310522,-0.07120665,0.02028663,-0.19167026,0.03351233,0.01872337,0.01869600,0.99727873,0.05691487,0.02729044,0.03809279
1761620310533,-0.07422571,0.14774597,-0.40270615,0.06638606,0.03674736,0.07926757,0.99723474,0.05728663,0.02749622,0.03853669
1761620310545,0.00350094,0.06421565,-0.00498467,0.09282456,0.03724509,0.04647858,0.99718846,0.05781109,0.02770666,0.03879929
1761620310556,-0.35705464,-0.25194445,0.02213510,0.09679239,0.01112767,0.03824234,0.99714680,0.05835312,0.02776897,0.03901345
1761620310567,-0.00760263,0.04490305,-0.22237702,0.06680381,0.01424659,0.02288395,0.99711759,0.05872723,0.02784875,0.03914160
1761620310579,-0.15764226,-0.23404191,0.17793103,0.03532118,0.02422667,-0.00393925,0.99710286,0.05892679,0.02798563,0.03911934
1761620310590,-0.32862143,-0.26490435,-0.04294485,0.02680709,0.01981172,-0.02100041,0.99709540,0.05907825,0.02809757,0.03900069
1761620310601,-0.22404220,-0.16182928,0.24584090,0.00413869,0.02327320,-0.00331643,0.99709107,0.05910143,0.02822790,0.03898212
1761620310612,-0.12544345,-0.06485996,-0.02090724,-0.00071886,-0.00212361,-0.00490701,0.99709272,0.05909740,0.02821601,0.03895464
1761620310623,-0.15585398,-0.24435338,-0.36872771,0.03365322,-0.02730112,0.01319742,0.99708296,0.05928586,0.02806312,0.03902854
1761620310635,-0.42151299,0.40700806,-0.12821770,0.02076808,-0.06033253,0.01290868,0.99708265,0.05940320,0.02772224,0.03910148
1761620310646,-0.37636035,0.02180794,-0.07522755,0.04463005,-0.02868522,0.02339643,0.99706718,0.05965090,0.02756304,0.03923133
1761620310657,-0.41797267,0.24756657,-0.17222022,0.02736024,-0.01160450,0.05191052,0.99704848,0.05980275,0.02749863,0.03951943
1761620310668,-0.35742650,-0.44513717,-0.05494786,0.04153447,0.03330447,0.04768559,0.99701872,0.06003534,0.02768514,0.03978647
1761620310679,-0.13684740,-0.45544525,0.10453621,0.00749942,0.06778947,0.06528014,0.99699092,0.06007734,0.02806476,0.04015204
1761620310690,-0.24433571,-0.11120108,-0.11195697,-0.05599489,0.05469157,0.06852293,0.99698562,0.05976656,0.02836830,0.04053234
1761620310702,-0.15906246,0.38095993,0.02942050,-0.09280853,0.05607057,0.04706987,0.99699700,0.05924220,0.02868510,0.04079828
1761620310713,-0.41464627,0.17927266,-0.38818844,-0.06506906,0.06282394,0.06960246,0.99699238,0.05887781,0.02903691,0.04118806
1761620310724,-0.17486056,-0.11700928,-0.16155596,-0.02275649,0.10680427,0.09254513,0.99696075,0.05875037,0.02963501,0.04170631
1761620310735,-0.79970152,0.15432466,-0.08599395,-0.02282086,0.13065860,0.08438973,0.99692700,0.05862486,0.03035364,0.04217045
1761620310746,0.00346275,0.42278023,0.18047020,-0.04216375,0.17869786,0.08089414,0.99689029,0.05838663,0.03136328,0.04262751
1761620310758,-0.19881222,0.04950910,-0.01019291,-0.04148596,0.19268255,0.09552029,0.99684632,0.05815431,0.03244230,0.04316242
1761620310769,-0.62081721,-0.20806318,0.07325671,-0.05997850,0.21226339,0.11458911,0.99679934,0.05782443,0.03360975,0.04379266
1761620310780,0.12920797,0.07668116,-0.02386579,-0.05812823,0.22998396,0.12283068,0.99674294,0.05749600,0.03490916,0.04448665
1761620310791,-0.26277832,-0.15998995,0.12894796,-0.05948384,0.25790945,0.14144811,0.99667604,0.05716884,0.03632766,0.04526462
1761620310802,0.41637828,0.19862893,-0.08631405,-0.07023255,0.25854706,0.15582466,0.99660404,0.05677203,0.03778845,0.04614503
1761620310813,-0.11620627,-0.03109312,0.10642823,-0.07111905,0.27309115,0.14303216,0.99653075,0.05637732,0.03930411,0.04693886
1761620310825,0.37170712,0.06962499,0.09599181,-0.05855011,0.27268072,0.14748903,0.99644860,0.05604944,0.04083112,0.04776479
1761620310836,0.12805942,0.40365572,-0.19747965,-0.02275437,0.26629912,0.12408708,0.99636078,0.05592315,0.04230908,0.04845348
1761620310847,0.20759983,0.27646392,-0.28324946,0.03284037,0.23049914,0.11989718,0.99626191,0.05610706,0.04359988,0.04912490
1761620310858,0.39913825,-0.10792175,-0.16915859,0.07748723,0.21598743,0.10317836,0.99615505,0.05654099,0.04480941,0.04970270
1761620310869,1.61425141,-0.22108960,-2.61116900,0.06394700,0.17770315,0.09041553,0.99606564,0.05689269,0.04578677,0.05019999
1761620310880,0.67363998,-0.19017204,-0.21017513,0.05112411,0.16279395,0.07477880,0.99598501,0.05718155,0.04670656,0.05062249
1761620310891,0.52508629,-0.34459944,-0.00597110,0.00651409,0.12462174,0.06716313,0.99593075,0.05721802,0.04740444,0.05099860
1761620310902,-0.86409142,0.44560981,2.71651511,-0.03733199,0.09253307,0.02622693,0.99591077,0.05701270,0.04791337,0.05114285
1761620310914,0.50654272,-0.38098912,-0.00328296,-0.05532100,0.03171894,0.04540145,0.99590681,0.05670290,0.04809100,0.05139710
1761620310925,0.47046114,-0.34764862,-0.02448195,-0.07223705,-0.00686794,0.05674526,0.99591509,0.05630199,0.04805288,0.05171203
1761620310936,-0.89580937,0.43916177,0.02616402,-0.10827416,-0.03367181,0.04790936,0.99594430,0.05569565,0.04786432,0.05198033
1761620310947,1.75143543,-0.97556167,-0.14056819,-0.12935994,-0.03038203,0.05486606,0.99597634,0.05497770,0.04769570,0.05228483
1761620310958,0.17246334,-0.18245303,-0.14388497,-0.15813407,-0.03869584,0.07004265,0.99601451,0.05409215,0.04747900,0.05267707
1761620310970,0.64242251,-0.24239333,-0.39153561,-0.14332539,-0.03736364,0.05716440,0.99605075,0.05328953,0.04726977,0.05299719
1761620310981,0.00597795,-0.04462945,-0.26280516,-0.11877636,-0.03714343,0.04301737,0.99608283,0.05263032,0.04706362,0.05323594
1761620310992,0.12712151,0.07998711,-0.06075257,-0.08082389,-0.01490091,0.03639371,0.99609967,0.05217771,0.04698017,0.05343974
1761620311003,-0.56171989,0.22291509,0.09806601,-0.07655395,0.01274290,0.04347358,0.99610552,0.05175283,0.04705090,0.05368102
1761620311014,-0.08951929,0.08531880,-0.12379964,-0.08876882,0.04329277,0.05018050,0.99610456,0.05125573,0.04729334,0.05396203
1761620311025,-0.08769962,0.04126361,0.01268155,-0.10176556,0.06892184,0.04749915,0.99610091,0.05069093,0.04767585,0.05422565
1761620311037,-0.03817855,0.00535646,0.04983044,-0.09712714,0.08334164,0.01633800,0.99610100,0.05013730,0.04815090,0.05431878
1761620311045,0.06779291,-0.15376338,0.19692364,-0.13774702,0.09747834,-0.02024432,0.99611487,0.04955188,0.04856518,0.05423274
1761620311056,0.08404984,0.20071396,0.04184280,-0.11679594,0.10957017,-0.02049151,0.99612326,0.04890366,0.04917330,0.05411901
1761620311067,-0.17197522,0.63654452,0.24580315,-0.12031210,0.07927406,-0.02788427,0.99614223,0.04824194,0.04960931,0.05396565
1761620311078,0.02688568,0.54024053,0.12209138,-0.09031938,0.06932795,-0.03351466,0.99615733,0.04773616,0.04999754,0.05377797
1761620311090,-0.05321843,0.50872308,-0.05892041,-0.01868805,0.08733706,-0.07924195,0.99616153,0.04763150,0.05048663,0.05333421
1761620311101,0.43694316,-0.06843056,-0.12543327,0.03613410,0.09029777,-0.12102557,0.99616214,0.04783205,0.05098778,0.05266252
1761620311112,0.43365831,0.46624508,0.13381662,0.04800668,0.05194615,-0.12656113,0.99617147,0.04810088,0.05127868,0.05195378
1761620311123,0.50287337,0.41950010,0.01591240,0.07747753,-0.00524534,-0.13712532,0.99619152,0.04853089,0.05124957,0.05119273
1761620311134,0.45104704,0.31943067,0.06237348,0.08969429,-0.04300977,-0.11947318,0.99621363,0.04903766,0.05100656,0.05051771
1761620311145,0.27227817,0.23023613,-0.02286109,0.10075950,-0.06450247,-0.14067358,0.99624350,0.04959687,0.05064857,0.04973697
1761620311156,0.65736854,0.82747654,0.14676828,0.07917694,-0.07249116,-0.14940687,0.99628260,0.05003235,0.05024987,0.04891523
1761620311168,-0.54987773,-1.40151844,-0.78559392,0.10257590,-0.08413765,-0.14263870,0.99631614,0.05060677,0.04977870,0.04811646
1761620311179,0.21287373,-0.05897980,-0.07032436,0.12087157,-0.11045500,-0.13498869,0.99634846,0.05128365,0.04916015,0.04736052
1761620311190,0.16579521,0.14280793,-0.01520024,0.12618317,-0.13110301,-0.12785253,0.99638099,0.05197766,0.04843909,0.04665733
1761620311204,-0.25860561,0.35215910,0.49799538,0.12560363,-0.13884412,-0.11306130,0.99641748,0.05283804,0.04748801,0.04588286
1761620311215,0.03945600,-0.33094693,-0.02022744,0.13170491,-0.13431217,-0.08926012,0.99643655,0.05357559,0.04673586,0.04538300
1761620311226,0.06842370,-0.07929309,-0.03421185,0.11896634,-0.12983183,-0.08133653,0.99645498,0.05424180,0.04600880,0.04492752
1761620311237,0.13656994,-0.35460391,0.13316903,0.09646824,-0.12759112,-0.07446122,0.99647707,0.05478685,0.04528791,0.04450681
1761620311248,-0.25943145,-0.17405794,0.09942293,0.05314640,-0.13365825,-0.07749684,0.99651369,0.05508447,0.04453942,0.04407283
1761620311259,-0.07769012,-0.17439922,-0.22156461,0.04120018,-0.13278846,-0.07279706,0.99655114,0.05531107,0.04380909,0.04367245
1761620311270,-0.36649468,-0.01428541,-0.65220289,0.04974694,-0.11426693,-0.06179723,0.99657818,0.05558468,0.04318062,0.04333256
1761620311282,-0.22911839,-0.33115802,-0.15915054,0.06747482,-0.08839982,-0.03908950,0.99658794,0.05596591,0.04268116,0.04311171
1761620311293,-0.06623710,-0.20584929,0.24136679,0.04378749,-0.07279698,-0.02633328,0.99659788,0.05621112,0.04227350,0.04296424
1761620311304,0.25468821,0.37347936,0.67663436,0.01136540,-0.05484747,-0.03481872,0.99661566,0.05627477,0.04196635,0.04276926
1761620311315,-0.62927694,-0.57260004,-0.23462832,-0.00977654,-0.02729703,-0.03834735,0.99663370,0.05622197,0.04181895,0.04256218
1761620311326,-0.32474878,-0.14822477,0.00335399,-0.01149947,-0.00509481,-0.04159407,0.99664858,0.05615700,0.04179016,0.04232717
1761620311337,-0.28583027,-0.03620940,-0.07926943,-0.00483262,0.00132171,-0.06379502,0.99666461,0.05613042,0.04179743,0.04197630
1761620311349,-0.11981302,0.04262210,0.01731151,-0.01068400,0.02879826,-0.03800273,0.99667024,0.05606952,0.04196158,0.04175969
1761620311360,-0.26072369,0.04671193,-0.17237299,-0.01616799,0.03047439,-0.01878672,0.99667251,0.05597979,0.04213071,0.04165542
1761620311371,-0.29412892,0.03985011,-0.33089503,-0.03145804,0.04825205,-0.02372995,0.99667644,0.05580520,0.04239851,0.04152372
1761620311382,-0.22446681,-0.14652022,0.02515576,-0.05067494,0.05798814,-0.00656744,0.99667992,0.05552395,0.04272035,0.04148727
1761620311393,-0.01164367,-0.13941479,0.23806173,-0.07401740,0.06810424,0.00251516,0.99668592,0.05510946,0.04310173,0.04150135
1761620311404,-0.00760202,-0.30511837,0.27645423,-0.08630889,0.05949165,0.00218058,0.99669746,0.05463044,0.04343191,0.04151346
1761620311415,-0.00774023,-0.04867882,0.06772705,-0.10168188,0.07576159,0.00148874,0.99670947,0.05406611,0.04385239,0.04152172
1761620311427,-0.00373433,0.05752526,-0.02228826,-0.09260215,0.06905807,0.01439712,0.99671708,0.05354290,0.04424256,0.04160306
1761620311438,-0.13939272,0.22625470,-0.03923203,-0.08605176,0.07438211,0.01445260,0.99672086,0.05306532,0.04465538,0.04168327
1761620311449,-0.02914343,0.14361903,-0.00224312,-0.05721877,0.07742249,0.03365030,0.99671045,0.05274489,0.04508895,0.04187172
1761620311460,-0.28890006,0.02055087,-0.13684740,-0.04125583,0.09341412,0.02754435,0.99669236,0.05251386,0.04561207,0.04202596
1761620311471,-0.74150430,-0.32608055,-0.22254981,-0.03293345,0.10332148,0.03586396,0.99666738,0.05233273,0.04618034,0.04222322
1761620311482,-0.00158964,0.10797791,0.14445003,-0.04441292,0.09227591,0.02197165,0.99665111,0.05208401,0.04669708,0.04234626
1761620311494,0.29424554,0.11175235,0.16024296,-0.04236922,0.10067929,0.02525433,0.99663070,0.05184463,0.04726592,0.04248894
1761620311505,0.47140084,0.34240960,0.19907130,-0.03602648,0.09326795,0.04676893,0.99660530,0.05164468,0.04778356,0.04274851
1761620311516,0.00000000,0.03440776,-0.04644141,-0.03229375,0.09988832,0.04520043,0.99657704,0.05146545,0.04833794,0.04299937
1761620311527,-0.02280790,0.05887011,-0.00123286,-0.03457325,0.10371219,0.04603271,0.99654753,0.05127184,0.04891873,0.04325716
1761620311538,0.00753291,0.01328517,-0.01230144,-0.02176689,0.10980164,0.03198734,0.99651591,0.05115103,0.04952813,0.04343469
1761620311549,0.00013698,0.01314568,-0.00681497,-0.01515630,0.09997646,0.01198772,0.99648935,0.05106616,0.05008799,0.04350182
1761620311560,0.04561580,-0.04781344,0.03041053,-0.00066593,0.07797431,-0.00540882,0.99646882,0.05106243,0.05052465,0.04347153
1761620311572,0.03510749,-0.00855875,-0.07798978,0.02319048,0.07812072,0.01174462,0.99643729,0.05119114,0.05095822,0.04353671
1761620311583,0.03870117,0.11676870,0.01741553,0.03300526,0.06221423,0.02829061,0.99640328,0.05137432,0.05130351,0.04369372
1761620311594,-0.03513649,0.18302237,-0.05780741,0.02151529,0.07879496,0.03230204,0.99636629,0.05149480,0.05174476,0.04387462
1761620311605,-0.09226083,-0.02968512,-0.00939886,0.01771010,0.07538163,0.02256968,0.99633387,0.05159309,0.05216313,0.04399988
1761620311616,0.13705288,-0.22544633,0.08344061,0.01163180,0.03683206,0.00868888,0.99631752,0.05165823,0.05236939,0.04404853
1761620311627,0.20527110,0.04692250,0.06462238,-0.00486126,0.01404991,-0.00055659,0.99631493,0.05163101,0.05244807,0.04404542
1761620311638,0.32412233,0.01147969,0.02088827,0.01608471,-0.00870961,0.01100352,0.99631014,0.05172028,0.05239973,0.04410649
1761620311650,0.11212172,0.12576718,0.00020548,0.01416438,-0.00819070,0.02535494,0.99630214,0.05179960,0.05235386,0.04424848
1761620311661,-0.20601464,0.04326400,-0.03116827,0.01380431,-0.00374819,0.03674808,0.99629016,0.05187621,0.05233306,0.04445243
1761620311672,-0.35218068,-0.03918494,-0.02322070,0.01403953,0.00644396,0.04171203,0.99627387,0.05195413,0.05236882,0.04468393
1761620311683,0.01342447,-0.05963690,0.01589019,-0.00770511,0.01751976,0.04722626,0.99625906,0.05191098,0.05246693,0.04494840
1761620311694,0.12924477,-0.00445467,-0.11023818,-0.00563810,0.01308614,0.03467624,0.99624806,0.05187941,0.05254022,0.04514258
1761620311705,0.32045954,-0.00898420,-0.03251590,-0.00017771,0.00640096,0.01911055,0.99624143,0.05187842,0.05257574,0.04524865
1761620311717,-0.04891642,0.07753527,-0.06738623,-0.00784135,-0.00094396,-0.00259696,0.99624468,0.05183412,0.05257041,0.04523397
1761620311728,-0.04308502,-0.03968690,-0.15586641,0.00480536,-0.00285733,0.00701175,0.99624236,0.05186079,0.05255455,0.04527289
1761620311739,0.06042565,-0.00800864,0.00000000,-0.01188217,-0.00399336,0.00542280,0.99624556,0.05179544,0.05253259,0.04530271
1761620311751,-0.06476659,-0.12708941,0.01802106,-0.04538167,0.00755944,0.03790222,0.99624699,0.05150953,0.05258021,0.04554150
1761620311761,-0.33606455,-0.45144430,-0.48413991,-0.08208670,0.03611677,0.07625522,0.99624132,0.05111552,0.05275357,0.04590752
1761620311772,-0.19006583,-0.09672569,0.06018751,-0.10687628,0.06811922,0.08007945,0.99623081,0.05051701,0.05313504,0.04635597
1761620311783,-0.25080396,-0.20651611,-0.03377831,-0.11971429,0.10325724,0.08899746,0.99621063,0.04985858,0.05370295,0.04684545
1761620311794,-0.19462741,-0.00125487,0.17382384,-0.10705164,0.10436125,0.07811393,0.99618811,0.04925909,0.05428738,0.04728289
1761620311805,-0.07684947,-0.06350167,0.13175676,-0.07132332,0.10306184,0.04929355,0.99616325,0.04886325,0.05485937,0.04755647
1761620311817,0.06475937,-0.02259493,0.02147230,-0.06635957,0.10166297,-0.00321923,0.99615075,0.04849163,0.05542868,0.04753844
1761620311828,0.06237109,0.08853001,0.01510037,-0.05745649,0.08036530,-0.01006208,0.99614397,0.04817275,0.05587471,0.04748260
1761620311839,0.17766874,0.18482671,0.02114696,-0.04466689,0.07622478,0.03013628,0.99612394,0.04792262,0.05630157,0.04765136
1761620311850,0.05293768,0.05019004,0.00188323,-0.02977694,0.09453498,0.02982368,0.99609415,0.04775735,0.05682624,0.04781688
1761620311861,-0.51385787,-0.11955337,0.11769882,-0.03443312,0.11140240,0.04120017,0.99605615,0.04756281,0.05745566,0.04804966
1761620311872,-0.54116570,-0.21227155,0.24784163,-0.05093407,0.13130253,0.04504218,0.99601522,0.04728012,0.05818439,0.04829965
1761620311884,0.01935059,-0.02364400,0.03096094,-0.04062989,0.09870200,-0.00296419,0.99599454,0.04705463,0.05873219,0.04828320
1761620311898,0.88100312,0.29904064,0.03432148,-0.01422471,0.05486583,-0.00872701,0.99597926,0.04695363,0.05912173,0.04822124
1761620311905,0.93626860,-0.05640308,-0.50124833,-0.02360558,0.04709405,-0.03450561,0.99597919,0.04686629,0.05929598,0.04809356
1761620311916,0.31595497,0.48209894,0.19236868,-0.00269482,0.00009040,-0.04497323,0.99599211,0.04685106,0.05929649,0.04783947
1761620311928,0.23777762,0.19230139,-0.09062370,0.01755872,-0.00346103,-0.04387328,0.99600055,0.04695115,0.05927677,0.04758939
1761620311939,0.18542515,0.05353896,0.00169385,0.01495728,-0.02987831,-0.03829406,0.99601648,0.04703341,0.05911243,0.04737877
1761620311949,0.32589177,-0.00575205,0.03448444,-0.00345893,-0.05254736,-0.05469385,0.99604612,0.04701595,0.05884707,0.04710257
1761620311978,-0.15891775,-0.03248593,0.11117961,-0.00251406,-0.02732877,-0.02437822,0.99608840,0.04697899,0.05844534,0.04674421
1761620311988,4.08486084,0.46183841,-0.84804572,0.08419041,-0.27233436,-0.06592584,0.99615696,0.04736627,0.05719260,0.04644095
1761620311999,-2.34091620,0.11031806,0.49512262,0.05018208,-0.08565958,-0.01683622,0.99617521,0.04764478,0.05671719,0.04634751
1761620312014,-0.27550591,-0.00495989,0.09390685,0.03939517,-0.05160118,-0.02690409,0.99619236,0.04794024,0.05633018,0.04614573
1761620312022,1.20384924,0.73040182,-0.19923078,0.03227610,-0.10444592,-0.02146933,0.99621312,0.04806612,0.05592284,0.04606200
1761620312035,-0.63390186,-0.46690305,0.12555771,0.02143125,-0.05450230,-0.02061407,0.99623240,0.04820542,0.05556858,0.04592800
1761620312045,-0.08949867,-0.13509622,-0.13974997,0.00533935,-0.06970647,-0.02609097,0.99625649,0.04823212,0.05522004,0.04579755
1761620312056,-0.18958421,-0.19903602,0.14883182,-0.02181203,-0.02983207,-0.01301279,0.99627598,0.04810343,0.05504403,0.04572077
1761620312068,-0.66787200,-0.29772484,0.41392472,-0.03607301,-0.01533857,0.01809009,0.99628580,0.04790142,0.05495814,0.04582208
1761620312079,-0.16629969,-0.09013833,0.01423799,-0.06057437,0.01209579,0.02112574,0.99629311,0.04755009,0.05502829,0.04594461
1761620312091,-0.20553326,-0.18261010,-0.04783964,-0.07180044,0.02343598,0.02891151,0.99629764,0.04713364,0.05516422,0.04611230
1761620312102,0.33078898,-0.03840899,-0.37946791,-0.06557828,0.04251264,0.00625839,0.99630015,0.04675985,0.05540654,0.04614797
1761620312113,-0.11007321,0.03170338,-0.12474964,-0.04721590,0.02798789,-0.00294180,0.99630464,0.04649072,0.05556608,0.04613120
1761620312125,-0.08072036,0.01966412,-0.05870571,-0.03214116,0.01753060,-0.00277411,0.99630833,0.04630751,0.05566600,0.04611539
1761620312136,-0.03669107,0.04678112,0.01834554,-0.03137095,0.02126490,0.00510814,0.99630849,0.04612870,0.05578721,0.04614450
1761620312149,-0.02867230,0.04193476,0.00505982,-0.03571107,0.02582232,0.01307701,0.99630598,0.04590729,0.05594731,0.04622558
1761620312216,0.01343727,0.04541741,0.04339229,-0.00507241,0.00665258,0.00415864,0.99629479,0.04573736,0.05617017,0.04636490
1761620312274,-0.01444683,-0.01678821,0.00757169,-0.01175536,0.03224839,0.00889897,0.99624526,0.04539705,0.05710376,0.04662252
1761620312275,-44.38010017,1.65032958,-118.74365453,0.97898607,-0.32978711,0.59520226,0.99619921,0.04622918,0.05682344,0.04712844
1761620312329,1.39343016,0.00809103,3.62650517,0.02688939,-0.01665631,0.00026801,0.99619048,0.04695385,0.05637455,0.04713567
1761620312355,-0.09073059,0.14623960,-0.13181546,-0.00302136,-0.00026722,-0.04454622,0.99621987,0.04691442,0.05637107,0.04655434
1761620312396,0.06375271,0.00336485,0.08397515,-0.00814560,-0.00856447,-0.02888622,0.99626481,0.04674866,0.05619678,0.04596650
1761620312398,-25.23559573,83.24081010,-86.91478248,0.14681386,-0.23923169,-0.41049748,0.99628896,0.04688813,0.05596951,0.04557653
1761620312427,1.44104883,-5.59736832,5.76150043,-0.01862342,-0.01141739,0.00811574,0.99630513,0.04662461,0.05580795,0.04569137
1761620312455,0.08694355,-0.18127025,0.11244800,-0.04767604,-0.02402071,0.01474287,0.99634687,0.04593331,0.05545965,0.04590514
1761620312461,-4.26547617,-1.27606405,-3.50103669,-0.21584451,-0.10414066,0.11677166,0.99637612,0.04531815,0.05516285,0.04623794
1761620312521,0.44244667,0.09391246,0.36586936,-0.01546921,-0.00998523,-0.00123080,0.99641550,0.04485253,0.05486230,0.04620089
1761620312523,-111.94346355,-16.54514665,-158.63350460,-0.67521793,-1.13094053,0.06855118,0.99650411,0.04417731,0.05373136,0.04626944
1761620312586,3.55987952,0.53510993,4.96636292,-0.03887665,-0.05679361,-0.01915601,0.99668033,0.04295270,0.05194236,0.04566603
1761620312622,0.09830361,-0.13089753,-0.40580615,-0.05916536,-0.11338460,-0.03029076,0.99685522,0.04188476,0.04989577,0.04511928
1761620312632,-0.58624460,-0.73321737,-4.33319644,-0.28273257,-0.40608275,-0.19212253,0.99706012,0.04044283,0.04782474,0.04413945
1761620312666,0.06293428,0.42268161,1.26800623,-0.03819261,-0.16417794,-0.02595454,0.99723311,0.03980310,0.04507476,0.04370472
1761620312706,-0.05828003,-0.01341434,0.05365358,-0.05047821,-0.13104388,0.00287391,0.99738575,0.03879101,0.04244733,0.04376234
1761620312707,-108.00540001,95.58009421,-379.40567833,-1.68994893,-2.11954475,1.79846233,0.99744053,0.03752355,0.04085767,0.04511119
1761620312740,5.12623691,-4.48813293,17.48616964,-0.09318185,-0.02963819,0.12244049,0.99742387,0.03600003,0.04037309,0.04711309
1761620312753,1.69349974,1.15228159,-3.38624908,-0.10703317,-0.21334241,0.24307315,0.99742798,0.03532037,0.03901837,0.04865660
1761620312775,-0.61496696,-0.22832306,1.31089880,0.08678664,-0.10869460,0.12619509,0.99737109,0.03627502,0.03782273,0.05004475
1761620312786,0.20720311,-1.04536250,-2.21551173,0.05553920,-0.08947850,0.21302312,0.99731948,0.03657771,0.03733507,0.05120572
1761620312807,-0.21940930,0.43000394,1.53829734,-0.03158839,-0.00906788,0.09630530,0.99728182,0.03623813,0.03723759,0.05224101
1761620312818,0.59806439,0.77318348,-3.58169758,0.03079914,-0.03773841,0.06860403,0.99726438,0.03639983,0.03703946,0.05260118
1761620312830,0.54549551,0.33616091,0.17520957,0.09660586,-0.04769874,0.03684532,0.99724215,0.03697463,0.03675565,0.05282041
1761620312842,-0.05228624,-0.34699679,-0.17848001,0.15656611,-0.09721001,0.00948862,0.99722519,0.03791403,0.03617239,0.05287734
1761620312852,0.16381140,-0.17018917,-0.71687763,0.18836045,-0.13720439,-0.02560044,0.99722008,0.03890292,0.03545207,0.05274294
1761620312863,-0.11267570,-0.20523371,0.87182686,0.12605631,-0.09737586,-0.02225191,0.99721814,0.03960254,0.03491163,0.05261944
1761620312875,-0.43792533,-1.09128822,0.43872922,0.09038412,-0.05989532,0.01517890,0.99720428,0.04014032,0.03455526,0.05270975
1761620312877,12.94504100,-27.21184986,-105.25959226,0.07353951,-0.12796129,0.01277629,0.99720514,0.04022121,0.03441450,0.05272381
1761620312896,-1.95812908,3.10647174,13.51020434,-0.03913211,0.00467324,-0.03272005,0.99723445,0.03985533,0.03445819,0.05241787
1761620312908,0.53144324,0.11176006,-2.49849207,-0.10122036,0.00823610,-0.09460788,0.99728694,0.03924295,0.03450802,0.05184550
1761620312919,0.54920463,0.11909733,-1.61250492,-0.04393364,0.00845278,-0.10073221,0.99732345,0.03900131,0.03455451,0.05129147
1761620312921,46.70762988,-12.28671545,-168.34681322,-0.03319949,-0.05154230,-0.07170781,0.99733056,0.03896645,0.03450039,0.05121618
1761620312931,-9.88319074,0.98189237,35.56144724,0.00000763,-0.01200268,-0.01697192,0.99733666,0.03896649,0.03444338,0.05113556
1761620312942,-0.28472271,-0.35137433,1.83198517,-0.10581242,0.01280996,-0.03014321,0.99736632,0.03836336,0.03451640,0.05096374
1761620312963,-0.27574793,0.58681223,1.87045007,-0.11744697,0.01186022,-0.01643806,0.99741675,0.03714778,0.03463915,0.05079361
1761620312974,0.59153629,-0.90526140,-2.96135420,-0.19510352,-0.01405507,-0.05445787,0.99747506,0.03605520,0.03456044,0.05048864
1761620312976,57.63884793,-43.29114199,-207.94347089,-1.18842251,-0.21298424,-0.51073292,0.99754293,0.03498562,0.03436876,0.05002899
1761620312987,-9.19876388,7.55835057,33.23512251,-0.15044902,-0.07535248,-0.09092176,0.99761197,0.03414311,0.03394678,0.04951982
1761620313007,-0.25536333,0.15912844,1.58033201,-0.07358020,-0.05531883,-0.03780053,0.99767425,0.03340730,0.03339359,0.04914182
1761620313018,1.25337238,-1.09816324,-2.50743440,-0.16395906,-0.07795768,-0.08036702,0.99773997,0.03250553,0.03296483,0.04869980
1761620313030,-0.30304333,-0.42177766,0.54400855,-0.18201234,-0.07029781,-0.08516220,0.99781239,0.03143166,0.03255007,0.04819734
1761620313041,0.25273834,0.55016803,0.13952101,-0.23393399,-0.06310056,-0.06783679,0.99788192,0.03013332,0.03219986,0.04782085
1761620313043,70.17554062,-53.78435628,-173.97220036,-0.82589193,-0.50601306,-0.52100879,0.99794429,0.02934873,0.03171915,0.04732589
1761620313064,-7.05259875,5.51368918,17.37601419,-0.02946725,-0.04144109,-0.02059999,0.99797684,0.02904374,0.03129023,0.04711268
1761620313065,147.01891434,-138.78186518,-285.78438061,-0.38066684,-0.62737938,-0.32055272,0.99800880,0.02877727,0.03085107,0.04688829
1761620313076,-17.14013671,16.23370088,35.60313160,-0.16559764,-0.02939804,0.05982391,0.99802439,0.02784993,0.03068644,0.04722331
1761620313097,-0.61297762,0.54016628,0.99367828,-0.14670712,0.00841149,0.09527929,0.99801583,0.02633884,0.03077308,0.04820468
1761620313107,1.81210330,-0.22715395,-0.96792498,-0.23891479,0.08196740,0.20570363,0.99798304,0.02512038,0.03119111,0.04925377
1761620313119,-0.67120641,1.58004992,-0.14338900,-0.10228638,0.06881052,0.14305069,0.99794292,0.02451177,0.03160053,0.05010492
1761620313121,45.71836061,39.10456657,-83.63890400,0.38790477,0.08469880,0.42252435,0.99790764,0.02491907,0.03168947,0.05054857
1761620313141,-5.58448819,-3.55816748,8.88550899,0.13883644,-0.00420216,-0.00461482,0.99787551,0.02631438,0.03164724,0.05050220
1761620313170,-0.05196355,-0.26284496,0.25363828,0.12376178,-0.00955510,0.01055303,0.99782246,0.02813368,0.03150678,0.05065732
1761620313188,1.91872861,0.23455470,-1.21320235,0.33999256,-0.07483983,0.02320648,0.99774522,0.03107461,0.03085941,0.05085806
1761620313197,3.09695036,1.51684872,-0.08056498,0.08734922,0.06672462,0.34496709,0.99764208,0.03147205,0.03116301,0.05242766
1761620313208,-2.39570670,-2.50708711,0.67005516,0.17671225,0.06659733,0.21121961,0.99753578,0.03246164,0.03153595,0.05361049
1761620313220,-0.83610577,-0.75521797,0.93115810,0.06064762,0.04640358,0.14850456,0.99746559,0.03283159,0.03181902,0.05451637
1761620313232,-0.12362390,0.77819720,0.48592498,-0.03629461,0.02201752,0.11841449,0.99743094,0.03262290,0.03194562,0.05519725
1761620313242,-0.05874309,0.13608767,-0.73860739,-0.00093134,0.00201995,0.03652796,0.99742034,0.03261810,0.03195602,0.05538537
1761620313254,-0.29496905,0.56565740,-0.20941999,0.04309192,0.01170262,0.01154198,0.99740575,0.03287665,0.03202624,0.05545462
1761620313274,-0.52300306,-0.31556116,0.33832175,0.06153635,0.00390222,0.03850943,0.99736232,0.03349509,0.03206545,0.05584164
1761620313277,39.74446923,-11.68449871,-26.69612213,0.45917373,0.15250527,0.26713088,0.99731084,0.03416089,0.03228659,0.05622898
1761620313297,-5.56400551,1.23985480,4.13242537,0.02018107,0.02951641,0.04061801,0.99727093,0.03436472,0.03258470,0.05663922
1761620313299,96.21619416,-27.55157720,-4.56291611,-0.30467953,0.21686517,0.33876332,0.99725578,0.03407528,0.03279072,0.05696105
1761620313319,-9.07618854,3.28528586,1.13838613,-0.05916899,0.02698938,0.05777018,0.99723419,0.03349542,0.03305522,0.05752720
1761620313320,285.86188942,-32.40401993,-3.37502933,-0.12715000,-0.17482229,0.89127199,0.99720714,0.03341277,0.03294158,0.05810652
1761620313330,-35.79913916,4.16799916,-0.11110360,0.04479328,-0.06190978,0.05619282,0.99719379,0.03363002,0.03264132,0.05837906
1761620313342,-0.58386417,0.19380413,-0.26973745,0.07758056,-0.10950657,0.03382356,0.99718726,0.03410326,0.03197333,0.05858538
1761620313353,0.42260412,0.01269932,-0.22015258,0.23266731,-0.16130266,-0.03862549,0.99718313,0.03539457,0.03107810,0.05837101
1761620313364,-0.48908173,1.41664500,-0.32069688,0.23499564,-0.13324189,-0.00149570,0.99716059,0.03662829,0.03037858,0.05836316
1761620313374,-0.32389512,-0.44262369,0.08357265,0.29052553,-0.06732584,0.10259140,0.99708016,0.03819713,0.03001502,0.05891715
1761620313386,-1.18898442,0.16630261,-0.25184271,0.26506657,-0.05628386,0.00024598,0.99702843,0.03977428,0.02968013,0.05891862
1761620313398,0.95319670,-0.97523937,1.03433217,0.32773848,-0.03865819,-0.05550728,0.99697780,0.04162600,0.02946172,0.05860500
1761620313408,1.46804675,-1.49596554,0.46675734,0.18204591,-0.08978701,0.02801160,0.99694362,0.04255443,0.02900380,0.05874786
1761620313419,0.37164509,0.90365817,2.41973396,-0.22304239,-0.12194311,0.06343545,0.99699434,0.04131655,0.02832702,0.05909993
1761620313431,-1.09635610,0.45084679,-0.39771293,-0.22575702,-0.16549339,-0.04303567,0.99709093,0.03998458,0.02735061,0.05884602
1761620313442,-0.79995165,1.57404307,-0.34756276,-0.18013629,-0.19480067,-0.10232421,0.99719385,0.03897582,0.02625972,0.05827300
1761620313453,0.32652451,0.31333064,-0.64121567,-0.03182858,-0.13844238,-0.05945890,0.99724196,0.03879121,0.02545676,0.05792814
1761620313464,-0.14447916,-0.43397462,-0.36625001,0.16191362,-0.12853049,-0.05020383,0.99724080,0.03964126,0.02478197,0.05766457
1761620313475,0.20206944,-1.41603372,0.22899257,0.16863189,-0.05800900,-0.02886323,0.99722093,0.04055187,0.02446872,0.05750871
1761620313487,-0.51147337,0.00923453,0.42453451,0.08165333,-0.05448002,-0.07197471,0.99723335,0.04102954,0.02415001,0.05708765
1761620313498,0.48131159,1.04545444,0.87018990,0.07987779,-0.06391308,-0.10149168,0.99725622,0.04148485,0.02378571,0.05650915
1761620313509,-0.29735622,-0.54152330,-0.47701790,0.10517657,-0.15210742,-0.13939200,0.99729405,0.04205280,0.02296433,0.05575644
1761620313519,-0.07748926,-0.41184221,0.67524110,0.05809342,-0.13520172,-0.08374478,0.99732198,0.04236070,0.02224776,0.05531259
1761620313532,-0.25518496,-0.11598399,-0.58307752,-0.00355608,-0.09755259,0.01576774,0.99733093,0.04233829,0.02163318,0.05541192
1761620313542,0.64070131,0.05419662,0.70505324,0.07643824,-0.03209412,0.05038713,0.99730327,0.04273195,0.02146790,0.05567142
1761620313553,-0.65197017,0.14968279,-1.02436313,0.12183232,0.05519733,0.06662155,0.99724774,0.04339594,0.02176872,0.05603451
1761620313564,0.40228729,-0.85085924,0.33025013,0.15073412,0.11111393,0.10134491,0.99716631,0.04422497,0.02237985,0.05659190
1761620313575,0.38065682,0.34300058,0.09214500,0.02718627,0.08141769,-0.01880300,0.99715548,0.04437314,0.02282357,0.05648943
1761620313586,-0.49472915,1.61416840,-0.48850406,0.03069397,-0.02776394,-0.10284101,0.99718382,0.04454503,0.02266810,0.05591352
1761620313597,0.40293956,0.05838585,-1.36087135,0.22117638,-0.07599066,-0.07175123,0.99715976,0.04578361,0.02224255,0.05551171
1761620313609,0.07602633,-0.63547323,-0.66713107,0.30477296,-0.11387167,0.04923991,0.99707856,0.04749034,0.02160487,0.05578745
1761620313619,0.57406568,-1.99624162,0.72353060,0.28445389,-0.05406542,0.14624009,0.99696494,0.04904062,0.02131021,0.05658446
1761620313631,-0.37703073,-1.46202938,0.38220399,0.10976209,0.01786580,0.14663332,0.99688471,0.04966077,0.02141115,0.05741294
1761620313642,-0.27187109,0.51104239,0.56387357,-0.03060314,0.06629701,0.02045357,0.99687848,0.04948633,0.02178904,0.05752953
1761620313653,0.14838845,-0.80804772,-0.45667385,-0.02738658,0.02999594,-0.05309567,0.99689932,0.04933434,0.02195552,0.05723484
1761620313664,0.29641942,-0.47981252,0.03504503,-0.05229670,-0.03833664,-0.09963166,0.99694808,0.04905455,0.02175042,0.05670182
1761620313675,-0.57986655,0.81833089,-0.02217179,-0.09854198,-0.14431290,-0.18304158,0.99704925,0.04850764,0.02094948,0.05568593
1761620313686,-0.39475197,0.73429430,0.01548047,-0.11941383,-0.19072943,-0.17824722,0.99715771,0.04784490,0.01989094,0.05469666
1761620313698,-0.47769105,-0.91214019,-0.15326784,-0.05937765,-0.09266244,-0.09543787,0.99721545,0.04749754,0.01934886,0.05413835
1761620313709,-0.31902416,-0.57125175,0.12244469,-0.16705229,-0.02381564,0.01341388,0.99725881,0.04654534,0.01921311,0.05421481
1761620313720,0.24629126,0.94040238,0.60333170,-0.22933638,0.09595204,-0.01762750,0.99730995,0.04532986,0.01972166,0.05412138
1761620313731,-1.07657140,1.52759466,-0.67473495,-0.12276282,0.08286639,-0.06243850,0.99735131,0.04463011,0.02019400,0.05376548
1761620313742,0.50643484,0.42827484,-0.09087842,-0.01943194,0.07706833,-0.05392602,0.99736303,0.04452615,0.02060631,0.05347698
1761620313755,-0.49086163,0.17953713,-0.23874221,0.02682682,0.01660466,-0.05816324,0.99737350,0.04470589,0.02071756,0.05308729
1761620313766,0.05635081,-0.13903796,0.54625062,-0.01300602,0.00876706,-0.06643249,0.99739372,0.04463891,0.02076271,0.05274516
1761620313777,1.09901701,-2.12715144,-0.16417448,-0.03443597,0.00349494,-0.03540830,0.99741322,0.04443745,0.02078316,0.05253802
1761620313788,-0.90933641,1.62710273,0.46639981,-0.04126611,-0.01642689,0.04094385,0.99741330,0.04421255,0.02069363,0.05276117
1761620313800,0.18483548,-2.11128343,1.77254900,-0.08981269,-0.04711928,-0.02627894,0.99744931,0.04370062,0.02042505,0.05261138
1761620313839,-0.36476967,0.70901726,-0.65433001,-0.04923942,-0.01130365,-0.03623408,0.99753305,0.04273307,0.02020294,0.05189938
1761620313869,0.23407293,-0.26530795,0.65339166,-0.00179840,0.02142209,-0.03974980,0.99755857,0.04270600,0.02052534,0.05130114
1761620313878,1.11682442,-3.60253712,7.62286231,0.23792898,-0.04586284,-0.16235063,0.99755362,0.04378858,0.02031666,0.05056245
1761620313899,-0.54870139,1.92261164,-2.93154485,-0.01662864,-0.05940694,-0.02946590,0.99758958,0.04361315,0.01968992,0.05025158
1761620313911,-0.55613739,0.45422181,0.01669809,0.07377361,-0.10199356,-0.09325416,0.99761005,0.04405579,0.01907796,0.04969206
1761620313932,-0.01994750,0.23881929,-0.81781985,0.05514762,-0.07383778,-0.01915411,0.99760886,0.04462657,0.01831374,0.04949381
1761620313943,-0.29977457,0.68383031,1.05229650,0.15510874,-0.12546739,-0.01760548,0.99758836,0.04544864,0.01764876,0.04940050
1761620313955,0.02967553,-0.22751657,-0.48416567,0.10062005,-0.07521933,0.01235233,0.99756349,0.04608758,0.01717112,0.04947894
1761620313966,-0.28990173,0.86247353,0.20831657,0.07002587,-0.06587440,0.02980097,0.99754402,0.04646572,0.01681539,0.04963986
1761620313976,-0.16265445,-0.16868390,-0.25175236,0.08022042,-0.05797744,0.00825898,0.99752804,0.04686682,0.01652551,0.04968116
1761620313988,0.14043711,-0.51781958,-0.36470381,0.09006522,-0.04597332,-0.02075019,0.99751385,0.04738470,0.01626116,0.04956185
1761620313999,-0.00992769,0.13286702,0.32014284,0.07962336,-0.07559583,-0.02538821,0.99750651,0.04782661,0.01584160,0.04942094
1761620314012,-0.21196999,-0.35722593,-0.25630093,0.08913177,-0.11470688,-0.07030607,0.99751266,0.04840596,0.01509601,0.04896395
1761620314022,-1.02834078,0.66090767,0.75454760,0.06120457,-0.17529557,-0.17740137,0.99755499,0.04872117,0.01419324,0.04805033
1761620314024,-44.93966344,56.61329928,77.74334306,0.16222219,-0.91475691,-0.61712601,0.99758414,0.04885905,0.01341569,0.04752578
1761620314044,4.47905376,-5.26265974,-7.50262931,0.03748245,-0.06380072,-0.01424033,0.99758088,0.04923200,0.01278088,0.04738409
1761620314045,-69.05858707,73.24444056,83.03569323,0.55561771,-0.82103470,0.01869909,0.99756726,0.04964872,0.01216510,0.04739811
1761620314055,8.60360163,-9.90814071,-11.99471864,0.06546680,-0.10446602,-0.05696010,0.99757070,0.04998260,0.01163232,0.04710761
1761620314066,0.24042210,-0.38602892,0.07384393,0.04070905,-0.07623707,-0.03835725,0.99757404,0.05019632,0.01123208,0.04690624
1761620314077,-0.04567060,-0.02964404,-0.28981947,0.01507874,-0.08468019,-0.02327227,0.99758132,0.05028302,0.01074517,0.04677242
1761620314087,-1.44069560,0.18005329,0.24376062,0.00517076,-0.09490705,-0.03905178,0.99759428,0.05030914,0.01026589,0.04657521
1761620314099,-0.01351161,0.28329512,-0.07796463,-0.04068950,-0.05941852,-0.03115936,0.99761725,0.05008128,0.00993314,0.04640072
1761620314109,-0.05358344,-0.61693733,0.38055925,-0.00308509,-0.01150121,0.00638326,0.99761710,0.05006462,0.00987104,0.04643519
1761620314121,0.40109172,-0.30221329,-0.12606302,-0.01613094,0.00238911,0.05199763,0.99760757,0.04997106,0.00988489,0.04673677
1761620314132,-0.16437510,-0.49363987,0.08955964,-0.04004087,0.00382955,0.05584808,0.99760383,0.04974483,0.00990653,0.04705232
1761620314144,-0.15608946,0.33541205,-0.09678219,-0.07872066,-0.00771147,0.06343579,0.99760932,0.04930399,0.00986335,0.04740756
1761620314154,-0.54987960,-0.22074211,-0.15755233,-0.07405093,0.01112247,0.10084231,0.99760251,0.04891152,0.00992230,0.04794202
1761620314165,0.56969737,-0.53329367,-0.32950217,-0.02266753,0.01405735,0.07567683,0.99758735,0.04878345,0.01000172,0.04836959
1761620314177,-0.24273173,-0.31450097,-0.47612763,0.02930509,0.01776533,0.04746934,0.99756519,0.04894902,0.01010209,0.04863780
1761620314188,0.31830859,0.21515701,-0.00926431,0.02935688,0.03544065,0.07640227,0.99753440,0.04911195,0.01029879,0.04906183
1761620314200,0.00733871,0.19789626,0.26893687,0.05518470,0.04088371,0.06308045,0.99749680,0.04944306,0.01054409,0.04944031
1761620314210,-0.69659546,-0.21155393,0.04063910,0.07689210,0.05885250,0.06562219,0.99745703,0.04983906,0.01084718,0.04977827
1761620314221,0.21710643,0.43480759,-0.11234365,0.07149786,0.07266230,0.03371514,0.99742422,0.05022514,0.01123956,0.04996033
1761620314232,-0.08887393,-0.29825191,-0.34581334,0.08306037,0.08275637,0.01820895,0.99738963,0.05069859,0.01171127,0.05006412
1761620314243,0.15223944,0.19595556,0.19254625,0.06332696,0.07970760,0.00679263,0.99736475,0.05104689,0.01214966,0.05010148
1761620314254,-0.16258011,0.22213704,-0.36827685,0.04810829,0.06503896,-0.05168856,0.99736095,0.05131389,0.01251063,0.04981461
1761620314267,0.26611489,0.24675416,-0.29034974,0.09633785,0.05256355,-0.04558057,0.99734015,0.05190636,0.01283389,0.04953429
1761620314277,-1.11280464,0.83868459,-0.67708186,0.09563565,0.05904284,-0.07045274,0.99732816,0.05240845,0.01314387,0.04916441
1761620314288,0.25519587,-0.33006101,-0.12333389,0.09761421,0.06500272,-0.02379018,0.99730244,0.05292581,0.01348838,0.04903832
1761620314300,0.81434690,-0.37684006,0.22011233,0.05829554,0.06717437,-0.01897752,0.99728388,0.05327558,0.01389143,0.04892446
1761620314310,-0.78360240,-0.83431602,-0.20583471,0.03827429,0.07119177,-0.05512768,0.99728210,0.05346695,0.01424739,0.04864882
1761620314322,0.44797977,0.09725688,0.11014295,-0.01886755,0.03968967,-0.03958642,0.99729617,0.05335469,0.01448354,0.04841328
1761620314333,0.41074377,0.17176816,0.07618021,-0.03181006,0.05131588,-0.04191096,0.99731358,0.05316860,0.01478374,0.04816810
1761620314344,-0.86605039,-0.07780156,-0.73256695,-0.03372704,0.02043785,-0.05474065,0.99733504,0.05299322,0.01489002,0.04788345
1761620314356,0.69492433,-0.41024972,0.20260943,-0.02272757,0.00970827,-0.02137756,0.99734735,0.05285913,0.01494730,0.04775732
1761620314367,0.39951049,0.04650215,-0.27119812,-0.06539158,0.01566623,-0.01135780,0.99736860,0.05248967,0.01503581,0.04769315
1761620314378,0.36110332,-0.04944160,-0.41125359,-0.09163459,0.00521659,0.01245829,0.99739108,0.05199026,0.01506424,0.04776105
1761620314389,-0.21898572,0.02589767,-0.12095373,-0.10578454,-0.02688707,0.02362797,0.99741723,0.05140844,0.01491636,0.04789100
1761620314399,-0.18140460,-0.60806542,0.27438314,-0.10546859,-0.03538584,0.00649673,0.99744701,0.05084946,0.01472882,0.04792543
1761620314411,0.05216968,0.03051790,0.44263009,-0.08694533,-0.03887736,0.01975510,0.99747119,0.05032779,0.01449555,0.04804396
1761620314422,-0.63133716,-0.23177078,-0.59593187,-0.10268320,-0.06468845,0.01556992,0.99749838,0.04980410,0.01416564,0.04812337
1761620314433,0.63878676,0.19122142,0.47045851,-0.11790986,-0.04535038,0.04236932,0.99752433,0.04911433,0.01390034,0.04837123
1761620314444,-0.18498196,-0.23850594,-0.32858550,-0.08570964,-0.06849682,0.06363456,0.99753557,0.04864293,0.01352361,0.04872122
1761620314455,0.09852007,0.44167781,0.26600420,-0.10192373,-0.03949073,0.05251597,0.99755152,0.04808235,0.01330641,0.04901006
1761620314467,0.09358103,-0.53270563,-0.42316327,-0.09475573,-0.04213250,0.08928402,0.99755548,0.04753750,0.01306415,0.04952344
1761620314502,0.51432743,0.31124101,0.40156147,-0.04284375,-0.01425128,0.01901459,0.99757784,0.04677917,0.01281190,0.04986000
1761620314512,-8.54913597,-3.75065083,-5.68164390,-0.40029127,-0.10273539,0.11901115,0.99764226,0.04489780,0.01232904,0.05041935
1761620314522,5.05290404,2.92405198,4.15817332,-0.09990082,-0.05430120,-0.01158465,0.99767313,0.04435833,0.01203582,0.05035680
1761620314533,0.48909743,-0.06819436,0.46658377,-0.10303541,-0.01700899,0.01714517,0.99769452,0.04379164,0.01194227,0.05045109
1761620314544,-0.17001271,0.04994775,-0.04953694,-0.12008245,-0.00766280,0.02272145,0.99771623,0.04316721,0.01190242,0.05056925
1761620314555,0.68056147,0.46078322,0.40145725,-0.10420353,0.00453407,0.01434351,0.99773784,0.04255762,0.01192895,0.05065315
1761620314567,-0.25091048,-0.21478388,-0.30265430,-0.05312418,-0.01116773,-0.00121303,0.99775182,0.04225481,0.01186529,0.05064624
1761620314577,-0.14386815,0.42334947,-0.49401696,-0.00989977,0.01844275,-0.03989666,0.99776326,0.04220383,0.01196027,0.05044077
1761620314590,0.30685230,0.08615940,0.32923719,-0.00934717,0.02063583,-0.00357242,0.99776541,0.04214214,0.01209647,0.05041719
1761620314601,-0.80927650,0.19678072,-0.48062158,0.03319057,0.02426173,0.02059186,0.99775102,0.04231639,0.01222384,0.05052530
1761620314602,-182.37509749,10.91475417,-69.37181212,0.28661808,0.20338939,-0.09274258,0.99774452,0.04250269,0.01235604,0.05046502
1761620314612,23.87156852,-1.52912277,9.84008495,-0.00136910,0.01615891,-0.01351721,0.99774723,0.04249584,0.01243684,0.05039743
1761620314623,0.14717295,0.19826283,-0.12686493,0.01207004,0.01437623,-0.02890062,0.99775139,0.04256162,0.01251519,0.05023993
1761620314634,-0.32314123,-0.06554672,0.26030503,-0.00725986,0.01384274,-0.05636965,0.99776725,0.04252278,0.01258925,0.04993835
1761620314645,-0.04114923,0.03158321,-0.19625641,-0.03489990,0.00717313,-0.03421204,0.99778540,0.04231862,0.01263121,0.04973821
1761620314655,-0.68615677,-0.56446463,-0.35449195,-0.01738117,0.03568865,-0.00214612,0.99778728,0.04223432,0.01280430,0.04972780
1761620314667,1.09868686,0.04701778,0.26536889,-0.05483952,0.01448693,0.04311098,0.99778711,0.04191077,0.01288977,0.04998215
1761620314678,0.21579325,-0.38912261,-0.27278878,-0.03053600,0.01668938,0.01612887,0.99778857,0.04173671,0.01298490,0.05007409
1761620314689,-0.15814531,0.09812137,0.16277133,-0.03437545,-0.02061879,0.03670655,0.99778779,0.04155109,0.01287356,0.05027230
1761620314700,-0.34996892,0.30043729,0.11575525,-0.03929166,-0.04238178,0.04074741,0.99778840,0.04134480,0.01265106,0.05048623
1761620314712,0.33492134,0.04445957,-0.07663454,-0.01164284,-0.04830940,0.01977763,0.99778892,0.04127495,0.01236120,0.05060489
1761620314722,-0.31747194,0.17566171,0.06015337,-0.06443067,-0.03129570,0.07231108,0.99778562,0.04094313,0.01220003,0.05097729
1761620314733,0.35999606,-0.23425541,-0.11832038,-0.03382838,-0.01598010,0.04948555,0.99778031,0.04075538,0.01211134,0.05125194
1761620314745,0.25360597,-0.20201831,0.25635134,-0.02122144,-0.01991528,0.03557362,0.99777600,0.04062911,0.01199284,0.05146360
1761620314756,-0.35142491,0.24659472,-0.14480834,-0.01052234,-0.02950140,-0.02186245,0.99778620,0.04057282,0.01183501,0.05134664
1761620314767,-0.03374598,0.47327726,-0.18361356,0.00146705,-0.03104799,-0.00574446,0.99778954,0.04058096,0.01166269,0.05131476
1761620314778,-0.29025880,-0.00054424,-0.63082913,0.03755361,-0.02673618,-0.00411125,0.99778394,0.04078938,0.01151431,0.05129194
1761620314789,0.19510001,-0.13423613,0.20492864,0.06207012,-0.00410861,0.01774768,0.99776482,0.04113698,0.01149130,0.05139133
1761620314800,0.42521399,-0.13016823,0.53747741,0.00943080,-0.01964310,0.02044980,0.99775793,0.04119026,0.01138032,0.05150687
1761620314811,0.13780187,-0.11232241,0.06224419,-0.02387960,-0.00613702,-0.02784768,0.99777138,0.04106131,0.01134718,0.05135649
1761620314822,0.04754361,-0.00380241,0.09921919,-0.03818526,-0.03893820,-0.01989508,0.99778849,0.04084556,0.01112717,0.05124408
1761620314833,-0.12335122,-0.27899533,-0.20916076,-0.01196358,-0.02551524,-0.05039703,0.99780677,0.04078036,0.01098812,0.05096942
1761620314845,0.49122161,0.09251887,0.40003065,-0.04854209,-0.02184653,0.00201777,0.99781923,0.04049396,0.01085922,0.05098132
1761620314856,0.15050411,-0.05494410,-0.33673807,-0.04604927,-0.04016476,-0.02054023,0.99783746,0.04024300,0.01064032,0.05086938
1761620314867,-0.29481017,0.09390577,0.08228755,-0.01642502,-0.06408062,-0.06516237,0.99786207,0.04015594,0.01030070,0.05052402
1761620314878,0.46462284,0.09893774,-0.22666160,-0.00836840,-0.04959004,-0.02094960,0.99787310,0.04010741,0.01001307,0.05040251
1761620314891,-0.13572756,-0.15492429,0.16384662,-0.03894250,-0.03543643,0.05033019,0.99786908,0.03986207,0.00978983,0.05071959
1761620314901,0.23862571,0.04020248,0.11511416,-0.01430100,-0.07029341,0.01812331,0.99787077,0.03978770,0.00942430,0.05081383
1761620314911,-0.05155229,-0.03533694,0.05300249,-0.05264461,-0.06610092,0.00212397,0.99788363,0.03952711,0.00909710,0.05082435
1761620314922,0.16019286,-0.11748204,0.13853687,-0.04436854,-0.04639058,-0.00857657,0.99789822,0.03927865,0.00883731,0.05077632
1761620314934,0.01651098,0.05195513,0.01310395,-0.04231574,-0.04188527,-0.02789029,0.99791785,0.03903745,0.00859857,0.05061734
1761620314945,0.00000000,0.04666646,-0.01834554,-0.02738874,-0.05556826,-0.01667820,0.99793144,0.03888133,0.00828183,0.05052228
1761620314956,0.17711702,0.05263071,0.06210787,0.00138260,-0.07271759,-0.00814149,0.99793651,0.03888873,0.00789279,0.05047872
1761620314968,0.16077171,0.45266013,-0.04714458,0.00630281,-0.06286108,0.00094811,0.99793768,0.03892749,0.00750619,0.05048455
1761620314978,-0.08974678,0.27508933,-0.16230063,0.02326161,-0.04946031,-0.00049927,0.99793502,0.03904729,0.00725147,0.05048198
1761620314989,0.00986632,0.16326811,0.17086119,0.00713781,-0.02809232,0.00487733,0.99793328,0.03908548,0.00710118,0.05050807
1761620315001,0.19209398,-0.35042845,0.19530518,0.03742422,-0.00523620,0.00068938,0.99792440,0.03931189,0.00706950,0.05051224
1761620315011,-0.10344418,-0.03762919,-0.07236548,0.01126536,-0.02678709,-0.00639773,0.99792475,0.03936935,0.00693288,0.05047962
1761620315023,0.03115606,-0.13608926,0.08579816,0.01005118,-0.02284491,-0.03580611,0.99793360,0.03942614,0.00680381,0.05027731
1761620315034,0.01052931,-0.15383296,0.01063023,0.02706013,0.00575821,-0.03081562,0.99793607,0.03957767,0.00683606,0.05010474
1761620315045,0.05304755,0.04545958,0.19858657,-0.03367673,-0.02546650,-0.00369707,0.99794562,0.03938740,0.00669217,0.05008386
1761620315057,0.07077694,-0.09563923,0.10391510,-0.00333993,-0.01172733,-0.04256881,0.99795931,0.03936786,0.00662357,0.04983483
1761620315068,0.27879781,0.35295915,0.14981110,-0.02172314,-0.00895744,-0.02195088,0.99797006,0.03925164,0.00657564,0.04971739
1761620315078,0.26655235,0.09859053,0.06039077,0.01766096,0.00012805,0.01040942,0.99796356,0.03934613,0.00657633,0.04977308
1761620315090,0.02437106,-0.07627169,-0.08968620,0.02565479,-0.01491710,-0.01400953,0.99796235,0.03948979,0.00649279,0.04969463
1761620315102,-0.26514592,-0.10429374,-0.09735431,0.02147596,-0.02100204,-0.02592045,0.99796587,0.03962187,0.00636363,0.04953522
1761620315112,0.07111152,-0.07571000,-0.02168471,0.01529125,-0.01921109,-0.00258737,0.99796401,0.03970139,0.00626373,0.04952176
1761620315123,0.10063040,-0.06614434,0.08773713,0.02975919,-0.02551416,0.01001507,0.99795577,0.03986209,0.00612596,0.04957584
1761620315134,0.05332162,-0.06490677,-0.07401599,0.03312834,-0.02814304,-0.03408460,0.99795874,0.04004595,0.00596976,0.04938667
1761620315146,0.08006973,0.01805781,-0.05099776,0.04230092,-0.03470021,0.01139471,0.99794688,0.04028918,0.00577024,0.04945219
1761620315183,-0.02465961,0.02500100,0.00563306,0.00923239,-0.00787363,0.00187247,0.99793904,0.04046090,0.00562379,0.04948702
1761620315192,1.72111582,-0.75803434,-1.49475016,0.11112022,-0.13453607,-0.17511206,0.99796086,0.04096650,0.00501165,0.04869026
1761620315202,-0.91591327,0.24847225,1.06629206,-0.02497359,-0.04961936,-0.00205262,0.99796804,0.04083539,0.00475115,0.04867949
1761620315213,-0.16210695,-0.05817492,0.13665869,-0.02473619,-0.04837818,-0.02562669,0.99798083,0.04070800,0.00450200,0.04854751
1761620315223,-0.00965789,-0.17236375,0.04975911,-0.01997430,-0.04281328,-0.01730222,0.99799050,0.04060313,0.00427723,0.04845667
1761620315235,-0.13938161,0.06240099,-0.01710592,-0.01218313,-0.03343176,-0.03536365,0.99800366,0.04053490,0.00409001,0.04825864
1761620315246,-0.04561580,-0.11308917,-0.05131777,-0.02511403,-0.03058466,-0.00294793,0.99801084,0.04039427,0.00391874,0.04824213
1761620315257,-0.01952489,0.04989228,0.02607687,-0.04590868,-0.02699980,0.01481760,0.99801791,0.04013259,0.00376484,0.04832659
1761620315268,0.14816191,-0.22187293,-0.16945554,-0.02401221,-0.00470098,-0.00530652,0.99802447,0.04000532,0.00373992,0.04829846
1761620315280,-0.05813282,0.05239548,-0.06218306,-0.02192771,-0.01365396,-0.00557898,0.99803160,0.03987485,0.00365868,0.04826527
1761620315291,0.11247425,-0.01347581,-0.03007512,-0.02464526,-0.02018041,0.00828435,0.99803527,0.03973684,0.00354567,0.04831166
1761620315302,0.06377473,0.10518822,0.19900319,-0.01008324,-0.01564760,-0.03754591,0.99804741,0.03968289,0.00346196,0.04811079
1761620315312,-0.01770416,-0.13920165,0.18780663,-0.04415174,-0.04071707,-0.04256658,0.99806885,0.03944227,0.00324005,0.04787880
1761620315323,0.06634288,-0.05523395,0.16341678,-0.06172949,0.00619888,0.00589197,0.99808054,0.03910275,0.00327414,0.04791121
1761620315335,-0.08063306,0.12066746,-0.02319368,-0.05949738,-0.00383895,0.01046672,0.99809134,0.03875172,0.00325149,0.04797296
1761620315346,0.11753849,0.02194973,-0.10173469,-0.05139794,-0.01650020,0.03765503,0.99809253,0.03848445,0.00316569,0.04816877
1761620315358,0.03283782,0.15879827,-0.01389292,-0.00934207,-0.01334749,-0.00397571,0.99809615,0.03842746,0.00308427,0.04814452
1761620315368,-0.06056442,-0.07861563,-0.57445863,-0.00121219,-0.05531770,-0.07151846,0.99811511,0.03842116,0.00279662,0.04777262
1761620315380,0.00487343,0.07673486,0.05212591,-0.00668351,-0.05603848,-0.05382235,0.99813265,0.03838173,0.00246599,0.04745507
1761620315391,0.12718590,0.20428204,0.14754664,-0.04258588,-0.06181285,-0.05054943,0.99815455,0.03815815,0.00214148,0.04718968
1761620315401,-0.03803215,0.15677273,0.46081970,0.00396346,-0.03718461,-0.02907772,0.99816162,0.03817975,0.00193882,0.04703121
1761620315413,-0.07119336,0.18152873,0.04062357,0.01519704,-0.00956700,0.02244706,0.99815204,0.03826942,0.00188237,0.04716365
1761620315424,-0.02431213,0.11686053,0.01014204,0.03687532,-0.02520824,-0.00634496,0.99814636,0.03846485,0.00174877,0.04713002
1761620315435,-0.04523477,0.01200558,0.03248166,0.03113695,-0.01256975,-0.00923543,0.99814215,0.03864078,0.00167775,0.04707784
1761620315447,0.14010506,-0.18704372,0.10382263,0.00401593,-0.03111158,0.01128190,0.99813841,0.03866427,0.00149575,0.04714384
1761620315458,-0.02135609,-0.06492633,-0.01223430,0.00860541,-0.02643338,-0.02294107,0.99814293,0.03871375,0.00134376,0.04701193
1761620315470,0.23143131,0.03562180,-0.26122481,0.01259834,-0.03907007,-0.00801480,0.99814258,0.03878493,0.00112301,0.04696664
1761620315480,0.12336686,0.07107896,-0.05611202,-0.01061125,-0.03301988,0.00176768,0.99814454,0.03872763,0.00094470,0.04697619
1761620315491,0.13781043,-0.03631505,0.10188828,-0.00078097,-0.04703606,0.01583196,0.99814102,0.03872357,0.00070012,0.04705851
1761620315502,-0.42772492,0.08784663,0.29781317,-0.00525114,-0.04926615,0.00036051,0.99814223,0.03869390,0.00042176,0.04706055
1761620315514,-0.01186809,0.14315348,0.05809196,0.05720577,-0.00364760,0.00549108,0.99812769,0.03902856,0.00040042,0.04709267
1761620315524,0.21578222,-0.02344449,-0.00433482,0.04676395,-0.05043970,0.05373269,0.99810566,0.03926471,0.00014570,0.04736402
1761620315535,-0.22912545,-0.13893584,0.04268603,-0.01702382,-0.04687668,-0.00491569,0.99811076,0.03916853,-0.00011915,0.04733625
1761620315546,-0.13942697,-0.26353829,0.12531645,-0.03693038,-0.03672398,-0.04094020,0.99812949,0.03896357,-0.00032297,0.04710903
1761620315557,0.05260200,-0.01257260,0.15972379,-0.05975793,-0.01045210,0.00604942,0.99814088,0.03862892,-0.00038150,0.04714291
1761620315569,0.01900658,-0.10964423,-0.11594016,0.00243866,-0.01893512,0.02007324,0.99813498,0.03864258,-0.00048754,0.04725532
1761620315580,0.04357835,0.15151457,0.01462059,0.02116237,-0.00745849,0.02146027,0.99812458,0.03876215,-0.00052968,0.04737657
1761620315591,0.08527732,0.14731784,0.06317586,0.00884558,-0.01141003,0.06681243,0.99810479,0.03881168,-0.00059357,0.04775072
1761620315602,0.04941712,0.04929833,0.00570198,0.01721941,-0.04314950,0.03240261,0.99809216,0.03890811,-0.00083521,0.04793217
1761620315614,-0.18374724,0.10214973,0.05780201,0.00219451,-0.04728635,-0.04055971,0.99810276,0.03892095,-0.00111184,0.04769490
1761620315624,-0.08425377,-0.07836029,0.24247452,0.00071819,-0.02486776,-0.01877646,0.99810712,0.03892468,-0.00124115,0.04759726
1761620315636,-0.06587106,-0.06841382,0.06680713,0.00140536,0.00682086,-0.01475539,0.99811090,0.03893276,-0.00120193,0.04751242
1761620315647,0.03187039,0.15442992,0.07040459,0.00902630,-0.00638942,0.00613047,0.99810741,0.03898105,-0.00123611,0.04754522
1761620315658,0.01467237,0.08672919,-0.06027041,0.03837577,-0.01545995,0.05741666,0.99808351,0.03919596,-0.00132269,0.04786675
1761620315670,0.00972748,-0.27288326,-0.19129344,0.03557583,-0.00051499,0.02928281,0.99806596,0.03941831,-0.00132591,0.04804977
1761620315681,-0.14992616,-0.02390445,0.29677978,-0.00516091,0.00795667,-0.01068285,0.99806982,0.03939095,-0.00128374,0.04799315
1761620315692,-0.04296372,-0.05600904,-0.19858187,0.03714280,0.03820768,0.03312645,0.99805351,0.03959153,-0.00107741,0.04817203
1761620315703,-0.00854056,0.36646182,-0.00631033,0.05231911,0.01773373,0.02326358,0.99803549,0.03988713,-0.00097722,0.04830347
1761620315715,-0.02983373,0.02418257,0.07519058,0.03964754,0.00512080,-0.03886459,0.99803717,0.04011510,-0.00094777,0.04808000
1761620315725,0.00959736,-0.11026607,0.13254832,-0.02447842,-0.01483009,-0.03374848,0.99805129,0.03998169,-0.00102860,0.04789607
1761620315738,-0.09364336,0.15846647,0.31023332,-0.01812269,0.00362171,-0.04018152,0.99806522,0.03988655,-0.00100958,0.04768512
1761620315747,0.05713324,-0.08784563,-0.14828434,0.00351106,-0.00202342,-0.02087976,0.99807008,0.03990656,-0.00102112,0.04756610
1761620315759,-0.03901882,0.16973907,0.00444537,0.01461869,0.00156774,-0.00608130,0.99806833,0.03999354,-0.00101179,0.04752992
1761620315770,0.36724979,0.00552352,0.17284413,0.02423592,0.01166879,0.00868330,0.99806118,0.04011957,-0.00095111,0.04757507
1761620315781,-0.03654549,0.03058683,-0.06871092,0.06620673,0.00816965,0.03076461,0.99803865,0.04048040,-0.00090659,0.04774274
1761620315792,-0.18023123,-0.08482723,-0.09351588,0.04287177,0.00328889,-0.01220260,0.99803217,0.04072048,-0.00088817,0.04767440
1761620315803,-0.45845234,0.10864746,0.01467339,0.02322925,0.01414507,-0.00529751,0.99802847,0.04084592,-0.00081179,0.04764580
1761620315814,-0.00397762,-0.24969312,-0.10465442,0.00928878,0.01405273,0.02616542,0.99801948,0.04089747,-0.00073379,0.04779102
1761620315849,0.02585509,-0.03329332,-0.25411613,0.00001847,0.00302389,-0.00263603,0.99802174,0.04089780,-0.00068012,0.04774423
1761620315860,-0.73831206,0.39398120,2.93443440,0.04063394,0.08742725,0.06117354,0.99799616,0.04112535,-0.00019053,0.04808680
1761620315870,0.59435633,0.16194085,-3.22389017,0.04624806,0.06546793,0.00944061,0.99798529,0.04133809,0.00011063,0.04813023
1761620315881,0.19601572,0.10206484,-0.50879797,-0.01476116,0.03187252,0.02907281,0.99798081,0.04125543,0.00028911,0.04829303
1761620315892,0.12353333,-0.22580706,-0.04534885,0.01955060,0.02032686,0.02093280,0.99797101,0.04136002,0.00039786,0.04840502
1761620315903,-0.17748191,-0.40221560,0.62267701,0.03537106,0.00659248,-0.01040954,0.99796540,0.04156517,0.00043610,0.04834465
1761620315914,0.07162876,0.02541564,0.03714283,0.01279714,-0.00436729,0.00846470,0.99796036,0.04163364,0.00041273,0.04838993
1761620315925,0.11571534,0.08830392,0.01208036,0.00443215,-0.01000840,0.00696341,0.99795738,0.04165912,0.00035518,0.04842997
1761620315936,-0.10999980,0.11368360,0.09355124,0.00579816,-0.00568412,-0.01186859,0.99795922,0.04169101,0.00032392,0.04836470
1761620315938,-2.27581371,11.49373765,41.58947958,0.13603416,-0.10676682,-0.08277070,0.99795790,0.04179984,0.00023851,0.04829848
1761620315948,0.35029360,-1.79618116,-6.70985560,0.00948807,-0.02862227,0.00891764,0.99795382,0.04184681,0.00009683,0.04834262
1761620315959,0.03666437,-0.13831713,-0.15508804,0.01282427,-0.01779700,0.00591172,0.99794916,0.04191926,-0.00000373,0.04837602
1761620315970,0.04115175,-0.48310256,-0.09355048,0.01588834,-0.01958825,-0.00101979,0.99794576,0.04200665,-0.00011146,0.04837041
1761620315981,-0.04852617,-0.08716126,-0.08346137,0.02802929,-0.02925002,0.00756754,0.99793728,0.04215941,-0.00027087,0.04841166
1761620315992,-0.02408066,0.16116482,-0.02809410,0.02149180,-0.02099833,0.01399679,0.99792859,0.04227654,-0.00038531,0.04848794
1761620316003,-0.14572078,0.41778591,0.06696962,0.02974845,-0.00802048,0.00457786,0.99792010,0.04244611,-0.00043103,0.04851403
1761620316014,-0.24788586,-0.05103955,-0.16642431,0.02976545,-0.03276660,0.01979778,0.99790751,0.04261279,-0.00061452,0.04862490
1761620316026,-0.03555670,0.03659496,0.02213223,0.01613622,0.01701687,0.01876129,0.99789865,0.04270235,-0.00052008,0.04872903
1761620316037,-0.01292298,-0.12048322,-0.14365443,0.03128917,-0.00442277,0.04071579,0.99787879,0.04288852,-0.00054640,0.04897129
1761620316048,-0.19274644,-0.13189293,-0.11391095,0.03997140,-0.00413952,-0.00347300,0.99787032,0.04310636,-0.00056896,0.04895236
1761620316060,0.05741407,-0.01154895,-0.08171589,0.01461472,0.01216758,0.01208272,0.99786326,0.04319113,-0.00049838,0.04902244
1761620316071,-0.12386059,0.40994272,-0.25527137,0.02227445,0.00127723,0.03519457,0.99784910,0.04330807,-0.00049168,0.04920721
1761620316081,-0.05100987,-0.03866273,-0.05739602,0.01225995,0.01043361,0.02098677,0.99784073,0.04337366,-0.00043586,0.04931949
1761620316092,0.14691978,-0.03537642,0.17590949,0.00809960,0.01467563,0.02465667,0.99783203,0.04341861,-0.00035441,0.04945633
1761620316103,-0.13363680,-0.46860280,-0.02069996,0.00822039,0.00522224,0.02858236,0.99782236,0.04346341,-0.00032595,0.04961211
1761620316114,0.04608635,0.18344611,0.13062534,-0.01124061,0.01903053,0.02122912,0.99781924,0.04340103,-0.00022033,0.04972993
1761620316126,-0.02384226,0.00275849,-0.16842253,0.00509830,0.02292965,0.01200478,0.99781454,0.04343034,-0.00008848,0.04979896
1761620316137,-0.03898334,-0.06944239,-0.06807697,-0.00777116,-0.01458021,0.02046905,0.99781053,0.04338488,-0.00017378,0.04991870
1761620316149,0.07571705,-0.09064301,0.05844420,-0.00640018,0.00177778,-0.00749711,0.99781428,0.04334808,-0.00016356,0.04987559
1761620316159,-0.02670250,-0.07937884,-0.03911353,-0.01890452,-0.00032357,0.01041825,0.99781585,0.04324883,-0.00016525,0.04993029
1761620316170,-0.23121187,0.17245519,-0.31331364,-0.01163253,-0.02474398,0.01584263,0.99781421,0.04318427,-0.00030258,0.05001821
1761620316181,-0.07155499,-0.02351062,-0.07882257,-0.00063545,-0.02927737,-0.00174274,0.99781478,0.04318081,-0.00046214,0.05000872
1761620316192,0.10434952,-0.02558570,0.14448395,-0.00585448,-0.00860713,0.00978012,0.99781346,0.04314890,-0.00050905,0.05006202
1761620316204,0.14451978,0.03429577,0.30604086,-0.04016856,-0.02975974,0.03509351,0.99781319,0.04292396,-0.00067571,0.05025854
1761620316215,0.01576321,-0.12474884,-0.05478420,-0.01422485,-0.00145220,0.04604444,0.99780376,0.04284572,-0.00068370,0.05051179
1761620316227,0.01236701,-0.03963892,-0.03806530,-0.02370271,0.00457806,0.03813691,0.99779831,0.04270469,-0.00065646,0.05073870
1761620316237,-0.19575129,-0.04572096,-0.24291490,-0.03565820,0.01010468,0.05813544,0.99779070,0.04251570,-0.00060290,0.05104682
1761620316248,0.05259125,-0.08850222,-0.13791477,0.01149521,-0.00475197,0.03908085,0.99777709,0.04257835,-0.00062880,0.05125981
1761620316260,0.06638705,-0.04821148,-0.12688964,0.02987786,-0.01617548,-0.00500607,0.99777111,0.04275164,-0.00072262,0.05123077
1761620316271,-0.08859192,0.10033035,-0.28526599,-0.02116118,-0.01242961,-0.02563042,0.99778393,0.04262891,-0.00079471,0.05108212
1761620316282,-0.12194206,0.02652573,0.01102650,-0.03021535,-0.00193312,-0.03398029,0.99780070,0.04246121,-0.00080544,0.05089353
1761620316294,-0.12259382,0.07551724,-0.02984103,-0.03844399,0.01037542,0.00418461,0.99780876,0.04224400,-0.00074682,0.05091717
1761620316304,-0.28286421,-0.34860658,0.33701297,-0.05019270,0.05906172,0.04436621,0.99780818,0.04199053,-0.00044855,0.05114122
1761620316315,-0.04475015,-0.00943625,0.10444212,-0.09778677,0.06379294,0.03243129,0.99782185,0.04144293,-0.00009131,0.05132283
1761620316326,-0.00530142,-0.12356333,0.02283946,-0.10146490,0.03282475,0.06836106,0.99782555,0.04086965,0.00009415,0.05170907
1761620316337,-0.11682275,-0.04911175,0.02661134,-0.09076578,0.03590777,-0.00232410,0.99784669,0.04036590,0.00029343,0.05169618
1761620316349,0.06847916,-0.00941389,0.14529075,-0.07708605,0.03690350,0.01496473,0.99786009,0.03991880,0.00050747,0.05178297
1761620316359,0.01002965,-0.17546761,0.21144292,-0.11771469,0.03852163,0.05355132,0.99786987,0.03930080,0.00070971,0.05206412
1761620316371,0.29168770,-0.61556779,0.06753673,-0.12236816,0.03290497,0.02854413,0.99788812,0.03861554,0.00089398,0.05222396
1761620316383,0.16533193,0.22263784,0.21251894,-0.08332035,0.00461935,0.00468946,0.99790584,0.03811561,0.00092170,0.05225210
1761620316393,-0.11991467,0.55815521,0.12652761,-0.08795265,0.01368616,0.01769400,0.99791832,0.03765826,0.00099286,0.05234411
1761620316404,0.32322163,1.29339214,0.25721318,-0.03558443,0.02862647,0.02653562,0.99791785,0.03746255,0.00115031,0.05249005
1761620316415,0.11092933,0.32315943,-0.06942586,0.02830633,-0.00377318,-0.00270667,0.99791270,0.03762106,0.00112918,0.05247490
1761620316468,0.12818197,-0.12333762,-0.08355365,-0.00658193,0.00033214,-0.01061097,0.99793376,0.03744861,0.00113788,0.05219689
1761620316493,-0.48582533,1.21007284,0.65579242,-0.00408407,0.00531129,0.00095843,0.99793501,0.03739593,0.00120640,0.05220925
1761620316529,0.55315683,-0.77300668,-0.25148916,0.01787031,-0.03884928,0.03186845,0.99789344,0.03771670,0.00050905,0.05278129
1761620316539,4.26379655,1.06616078,6.01570595,0.06382563,-0.21267964,-0.06890503,0.99789909,0.03801349,-0.00047991,0.05246088
1761620316560,-1.02150608,-0.94597625,-2.05447112,-0.00082835,-0.03414132,-0.01379799,0.99790683,0.03800475,-0.00084010,0.05231531
1761620316582,-0.33576268,0.17748839,-0.46115048,0.00737197,-0.04411799,-0.08388451,0.99795235,0.03808806,-0.00133863,0.05136742
1761620316595,0.27133937,-0.05439883,0.48215088,0.02529735,-0.08561920,-0.04407350,0.99795953,0.03824490,-0.00186947,0.05109416
1761620316615,-0.54119459,-0.28495255,-0.58952950,-0.02963901,-0.07185223,-0.00880079,0.99797430,0.03793665,-0.00261673,0.05100264
1761620316627,1.45818385,-2.26861681,0.87496049,-0.16193994,-0.15075974,-0.00193130,0.99800829,0.03697311,-0.00351375,0.05099114
1761620316638,-0.25724502,1.42562273,0.37633012,-0.21586626,-0.17668978,0.00662682,0.99804581,0.03578585,-0.00448555,0.05102759
1761620316649,-0.03278897,0.34754862,0.27878195,-0.28764101,-0.22342831,0.00632345,0.99809198,0.03424697,-0.00568089,0.05106142
1761620316661,-0.30581021,0.59120129,-0.36735577,-0.26171653,-0.21470484,-0.01390948,0.99814112,0.03266358,-0.00697985,0.05097727
1761620316672,0.20005194,0.48706943,-0.12601345,-0.25555469,-0.29998970,-0.04205293,0.99818387,0.03129636,-0.00858480,0.05075229
1761620316683,-0.32069579,0.58497047,-0.06663809,-0.19945617,-0.30870174,-0.07421719,0.99822130,0.03022927,-0.01023635,0.05035522
1761620316685,20.14235370,10.06759655,16.14842234,-0.47615984,-1.46531614,-0.29365010,0.99823601,0.02968169,-0.01192147,0.05001753
1761620316695,-4.74439574,-2.04499523,-3.69162129,-0.05553229,-0.28438233,-0.02743147,0.99823289,0.02939015,-0.01341447,0.04987351
1761620316706,-0.34570498,-0.09180333,0.03070751,-0.02806968,-0.25870153,0.00009728,0.99821847,0.02924699,-0.01473385,0.04987401
1761620316716,-0.13239243,-0.17293528,0.34220078,-0.02944313,-0.24771715,0.03402980,0.99819520,0.02909977,-0.01597244,0.05004416
1761620316727,0.16599041,-0.57457988,0.50486914,-0.00514638,-0.20150559,0.07169891,0.99815645,0.02907044,-0.01712102,0.05045284
1761620316739,-0.00424372,-0.24694321,0.06335653,-0.06979328,-0.16207623,0.12984762,0.99811019,0.02863772,-0.01812589,0.05125790
1761620316750,0.11120628,-0.03787148,0.89514168,-0.11616722,-0.15779630,0.16958526,0.99806686,0.02803946,-0.01893854,0.05213126
1761620316761,0.11715559,0.18812868,-1.25872749,-0.12182285,-0.11219625,0.15151501,0.99802934,0.02736334,-0.01956123,0.05297217
1761620316771,0.49126828,1.19285247,-1.26028906,-0.12180087,-0.10732213,0.11169625,0.99800367,0.02671171,-0.02013540,0.05356974
1761620316783,-0.14523161,0.03797542,-0.43139615,-0.02699392,-0.06356927,0.06608093,0.99798053,0.02656054,-0.02049139,0.05393980
1761620316794,-1.06404106,0.09642463,0.34207872,0.01968382,-0.06688810,0.04094272,0.99795700,0.02667274,-0.02087265,0.05417317
1761620316805,-0.41847828,-0.73237242,1.04879660,0.07566304,-0.00792959,0.03270684,0.99793469,0.02709645,-0.02091706,0.05435633
1761620316816,0.23229626,-0.42213433,0.57271830,0.05779716,0.01826125,0.06368478,0.99790897,0.02741434,-0.02081662,0.05470659
1761620316827,0.75657276,-0.37433545,0.47994733,-0.01383606,0.05108238,0.12763423,0.99787786,0.02733755,-0.02053312,0.05541496
1761620316839,0.28787268,0.13407935,0.49567799,-0.08001139,0.04788073,0.09038992,0.99786728,0.02688948,-0.02026498,0.05592115
1761620316849,-0.02071223,-0.05654710,-0.12921853,-0.11867159,0.04618532,0.02990644,0.99788043,0.02624272,-0.02001327,0.05608414
1761620316861,-0.29327335,0.66902883,-0.19952623,-0.13732792,0.00096795,0.00106150,0.99790100,0.02543936,-0.02000761,0.05609035
1761620316872,0.30544721,-0.19786761,-0.12811300,-0.08519027,0.00993056,-0.02360133,0.99792049,0.02498785,-0.01995498,0.05596526
1761620316883,-0.19030897,0.55757988,-0.15441403,-0.04190143,0.01049336,-0.08279239,0.99795399,0.02474901,-0.01989517,0.05549334
1761620316894,-0.05611779,0.37491531,-0.16597699,0.02708437,0.00402457,-0.13358657,0.99799097,0.02489662,-0.01987323,0.05476530
1761620316906,0.23654203,-0.00855474,0.11113490,0.06607988,-0.00604521,-0.11165588,0.99801660,0.02528979,-0.01990920,0.05410095
1761620316917,0.17508417,-0.16717757,0.40517563,0.03612376,-0.02219216,-0.10358616,0.99804024,0.02549209,-0.02003348,0.05352086
1761620316929,-0.14361130,0.23818267,0.27930321,-0.00780797,-0.03819381,-0.09037117,0.99806469,0.02544719,-0.02025309,0.05300123
1761620316940,0.08019556,-0.48773732,0.09833463,0.01033380,-0.03987066,-0.05809175,0.99807578,0.02550454,-0.02047438,0.05267882
1761620316951,-0.21331893,0.07512577,0.03200298,-0.01385822,-0.03693880,-0.05680831,0.99809023,0.02542694,-0.02068123,0.05236069
1761620316962,-0.07056479,-0.02791449,-0.32402802,-0.00559855,-0.03861245,-0.01808758,0.99809187,0.02539503,-0.02090132,0.05225759
1761620316974,-0.13141368,0.30026633,-0.43404469,0.04593230,-0.03508364,-0.02445518,0.99808822,0.02565914,-0.02110305,0.05211698
1761620316984,0.13330708,0.65005992,0.07878179,0.12735309,-0.00335003,-0.00525205,0.99807266,0.02629590,-0.02111980,0.05209072
1761620316995,-0.09428576,-0.32499179,-0.48494970,0.16992344,0.01648175,0.02870022,0.99803981,0.02727296,-0.02102503,0.05225574
1761620317005,0.17476604,-0.41765531,0.61440989,0.20122399,0.05477638,0.03626625,0.99800836,0.02826902,-0.02075389,0.05243526
1761620317017,-0.13678820,-0.25422182,-0.42936297,0.13570723,0.04236398,0.01430055,0.99798551,0.02909005,-0.02049759,0.05252178
1761620317029,-0.12263730,0.04932976,0.05422239,0.09354884,0.05292579,-0.03178512,0.99798549,0.02963731,-0.02018797,0.05233584
1761620317040,-0.26050130,-0.30856727,-0.11117606,0.05740339,0.03804488,-0.07036352,0.99799982,0.02993868,-0.01998824,0.05196643
1761620317050,0.14329903,0.51206635,-0.03860550,0.01619900,0.03975434,-0.10573659,0.99803132,0.03002696,-0.01977158,0.05139016
1761620317061,-0.16086151,0.07141476,-0.53016037,0.05143599,0.03609388,-0.11650488,0.99805896,0.03030472,-0.01957667,0.05076104
1761620317073,-0.51473394,-0.12538361,-0.81091751,0.08938171,0.01330165,-0.10510316,0.99807597,0.03084101,-0.01949686,0.05013042
1761620317084,-0.12956249,-0.25834189,-0.44782877,0.11089335,0.06922486,-0.09494524,0.99809001,0.03143429,-0.01912651,0.04962246
1761620317094,1.17851659,0.38858036,2.02036232,0.06766957,0.08567324,-0.05337355,0.99810127,0.03179294,-0.01867244,0.04933958
1761620317106,-1.04507518,-0.55369113,-1.58654763,0.06299722,0.09952919,-0.01822881,0.99810529,0.03214572,-0.01811508,0.04923750
1761620317118,-0.03949990,-0.43999448,-0.03039364,0.03611650,0.06103030,-0.02151944,0.99811122,0.03236242,-0.01774889,0.04910838
1761620317130,0.15057558,-0.21379518,0.19945565,-0.06405688,0.04631908,0.00126515,0.99812828,0.03197487,-0.01746866,0.04911604
1761620317142,0.08281935,-0.20816618,0.19137412,-0.13985344,0.01991411,-0.01009820,0.99816039,0.03112177,-0.01734719,0.04905444
1761620317153,0.10231395,-0.09416184,0.13954637,-0.09975290,-0.02814000,-0.04553912,0.99818788,0.03055318,-0.01750759,0.04879486
1761620317176,-0.05951324,0.21908173,-0.30775361,-0.05113096,-0.04692072,-0.02464272,0.99820944,0.02997795,-0.01803544,0.04851763
1761620317178,43.73656371,-39.09555049,60.87703826,-0.84790267,-1.81164394,-0.35601271,0.99821614,0.02929963,-0.01948476,0.04823282
1761620317219,-1.71600516,1.60774975,-2.47229725,-0.00126302,-0.02277010,-0.00005356,0.99820772,0.02927368,-0.01995268,0.04823172
1761620317241,-0.34196190,-0.39870692,0.13006001,0.01673293,-0.08135778,0.15102213,0.99809943,0.02946276,-0.02087203,0.04993827
1761620317287,0.04635000,0.18544046,-0.06497755,-0.02173337,-0.00954077,0.03846783,0.99806517,0.02896832,-0.02108908,0.05081342
1761620317320,-0.07111231,-0.03306446,-0.03592573,-0.07073320,-0.08362861,0.05277515,0.99802261,0.02777647,-0.02249822,0.05170268
1761620317343,0.10082305,-0.11396058,0.16937300,-0.00133584,-0.07208106,-0.02888659,0.99802123,0.02776171,-0.02329472,0.05138348
1761620317374,0.11265580,0.08683180,-0.08740022,0.02334066,-0.02806916,-0.03862431,0.99803166,0.02812932,-0.02373681,0.05077515
1761620317387,0.17164931,-0.37196891,0.43517215,-0.03850877,-0.06593109,-0.04289033,0.99804229,0.02788479,-0.02415547,0.05050279
1761620317408,-0.07769979,-0.13662595,-0.18658183,-0.08534248,-0.07435067,-0.05213583,0.99807604,0.02696736,-0.02495474,0.04994233
1761620317420,-0.21038105,-0.08735525,-0.22140740,-0.04592760,-0.08721430,-0.04618374,0.99808373,0.02670328,-0.02545622,0.04967678
1761620317465,0.04260997,0.20525677,-0.01268520,0.00012656,-0.01764982,-0.00819614,0.99808260,0.02670615,-0.02585599,0.04949114
1761620317497,-0.24399492,-0.17737680,-0.02989112,-0.08055452,-0.07373777,-0.03077872,0.99810945,0.02540922,-0.02704317,0.04899560
1761620317509,-1.92904736,-1.75062388,0.83363204,-0.24917472,-0.09938512,0.02611434,0.99812235,0.02391417,-0.02763948,0.04915228
1761620317531,0.70459632,0.75413321,-0.18561576,-0.08831099,-0.01754344,0.00763194,0.99813536,0.02296483,-0.02782807,0.04923433
1761620317552,-0.10413600,0.12372244,-0.01301347,-0.03026980,0.01253622,0.01858522,0.99813668,0.02263640,-0.02769205,0.04943598
1761620317564,-0.17008535,-0.02511424,0.22695087,-0.06082824,0.05534309,0.03816528,0.99814268,0.02227143,-0.02735999,0.04966497
1761620317586,0.42139953,0.24712933,-0.02218350,-0.02882784,0.04163894,0.01494732,0.99815391,0.02195576,-0.02690405,0.04982864
1761620317598,-0.56792576,-0.30053319,0.24114592,-0.03665675,0.07646261,0.00936556,0.99816735,0.02174865,-0.02647203,0.04988156
1761620317609,-0.32650955,0.32111086,0.36077186,-0.06516281,0.09090753,0.01305753,0.99818495,0.02138374,-0.02596295,0.04995468
1761620317620,0.05936484,-0.03201431,-0.07835260,-0.05889743,0.06413706,0.01323795,0.99819741,0.02105686,-0.02560699,0.05002815
1761620317643,0.40218391,0.06603431,-0.28085310,-0.00503279,0.03092176,-0.01230460,0.99821477,0.02099898,-0.02525139,0.04988665
1761620317664,-0.47703267,0.16853192,0.40810953,-0.01542209,0.05704292,-0.01673612,0.99824165,0.02083859,-0.02465814,0.04971259
1761620317665,-183.54218749,17.59057901,140.17121157,0.12728398,0.61586487,0.15609926,0.99824534,0.02094042,-0.02416545,0.04983747
1761620317687,13.72480753,-1.23615825,-10.25732367,0.00026867,0.03184694,0.01598838,0.99824491,0.02094332,-0.02382151,0.05001015
1761620317709,0.28156005,-0.09834939,-0.11357908,-0.00184229,0.01043221,0.01707118,0.99823861,0.02092297,-0.02370623,0.05019878
1761620317721,-1.53882163,0.57742616,1.85786479,0.00513630,-0.01415085,0.02169380,0.99822970,0.02095276,-0.02378830,0.05032461
1761620317742,0.77237086,-0.06921593,-0.97760456,0.02599190,0.00287806,0.01851762,0.99821441,0.02123347,-0.02375722,0.05052460
1761620317744,-242.00476924,90.91982074,287.59916878,1.04846674,0.31650104,0.71716025,0.99817824,0.02196740,-0.02353567,0.05102661
1761620317765,15.88648864,-6.00575515,-18.73893133,0.06224644,0.02854460,0.03832352,0.99815014,0.02261787,-0.02323738,0.05142709
1761620317776,-0.56322420,0.18371140,0.70418285,0.06975523,0.04254012,0.02613320,0.99813879,0.02302245,-0.02299065,0.05157866
1761620317788,0.46786715,-0.07535254,-0.17054950,0.06033534,0.03733419,0.02106010,0.99812913,0.02337843,-0.02277037,0.05170292
1761620317810,0.44146392,-0.12611565,-0.70614306,0.04042733,0.01803025,0.01141803,0.99811684,0.02381504,-0.02257565,0.05182623
1761620317821,-1.97261028,1.05167733,2.21856633,0.12131109,0.05368098,0.02060543,0.99810101,0.02450045,-0.02227235,0.05194265
1761620317843,0.96907274,-0.53208812,-1.19851726,0.03377969,0.01772356,0.01239820,0.99808910,0.02487034,-0.02207828,0.05207841
1761620317845,-168.97127147,50.79097914,217.66002876,0.64226310,0.63665058,0.38286107,0.99807014,0.02541626,-0.02153712,0.05240384
1761620317867,12.35280445,-3.70893445,-15.81951712,0.04155818,0.04504585,0.00430982,0.99806633,0.02589003,-0.02102360,0.05245298
1761620317911,0.26462319,-0.06963380,-0.39398852,0.02032944,0.01909123,0.00148985,0.99806171,0.02633321,-0.02060741,0.05248545
1761620317921,-9.08250083,3.24069390,10.48181540,0.27939501,0.30471730,0.06278979,0.99803655,0.02778606,-0.01902288,0.05281196
1761620317944,3.41063030,-1.34365484,-3.80613403,0.01610358,0.07125101,-0.00311731,0.99804856,0.02797125,-0.01820350,0.05277611
1761620317965,0.10271144,0.08668734,0.06459598,0.06045291,0.07137356,-0.00705795,0.99804788,0.02859996,-0.01746121,0.05270271
1761620318009,0.34577323,-0.14721824,-0.49614133,0.02001190,0.00731963,-0.01327294,0.99805334,0.02903923,-0.01730055,0.05241137
1761620318021,-4.00699277,1.05409079,6.32348897,0.11705078,0.09746054,-0.00768001,0.99804468,0.02977079,-0.01669142,0.05236337
1761620318041,2.06977742,-0.32599892,-3.07644676,0.07030287,0.00119205,0.01580062,0.99801550,0.03047031,-0.01667956,0.05252058
1761620318064,0.01107444,-0.13183437,-0.16851628,0.04095660,-0.03039838,-0.05309401,0.99802676,0.03092902,-0.01702002,0.05192593
1761620318110,0.23725448,-0.12578184,-0.34912021,-0.00016403,-0.00879648,-0.00779955,0.99803276,0.03092522,-0.01722366,0.05174537
1761620318122,-4.07394816,-0.30952828,7.41191924,-0.08116447,-0.09780876,0.01717298,0.99803212,0.03045853,-0.01778606,0.05184412
1761620318154,1.22210166,0.14271750,-2.29119628,-0.01181413,-0.02130765,-0.00789423,0.99803841,0.03026596,-0.01813337,0.05171544
1761620318166,-1.36511028,0.09599920,1.87188440,0.03148363,-0.00047028,0.00628276,0.99803046,0.03045958,-0.01813626,0.05175408
1761620318187,0.81381529,-0.33968160,-0.75744644,0.02807835,-0.00114684,0.00667605,0.99801750,0.03075581,-0.01814836,0.05182451
1761620318200,-0.25195052,0.17223198,0.22616842,0.02363296,0.01431476,0.00219170,0.99801391,0.03090115,-0.01806033,0.05183799
1761620318220,0.17352712,0.20219073,-0.66834426,0.00595043,-0.00467346,-0.00314412,0.99801285,0.03096095,-0.01810730,0.05180639
1761620318232,-0.60277726,0.21759221,0.86114380,0.00881863,-0.00313300,-0.00801753,0.99801335,0.03101254,-0.01812562,0.05175949
1761620318256,0.44640582,-0.11386001,-0.57551117,0.00382431,0.00426343,-0.00039864,0.99801309,0.03105882,-0.01807404,0.05175467
1761620318266,-2.79694250,0.28877465,3.19569722,0.03651155,-0.00234879,-0.02303849,0.99801315,0.03124320,-0.01808590,0.05163832
1761620318288,1.22503118,-0.03789685,-1.24492785,0.01267406,0.00409277,0.00118118,0.99800898,0.03138071,-0.01804149,0.05165114
1761620318299,-0.48919497,0.21026016,0.70291246,0.03582648,0.01194154,0.01128699,0.99800035,0.03158671,-0.01797283,0.05171604
1761620318311,-0.12980066,-0.03695713,0.25419297,0.02046655,0.00179844,0.02435129,0.99798954,0.03170440,-0.01796249,0.05185606
1761620318333,0.12477782,0.00685357,-0.52245624,0.01161619,0.00017607,0.00069570,0.99798511,0.03183218,-0.01796055,0.05186371
1761620318334,-109.16681001,50.10041324,132.16095741,0.39120576,0.19315848,-0.09937988,0.99798218,0.03212558,-0.01781568,0.05178918
1761620318355,7.98312799,-3.75496231,-9.69521220,0.03354069,0.01257693,0.00563089,0.99797012,0.03247608,-0.01768425,0.05184802
1761620318367,-0.52819201,0.51976178,0.76601052,0.01882027,0.02614071,0.00094096,0.99796892,0.03258806,-0.01752871,0.05185362
1761620318389,0.43453724,-0.24179790,-0.59688559,0.03095561,0.01537929,0.00190432,0.99795974,0.03292393,-0.01736185,0.05187428
1761620318399,-1.54502076,1.09753903,1.58910840,0.08352810,0.05563064,0.00307500,0.99794937,0.03336245,-0.01706979,0.05189042
1761620318410,0.43698825,-0.49863533,-0.52156204,0.07201184,0.04005133,-0.00325504,0.99794049,0.03376932,-0.01684350,0.05187203
1761620318422,0.20747441,-0.22535727,-0.17289534,0.04311992,0.02936823,0.00582565,0.99793297,0.03402373,-0.01667023,0.05190640
1761620318455,0.32976580,-0.14452614,-0.28830573,0.01314874,0.00859558,0.00314501,0.99792521,0.03424068,-0.01652840,0.05195830
1761620318467,-3.61150069,1.45692704,3.26829021,0.09814402,0.05223630,-0.03046908,0.99791967,0.03480992,-0.01622543,0.05178158
1761620318488,1.61730205,-0.52197329,-1.69380480,0.01689574,0.00706344,-0.00017202,0.99791467,0.03499070,-0.01614985,0.05177974
1761620318498,-1.25597621,0.55932478,1.15757321,0.02463411,-0.00826202,0.03775745,0.99789971,0.03511510,-0.01619157,0.05197041
1761620318536,0.50796093,-0.29041349,-0.35836623,0.00772848,0.00229405,0.00417692,0.99789117,0.03526078,-0.01614833,0.05204915
1761620318596,-0.02729578,0.00267649,-0.01196129,0.02216369,-0.00352952,0.00126538,0.99786380,0.03592459,-0.01625404,0.05208704
1761620318622,-0.96886285,0.02325066,0.59751397,-0.00176910,0.05226904,0.03399322,0.99785244,0.03590185,-0.01558238,0.05252386
1761620318645,0.25139408,-0.16504171,-0.36618545,-0.05097349,0.05618940,0.02936662,0.99786557,0.03530801,-0.01492778,0.05286598
1761620318678,0.35980134,0.17141096,-0.28146272,0.04296884,0.03929884,0.01064543,0.99784071,0.03600840,-0.01428720,0.05303950
1761620318700,-0.19974794,-0.01267842,0.18555017,-0.09755502,0.02320239,-0.03081500,0.99790044,0.03493530,-0.01403198,0.05270053
1761620318721,0.15471896,0.12985451,0.02437757,-0.03695663,-0.00178233,-0.07084629,0.99795269,0.03454725,-0.01405069,0.05195665
1761620318734,0.07626621,0.47746722,-0.40153552,0.10923524,-0.00763033,-0.02091272,0.99793408,0.03526275,-0.01410067,0.05181967
1761620318755,0.32590189,-0.29346635,-0.07369613,0.05366228,-0.01557812,-0.00441832,0.99791371,0.03583693,-0.01426736,0.05177239
1761620318767,-0.41536549,0.12749347,0.13800587,0.05329937,-0.02854279,-0.00508475,0.99790182,0.03614340,-0.01443148,0.05174315
1761620318789,0.32238501,-0.33321292,0.02922580,0.00358362,-0.02673286,0.02177227,0.99788306,0.03618408,-0.01473490,0.05199027
1761620318791,-73.18882562,-0.23115108,41.81638362,-0.49966034,-0.82004580,0.07365003,0.99788450,0.03578435,-0.01539093,0.05204919
1761620318823,3.65713966,0.00900298,-2.10841572,-0.00200398,-0.02635009,-0.00252411,0.99788114,0.03575209,-0.01581517,0.05200855
1761620318833,-1.34854715,0.88095709,0.11893710,0.11848442,-0.13226539,0.03110237,0.99783930,0.03636820,-0.01650295,0.05217028
1761620318844,0.25129177,0.28228993,-0.42102393,0.09266948,-0.14846110,0.03030781,0.99780030,0.03685009,-0.01727495,0.05232789
1761620318856,0.31726220,-0.22444652,-0.12958553,0.05681121,-0.05978702,0.02148200,0.99777440,0.03719379,-0.01763666,0.05245785
1761620318867,0.00667110,-0.13867320,-0.14991790,0.00260949,-0.00905041,0.05392431,0.99775672,0.03720867,-0.01768825,0.05276522
1761620318901,0.23203592,-0.19491682,0.07716006,0.01896019,-0.00747897,0.01268530,0.99773126,0.03752720,-0.01781389,0.05297833
1761620318913,-1.69302788,1.07609736,-1.58347439,0.15506793,0.00506391,0.02810402,0.99768630,0.03848087,-0.01778275,0.05315117
1761620318924,0.63188167,-0.42656101,0.01406861,0.13043340,0.02733144,0.11169185,0.99763185,0.03915260,-0.01764199,0.05372639
1761620318934,0.16728121,-0.62141069,0.21299513,0.04803899,0.09696988,-0.00986175,0.99763360,0.03940721,-0.01712805,0.05367412
1761620318946,0.66583910,-0.29698134,0.22277711,0.01334800,0.11305028,0.06853644,0.99762035,0.03948329,-0.01648367,0.05406478
1761620318957,0.27046353,0.15192724,-0.17823491,0.04959576,0.07775699,0.04930043,0.99760176,0.03975607,-0.01605600,0.05433593
1761620318967,0.26803136,-0.11740309,-0.61091230,0.08433972,0.06210480,0.00141539,0.99758843,0.04021150,-0.01572064,0.05434357
1761620318981,0.20910895,-0.15641547,0.41855210,0.03805210,0.04369112,-0.00434886,0.99758421,0.04047025,-0.01542354,0.05431400
1761620318992,0.18434280,-0.23939015,-0.75061780,0.00809464,0.04836555,-0.01455769,0.99759090,0.04051518,-0.01515511,0.05423320
1761620319004,0.30484108,-0.03781093,0.12516560,0.00655155,0.04368455,-0.00847629,0.99759589,0.04055351,-0.01489955,0.05418362
1761620319015,1.69902499,-0.25178510,0.08004546,0.02343180,0.04154454,-0.03715371,0.99760510,0.04068238,-0.01467106,0.05397927
1761620319026,-1.71819009,0.06397647,0.11428329,0.00280532,-0.00715250,-0.03604612,0.99761460,0.04069781,-0.01471040,0.05378102
1761620319039,-0.03746071,0.42884008,0.27966704,-0.02526529,0.02477435,-0.06832714,0.99764775,0.04053232,-0.01454812,0.05333348
1761620319048,0.93664765,-0.40177095,-1.22836909,-0.00776325,0.02703810,0.00273140,0.99765039,0.04049584,-0.01442105,0.05334631
1761620319059,-0.01750136,0.24665286,0.51828392,-0.02073170,0.02253264,0.00676037,0.99765468,0.04038492,-0.01430050,0.05338248
1761620319071,-0.32410342,-0.16388798,-0.06200213,0.01581581,0.02093050,-0.00812264,0.99765524,0.04048061,-0.01417387,0.05333334
1761620319082,0.23220704,0.12574033,0.38517263,-0.05181679,0.01787054,0.03096800,0.99765907,0.04019302,-0.01407469,0.05350521
1761620319094,-0.09489803,-0.46563904,-0.02645471,-0.05030806,0.04137177,0.02045524,0.99766784,0.03989872,-0.01383266,0.05362488
1761620319105,0.14214044,0.44529935,-0.16022247,-0.07867855,0.03617134,-0.00006127,0.99768745,0.03947386,-0.01363734,0.05362454
1761620319116,0.44151589,-0.52378910,-0.32909286,-0.03541391,0.03921772,0.02694325,0.99769004,0.03928262,-0.01342556,0.05377004
1761620319127,-0.11601055,0.10991261,-0.10150923,-0.04982894,0.00656710,0.03318456,0.99769145,0.03900358,-0.01338878,0.05395587
1761620319139,-0.27768196,0.16090445,0.00496705,-0.04540734,0.00640763,0.01022290,0.99769926,0.03873114,-0.01335034,0.05401721
1761620319149,0.61591466,-0.37035594,-0.10251999,-0.06199445,-0.00414264,0.04705537,0.99769820,0.03842116,-0.01337105,0.05425249
1761620319159,0.13654288,-0.25907120,0.24986529,-0.07440648,-0.01206442,0.02767614,0.99770458,0.03801937,-0.01343620,0.05440194
1761620319171,0.03221633,-0.11560402,-0.21577963,-0.09584027,-0.01563868,0.00539865,0.99772298,0.03745391,-0.01352847,0.05443379
1761620319182,0.34828208,-0.54328714,-0.36835038,-0.09759965,-0.03050501,0.02988727,0.99773141,0.03693663,-0.01369014,0.05459219
1761620319192,-0.50077238,0.11000813,-0.09336434,-0.11611705,-0.05696189,-0.03574696,0.99776016,0.03632121,-0.01399204,0.05440273
1761620319204,-0.43834499,0.61058310,0.95070592,-0.09147521,-0.01642168,0.00981051,0.99777514,0.03578151,-0.01408893,0.05446061
1761620319215,0.38713728,-0.88509036,-0.22129069,-0.09524611,-0.01945185,0.08294184,0.99776771,0.03528623,-0.01419008,0.05489191
1761620319226,0.03817283,0.14329583,0.42522834,-0.10410617,0.00459609,0.09054578,0.99776036,0.03469282,-0.01416388,0.05540802
1761620319238,-0.09850701,0.10302346,0.37751669,-0.12289395,-0.01756107,0.12253479,0.99774328,0.03396160,-0.01426837,0.05613710
1761620319248,-0.37856940,-0.33033789,-1.11599103,-0.11646037,-0.00740801,0.10376321,0.99773255,0.03335019,-0.01430726,0.05668186
1761620319260,-0.35254522,0.88271672,0.43771159,-0.10172517,0.02290169,0.04975904,0.99773755,0.03276018,-0.01417443,0.05697046
1761620319271,-0.19897926,0.47617635,-0.19118001,-0.06266737,0.02026558,0.00488545,0.99774906,0.03240924,-0.01406094,0.05699782
1761620319282,-0.03877273,-0.24844041,0.02180518,0.00669475,0.02935385,-0.00034695,0.99775022,0.03244573,-0.01390097,0.05699593
1761620319294,0.36971553,-0.14139965,0.09850878,0.00918341,0.04358777,0.04644148,0.99773643,0.03249945,-0.01364598,0.05726761
1761620319305,0.36248897,-0.26104462,0.19559163,-0.00165259,0.04222012,0.08394840,0.99771242,0.03249003,-0.01340532,0.05774612
1761620319316,-0.22255166,-0.07097226,0.03328941,-0.03446599,0.01490641,0.02857979,0.99771057,0.03230047,-0.01332334,0.05790331
1761620319327,0.30682507,0.08306677,0.14212117,-0.06873957,0.04944291,0.03048265,0.99771616,0.03194990,-0.01307118,0.05805877
1761620319339,-0.28730631,-0.07248114,0.27606695,-0.04367788,0.02366929,0.06814025,0.99770237,0.03168565,-0.01292798,0.05847102
1761620319349,0.05169761,0.29413648,0.13059434,-0.09827320,0.05499922,0.02698434,0.99771412,0.03116480,-0.01263648,0.05861404
1761620319361,0.26654692,-0.45453631,-0.05885100,-0.04927018,0.08077238,0.03266376,0.99771760,0.03088642,-0.01218012,0.05879859
1761620319372,-0.64977418,0.58022221,-0.20165406,-0.09747437,0.03927037,-0.00760226,0.99773971,0.03033569,-0.01195824,0.05875563
1761620319383,0.64619983,-0.13479441,-0.17272012,-0.04194750,0.02779000,-0.02113581,0.99775521,0.03010708,-0.01180679,0.05864044
1761620319394,-0.30874358,0.51209606,-0.14853151,-0.03158113,-0.01500580,-0.03236197,0.99777044,0.02992707,-0.01189232,0.05845598
1761620319406,-0.02119989,0.14498476,0.22154197,0.02970886,-0.01695110,-0.03282363,0.99777521,0.03009938,-0.01199064,0.05826560
1761620319438,-0.16376826,0.00070878,0.40970968,0.01702532,-0.00261149,0.01880255,0.99774884,0.03037178,-0.01203242,0.05856644
1761620319457,1.18778264,-0.92196932,-0.05397699,-0.12916858,-0.02789387,0.07026169,0.99774251,0.02909301,-0.01230857,0.05926203
1761620319469,-1.13629593,1.42403239,0.35571321,-0.17711542,-0.05572281,-0.05387786,0.99778752,0.02803918,-0.01264012,0.05894146
1761620319478,2.46280128,-0.49493613,-2.36703916,-0.02485447,-0.06388390,-0.07171164,0.99780578,0.02792858,-0.01292440,0.05862234
1761620319490,-1.88686124,1.09141943,1.94007675,0.01865442,-0.00136897,-0.02218593,0.99781027,0.02803864,-0.01293248,0.05849145
1761620319503,-0.65150701,-0.11837772,0.30452531,-0.00490518,-0.00511833,-0.00343362,0.99781199,0.02800773,-0.01296473,0.05846982
1761620319514,-0.07809957,0.06732975,0.31763984,-0.01103050,-0.01187385,-0.02562030,0.99782142,0.02794486,-0.01303241,0.05832378
1761620319524,0.01836963,0.02064341,0.04124967,0.04660100,-0.02151695,-0.00832651,0.99781583,0.02818020,-0.01314107,0.05828173
1761620319534,0.18105948,0.11290550,0.17311828,0.01337547,-0.01237666,-0.00296228,0.99781395,0.02824841,-0.01320419,0.05826662
1761620319546,-0.03624501,0.00260969,0.08559680,0.11283302,-0.03577857,-0.03071439,0.99780312,0.02888592,-0.01340634,0.05809309
1761620319556,0.04912331,0.07722932,0.30176287,0.09884160,-0.04632830,-0.05485704,0.99780137,0.02940978,-0.01365188,0.05780235
1761620319567,-0.52250675,-0.42052937,-0.14489651,0.07914386,-0.04988029,-0.01947071,0.99779105,0.02983715,-0.01392123,0.05769720
1761620319579,-0.03309192,0.02278244,-0.00624102,0.02996506,-0.07361939,-0.01930585,0.99778621,0.03001245,-0.01435190,0.05758426
1761620319590,-0.13238813,0.07728793,-0.22456916,0.06320476,-0.08500890,-0.02350846,0.99777577,0.03037904,-0.01484496,0.05744791
1761620319601,0.52476789,0.46014465,0.07124686,0.08318609,-0.09830439,0.00143049,0.99775288,0.03084072,-0.01539055,0.05745585
1761620319612,0.02039263,-0.02082821,-0.40938926,0.18703492,-0.16470588,-0.01621422,0.99771168,0.03186006,-0.01628819,0.05736749
1761620319624,0.21931784,0.02764637,-0.22213002,0.25049893,-0.16781798,-0.05257522,0.99766535,0.03331295,-0.01726154,0.05706255
1761620319634,0.47122947,0.00703681,0.11486571,0.31506368,-0.18967262,0.06636031,0.99757469,0.03490403,-0.01821938,0.05739767
1761620319646,-0.19526832,-0.20595261,0.24399215,0.10138123,-0.17182285,0.07060696,0.99751050,0.03550217,-0.01923314,0.05781425
1761620319657,-0.11136545,-0.05904175,0.31216504,0.01420481,-0.13500712,-0.01199227,0.99749656,0.03558243,-0.01999593,0.05774649
1761620319669,-0.52426831,-0.47838042,0.18444503,-0.02959854,-0.11284031,0.05312913,0.99747036,0.03540336,-0.02067861,0.05806793
1761620319680,-0.03814429,-0.39089919,0.13612537,-0.05134989,-0.12192685,0.08238988,0.99744001,0.03512350,-0.02134311,0.05851695
1761620319690,-0.19396649,-0.38768595,-0.29578523,-0.06401619,-0.16238154,0.02329124,0.99742641,0.03479702,-0.02217126,0.05863574
1761620319701,0.48820392,0.09300020,-0.59616881,-0.02293494,-0.18817355,0.03210076,0.99739660,0.03466973,-0.02321562,0.05881390
1761620319712,0.35056313,-0.08320066,-0.43595371,0.08792290,-0.22291547,0.06844686,0.99733126,0.03513133,-0.02438593,0.05917324
1761620319724,-0.01650317,0.19599142,-0.30322123,0.08898988,-0.22941241,0.07725034,0.99725146,0.03565637,-0.02573946,0.05962902
1761620319734,-0.19532462,0.00737301,-0.52597169,0.06191036,-0.27202042,0.04986596,0.99718685,0.03597830,-0.02715397,0.05988832
1761620319746,-0.16003280,-0.08874144,-0.12032096,0.04560541,-0.19839276,0.07841530,0.99711665,0.03624737,-0.02832449,0.06035097
1761620319757,-0.28035990,-0.23291081,-0.38161416,0.03756042,-0.19695929,0.10063273,0.99704210,0.03645959,-0.02943731,0.06091955
1761620319768,-0.04429044,-0.76175634,-1.03969193,0.03264587,-0.18312185,0.04521644,0.99699005,0.03663914,-0.03044448,0.06116824
1761620319780,-0.04163153,-0.24071960,0.13660346,-0.03852305,-0.13744597,0.02122533,0.99696538,0.03640993,-0.03126228,0.06129453
1761620319790,-0.19583821,-0.67142988,-0.45620673,-0.11115910,-0.14193424,0.05574472,0.99694524,0.03583746,-0.03199324,0.06158161
1761620319802,-0.36563847,0.74248844,1.16643566,-0.12010028,-0.08989205,0.02408082,0.99694456,0.03515889,-0.03250113,0.06171767
1761620319813,-0.98586428,0.55145616,-0.37156627,-0.03928497,-0.01553477,0.01953360,0.99694266,0.03493693,-0.03258890,0.06182803
1761620319823,0.32528622,0.11536545,-0.19533397,0.01668856,-0.01488947,-0.00392326,0.99693843,0.03502205,-0.03266484,0.06180803
1761620319835,-0.35374509,0.43645513,0.44482528,-0.00450154,0.03362941,-0.08047382,0.99697393,0.03499639,-0.03247315,0.06134933
1761620319847,-0.07531481,0.09104433,0.19430096,-0.04733402,0.05326333,-0.07438531,0.99702237,0.03470765,-0.03214824,0.06089557
1761620319858,-0.08689148,-0.09179527,0.29158712,-0.07451861,0.08011401,-0.10951530,0.99708726,0.03429780,-0.03170762,0.06029324
1761620319869,0.06537682,0.04738151,-0.39389532,-0.06894367,0.05623779,-0.11077891,0.99714883,0.03390482,-0.03138706,0.05966180
1761620319880,0.76860953,-0.01428799,-0.24136987,-0.05713993,0.10977110,-0.07826140,0.99720345,0.03359341,-0.03078881,0.05923528
1761620319890,0.00338129,0.43297837,0.03964774,-0.05649008,0.08304096,-0.01929827,0.99723222,0.03330248,-0.03036115,0.05913589
1761620319902,0.04867900,0.15837339,0.38487408,0.02703074,0.06256380,-0.02943020,0.99724751,0.03345385,-0.03001079,0.05897108
1761620319913,-0.64171754,-0.58949420,-0.16583040,0.02546059,0.03840172,0.02015369,0.99724258,0.03359389,-0.02979958,0.05908193
1761620319923,0.70397255,1.32936048,0.67721401,0.02373112,-0.00904524,0.05889207,0.99721790,0.03372204,-0.02984843,0.05939994
1761620319935,-0.06079398,0.04709259,0.02513886,0.02312328,0.01481773,-0.04101608,0.99722996,0.03385499,-0.02976322,0.05916410
1761620319946,-0.29565707,0.07357624,-0.09915328,0.08246739,0.05041014,-0.05871024,0.99724233,0.03432918,-0.02947337,0.05882652
1761620319987,0.16939836,-0.13281113,0.19891041,0.01880366,0.01784279,0.00744567,0.99723097,0.03470620,-0.02911562,0.05897580
1761620320014,-0.63640607,0.25357969,-0.75898253,0.10712239,0.06919983,0.00182245,0.99720447,0.03617913,-0.02816412,0.05900086
1761620320025,0.02669215,-0.20262335,-1.27935730,0.09790344,0.06720414,0.04330939,0.99718060,0.03672739,-0.02778778,0.05924339
1761620320046,0.80485693,-0.34994562,1.08994449,0.01608936,-0.01595174,-0.03106879,0.99718905,0.03689713,-0.02795607,0.05891562
1761620320058,0.18198750,0.01186176,-0.15166480,0.04603876,-0.06911079,0.00746133,0.99716547,0.03716185,-0.02835346,0.05895852
1761620320070,-0.16028363,-0.10990060,0.24321183,0.01378870,-0.04484635,0.01434288,0.99714894,0.03724803,-0.02863374,0.05904816
1761620320082,-0.15199184,-0.20475317,0.04707551,-0.02423026,-0.03012703,-0.00007036,0.99714916,0.03711234,-0.02880246,0.05904777
1761620320092,-0.03086039,0.07248650,-0.03999255,-0.05143063,-0.00701491,0.01149088,0.99715449,0.03684490,-0.02883893,0.05910752
1761620320103,0.28458451,-0.05810224,0.15912472,-0.04289080,-0.01262499,0.06317024,0.99713974,0.03659614,-0.02891216,0.05947391
1761620320114,0.17516467,-0.08724036,-0.27782877,-0.06095631,-0.02305855,0.06347057,0.99712799,0.03627612,-0.02903322,0.05980713
1761620320125,0.01746034,0.02934624,0.10453977,-0.05833623,-0.04802087,0.01916649,0.99712565,0.03596693,-0.02928773,0.05990871
1761620320135,0.02105762,0.05651643,-0.00694207,-0.04711540,-0.01857667,0.03458772,0.99712060,0.03571251,-0.02938804,0.06009549
1761620320147,0.25637113,0.21048745,0.01904721,-0.02874648,-0.01842914,0.06884365,0.99710037,0.03555441,-0.02948940,0.06047413
1761620320158,0.11280837,0.23777378,0.08252155,0.00323640,-0.05015154,0.04427666,0.99707587,0.03557285,-0.02977526,0.06072650
1761620320170,0.05399208,-0.32296133,-0.54331250,0.03642099,-0.01685211,0.03088764,0.99705428,0.03578592,-0.02987385,0.06090720
1761620320180,0.13300111,0.02276967,-0.35355763,0.00549677,-0.01552635,0.02196225,0.99704415,0.03581367,-0.02995226,0.06101811
1761620320191,0.15690781,0.09871721,0.25594905,0.00470510,-0.00909020,0.04304740,0.99702689,0.03584002,-0.03000316,0.06125917
1761620320203,0.05197049,0.30259698,0.31099874,0.02651540,-0.01650048,0.03003091,0.99700758,0.03599514,-0.03009969,0.06143485
1761620320213,0.22337046,-0.05422000,-0.13054436,0.02513462,-0.02349830,-0.00305411,0.99700014,0.03612584,-0.03022188,0.06141897
1761620320225,-0.26756736,-0.10124635,0.26994711,-0.02138169,-0.01830180,-0.04553437,0.99701808,0.03599862,-0.03033078,0.06114804
1761620320236,0.09096402,-0.18316438,-0.03689620,-0.02535834,-0.00253495,0.00440875,0.99702123,0.03585788,-0.03034485,0.06117251
1761620320247,0.23097183,0.17652426,-0.03283069,-0.00187889,0.02579392,0.02087078,0.99701888,0.03584764,-0.03020427,0.06128626
1761620320258,0.04753403,0.18012468,-0.07755292,0.03092279,-0.00158051,0.03550043,0.99699963,0.03602544,-0.03021336,0.06149038
1761620320269,0.01594205,0.16977468,-0.20866746,0.02973510,-0.01233725,0.00065551,0.99699172,0.03618304,-0.03027875,0.06149386
1761620320280,-0.10155970,-0.10735582,-0.05361291,0.01939799,-0.00881819,-0.00531009,0.99698810,0.03629167,-0.03032813,0.06146412
1761620320292,-0.02358712,0.04929134,0.06745260,-0.00124998,-0.00655097,-0.01403909,0.99699216,0.03628454,-0.03036547,0.06138410
1761620320302,0.48218182,-0.82305826,-0.53220738,0.03385957,-0.00621939,-0.02898782,0.99699409,0.03646739,-0.03039905,0.06122756
1761620320314,-0.10927518,0.65983630,0.71635953,-0.01974230,-0.01278065,-0.00797998,0.99699901,0.03634893,-0.03047574,0.06117968
1761620320325,0.11329809,-0.26728701,-0.45253554,0.00339995,-0.03232778,-0.00578089,0.99699483,0.03636763,-0.03065354,0.06114789
1761620320337,-0.20650902,-0.24558694,0.14494766,0.00847592,-0.04492723,0.00112362,0.99698424,0.03641849,-0.03092310,0.06115463
1761620320348,0.65704256,0.27450358,-0.20973149,-0.00242368,-0.03215142,0.00928212,0.99697661,0.03640601,-0.03108868,0.06120243
1761620320358,-0.30728652,0.13254384,0.03160214,-0.02871059,-0.03515563,0.00780790,0.99697379,0.03625384,-0.03127501,0.06124382
1761620320369,0.17515271,0.11741095,-1.31345600,0.02118025,-0.06181881,-0.00147880,0.99695945,0.03636927,-0.03161192,0.06123576
1761620320380,0.16609219,-0.12487928,0.20983872,0.03066419,-0.01727478,-0.02035853,0.99695714,0.03653792,-0.03170693,0.06112378
1761620320392,-0.23095361,-0.45551860,0.07174772,0.05248196,-0.01428404,-0.03770679,0.99695669,0.03683707,-0.03178835,0.06090885
1761620320403,0.29433261,0.03119327,0.78843456,-0.01936714,-0.01979870,-0.00817225,0.99695992,0.03672958,-0.03189823,0.06086350
1761620320414,-0.29994299,0.08062925,0.10204294,-0.02976781,-0.03943541,-0.02069109,0.99696635,0.03655395,-0.03213090,0.06074142
1761620320425,0.07081346,-0.12935329,-0.04229421,-0.03494160,-0.05823720,-0.02600322,0.99697165,0.03636352,-0.03244829,0.06059970
1761620320436,0.01156314,-0.09366344,-0.49822435,-0.03415841,-0.04828005,-0.00497237,0.99697149,0.03618931,-0.03269452,0.06057434
1761620320447,0.00973292,-0.17173317,0.45457849,-0.01931193,-0.03391326,0.01147088,0.99696498,0.03607634,-0.03289291,0.06064145
1761620320459,0.05225040,-0.38681625,0.08882568,-0.02895796,-0.05545777,0.01523989,0.99695491,0.03590694,-0.03321734,0.06073060
1761620320470,0.13773786,0.02843497,-0.42925156,-0.02267522,-0.07029979,0.00323582,0.99694553,0.03578449,-0.03359696,0.06074808
1761620320480,-0.00300797,0.29375603,0.32358807,-0.09002942,-0.08584255,0.01344924,0.99694273,0.03530283,-0.03405622,0.06082003
1761620320518,-0.37873724,0.15023941,0.41093516,-0.02248199,-0.01763246,0.00457963,0.99694097,0.03488017,-0.03438771,0.06090613
1761620320527,5.98198045,-2.28316466,-5.14246786,-0.23434857,-0.16018722,0.02551048,0.99694524,0.03380217,-0.03512457,0.06102347
1761620320538,-3.39425987,1.02209178,3.21226023,-0.08948379,-0.07099316,-0.00693592,0.99695004,0.03333685,-0.03549374,0.06098741
1761620320547,-0.87187088,0.66574979,0.84996690,-0.08536510,-0.04192534,-0.01519191,0.99696104,0.03292283,-0.03569707,0.06091373
1761620320559,-0.02601132,0.23379305,-0.00180837,-0.06684410,-0.03458076,0.00153601,0.99696603,0.03253514,-0.03589764,0.06092264
1761620320570,-0.07798380,0.00525042,-0.15939644,-0.01565926,-0.01269621,-0.00816962,0.99696898,0.03245136,-0.03596557,0.06087893
1761620320581,-0.15589796,0.20864824,0.01632272,-0.00970375,-0.03530783,-0.01095610,0.99696725,0.03239411,-0.03617388,0.06081429
1761620320592,0.20499875,0.22073442,0.25391073,0.01000503,-0.04906156,-0.02072918,0.99696275,0.03244713,-0.03643391,0.06070442
1761620320603,-0.18097952,0.16094323,0.31578472,0.00114875,-0.02142517,-0.05939060,0.99697807,0.03245345,-0.03655175,0.06037777
1761620320614,0.30162287,-0.81476965,-0.56676109,0.03632297,-0.02528139,-0.03264358,0.99697729,0.03265504,-0.03669206,0.06019660
1761620320626,-0.30670117,0.85684608,0.65259265,0.01019259,-0.00801243,-0.00412910,0.99697510,0.03271365,-0.03673813,0.06017286
1761620320638,-0.18289404,-0.13730328,0.00423392,0.03165389,-0.01655137,-0.00060836,0.99696533,0.03290516,-0.03683827,0.06016918
1761620320648,0.20727383,0.12669230,0.10244825,0.02325008,0.00274884,-0.00092820,0.99696218,0.03302489,-0.03682411,0.06016440
1761620320659,-0.11875364,-0.12433697,0.00547727,0.04985941,-0.00653978,0.04170297,0.99693830,0.03329414,-0.03685942,0.06038960
1761620320671,-0.11378976,0.32096351,-0.34311097,0.01409101,0.00638855,0.02260112,0.99692891,0.03337657,-0.03682205,0.06052181
1761620320682,-0.00027735,-0.11134665,0.00254239,0.02740796,0.00392852,0.02759340,0.99691481,0.03353416,-0.03679946,0.06068047
1761620320692,0.24958973,0.12529868,-0.01885798,0.01876551,0.01512666,0.04441300,0.99690048,0.03363081,-0.03672156,0.06090920
1761620320745,-0.21759537,-0.10935638,0.16222502,0.00458036,0.00296444,0.00198647,0.99689606,0.03375196,-0.03664315,0.06096174
1761620320772,1.00572182,0.25827681,-0.23245785,0.07240462,0.04842029,0.01640429,0.99687335,0.03470408,-0.03600642,0.06117746
1761620320782,-0.65647993,1.02638197,-1.76057518,0.08769320,0.02553572,-0.00878160,0.99686521,0.03514693,-0.03587747,0.06113311
1761620320804,-0.33567181,-0.59156542,0.76648344,0.03876366,0.01222042,0.00509955,0.99685153,0.03557139,-0.03574365,0.06118895
1761620320842,-0.21495825,-0.11089327,0.15754521,0.01012967,-0.00535363,-0.00997813,0.99685264,0.03576841,-0.03584778,0.06099488
1761620320861,1.16731081,0.09360187,-0.22908001,0.02195165,-0.00090238,0.00314494,0.99684305,0.03597586,-0.03585631,0.06102460
1761620320871,0.79707446,0.01013215,-1.94292465,0.03521747,0.01672561,-0.00119362,0.99684002,0.03615370,-0.03577185,0.06101857
1761620320892,-0.91188285,-0.04722876,0.51200932,-0.00779465,-0.00024841,0.01241838,0.99683492,0.03607225,-0.03577444,0.06114834
1761620320905,0.03185552,-0.11184731,0.65007477,0.01849174,0.01114633,-0.01135855,0.99683763,0.03618967,-0.03570366,0.06107622
1761620320926,-0.40983070,0.01838938,0.12550637,0.01658933,0.01047315,0.00755925,0.99683028,0.03636552,-0.03559265,0.06115634
1761620320937,0.87745864,-0.03412332,-0.34319434,0.07208130,0.00944667,0.02290720,0.99680948,0.03676917,-0.03553975,0.06128462
1761620320949,-0.23547805,-0.11588707,0.00648646,0.03050516,-0.00633256,-0.02811399,0.99681161,0.03694305,-0.03557584,0.06112437
1761620320960,0.00041482,-0.03547371,0.09468298,-0.03595933,0.02866995,-0.01723610,0.99683034,0.03674528,-0.03541816,0.06102958
1761620320971,0.01908272,-0.34420725,-0.39649661,-0.01536275,0.01242288,0.01978409,0.99682924,0.03666309,-0.03535169,0.06113542
1761620320982,0.20212268,-0.03610830,0.05071482,-0.04143009,0.01281987,-0.00114578,0.99684048,0.03643522,-0.03528119,0.06112912
1761620320994,-0.17625497,0.02752976,0.09589475,-0.02576646,0.00222496,-0.00774157,0.99684996,0.03627160,-0.03526706,0.06107996
1761620320996,93.67976673,-20.66895578,-39.20707903,-0.35979805,0.00255336,-0.07833559,0.99686251,0.03601975,-0.03526527,0.06102512
1761620321006,-12.01419252,2.82111614,5.31795730,-0.00748324,0.01131924,0.01861125,0.99686000,0.03597971,-0.03520471,0.06112470
1761620321016,0.05994567,-0.04835943,0.02935560,-0.00816079,-0.01207108,0.00521152,0.99685785,0.03594095,-0.03526205,0.06114945
1761620321028,-0.41984675,0.14718981,0.19014230,-0.00470098,-0.00376039,-0.01059229,0.99686197,0.03591274,-0.03528461,0.06108590
1761620321039,0.48995060,-0.08781752,-0.06966960,-0.00317808,-0.00639873,-0.00125171,0.99686178,0.03589590,-0.03531852,0.06107926
1761620321049,-0.00624787,0.09294304,0.13583324,-0.01823155,0.01257255,0.00840952,0.99686494,0.03579745,-0.03525063,0.06112467
1761620321060,-0.07053804,-0.04492565,0.03649364,-0.00980634,0.01197776,0.01622017,0.99686380,0.03574645,-0.03518835,0.06120902
1761620321071,-0.14966935,-0.67426387,-0.08676133,-0.00351737,0.00999870,0.01348864,0.99686185,0.03572693,-0.03513286,0.06128388
1761620321083,-0.14809860,0.02368455,-0.01204325,0.02379749,0.00774351,-0.00144114,0.99685892,0.03586853,-0.03508678,0.06127531
1761620321094,0.11701060,0.03649403,-0.00473284,0.03800296,-0.00031872,-0.00320544,0.99685216,0.03608514,-0.03508860,0.06125703
1761620321106,0.09497841,0.73772880,0.27751850,0.03962338,-0.00637500,-0.01937428,0.99684943,0.03631298,-0.03512525,0.06114563
1761620321116,0.29871327,0.15517111,0.19706565,0.04051595,-0.01131968,-0.05518783,0.99685722,0.03652366,-0.03518412,0.06085866
1761620321127,-0.15918280,-0.01681196,-0.02310832,0.06039218,-0.00870541,-0.03345573,0.99685442,0.03686790,-0.03523374,0.06066796
1761620321139,-0.02540880,0.21299877,0.14311624,0.00837401,-0.01586919,-0.05054914,0.99686673,0.03691479,-0.03532261,0.06038488
1761620321149,0.15952268,-0.09254020,0.01045802,0.02073315,-0.01790470,-0.04889270,0.99687495,0.03702468,-0.03541750,0.06012575
1761620321160,0.02121917,-0.00775826,0.03819450,0.01525578,-0.03690957,-0.03102870,0.99687488,0.03710553,-0.03561312,0.05996130
1761620321173,-0.53658593,0.04421477,0.06386932,0.00158452,-0.04589141,-0.03033767,0.99687562,0.03711559,-0.03590453,0.05976866
1761620321183,0.25896729,0.00124132,0.12301349,-0.00829181,-0.03194274,-0.03298969,0.99688173,0.03707082,-0.03607702,0.05959051
1761620321195,-0.20272595,-0.11212296,-0.10022193,-0.00034490,-0.04506802,-0.00430720,0.99687400,0.03706887,-0.03633166,0.05956618
1761620321206,0.32488709,-0.05513978,-0.07095235,-0.00458751,-0.04102126,-0.00762934,0.99686907,0.03704295,-0.03656343,0.05952307
1761620321216,0.27178696,-0.08494150,0.12189245,-0.02484198,-0.07266008,0.01217311,0.99685627,0.03691501,-0.03693763,0.05958576
1761620321227,-0.16842150,-0.11051824,-0.14295932,0.01217006,-0.07667855,-0.01081302,0.99684163,0.03698195,-0.03735936,0.05952629
1761620321238,-0.12827680,0.14808696,0.16836770,-0.03183698,-0.04346826,-0.01276024,0.99684333,0.03680525,-0.03760061,0.05945547
1761620321249,-0.17807970,-0.09094372,-0.04518772,-0.01475788,-0.03115966,0.00448141,0.99683828,0.03672261,-0.03777510,0.05948057
1761620321260,-0.00606262,0.04780233,-0.11590971,0.01806269,-0.03207400,0.00816112,0.99682571,0.03681834,-0.03794509,0.05952382
1761620321271,0.50576117,-0.17691324,-0.12450707,0.01456694,-0.01784386,0.00988753,0.99681576,0.03689846,-0.03804323,0.05957820
1761620321282,-0.07965405,0.01770799,0.06100712,0.01112890,-0.00350112,0.00614306,0.99681069,0.03696023,-0.03806267,0.05961230
1761620321295,-0.40831493,-0.04162803,-0.10715223,0.01566027,-0.01698718,-0.00815269,0.99680600,0.03705889,-0.03816969,0.05956093
1761620321306,-0.11563511,0.06979900,0.21550180,0.00119688,-0.00424883,-0.00972004,0.99680802,0.03706535,-0.03819263,0.05950845
1761620321316,-0.13808556,0.00122185,-0.04532103,-0.00324569,0.00222140,-0.02221675,0.99681590,0.03704863,-0.03818119,0.05939403
1761620321327,-0.06772249,-0.05247224,-0.10213732,-0.00705821,0.02077660,-0.01466120,0.99682671,0.03700911,-0.03806484,0.05931193
1761620321338,-0.09582944,-0.04185682,0.03634974,-0.02332234,0.01098501,-0.02260927,0.99684077,0.03688433,-0.03800607,0.05919097
1761620321378,-0.20006609,0.05571223,-0.02896663,-0.00485838,0.00461494,-0.00555531,0.99685460,0.03678619,-0.03791285,0.05907875
1761620321397,1.06373068,0.09449370,-0.43491584,0.00680133,0.01606381,-0.01875979,0.99686804,0.03684843,-0.03776586,0.05890710
1761620321405,-0.03957351,-0.02789657,0.11005253,-0.00934236,0.02343986,0.01434389,0.99686975,0.03680685,-0.03766156,0.05897093
1761620321416,-0.19951975,-0.45805400,0.64638024,-0.01841760,0.01263664,0.03521819,0.99686463,0.03670556,-0.03759206,0.05916463
1761620321428,-0.37432602,-0.13074261,0.10750815,-0.04486550,-0.02454466,-0.01159980,0.99687251,0.03645431,-0.03772951,0.05909967
1761620321439,-0.21623715,0.20061924,0.04393846,-0.06721350,-0.03265079,-0.05070693,0.99689731,0.03605775,-0.03792214,0.05880050
1761620321450,0.06486407,0.05031942,-0.23821039,0.01156448,-0.01912024,0.03677301,0.99688038,0.03611673,-0.03801966,0.05898804
1761620321462,-0.17344386,0.15700439,-0.03991252,0.01263792,0.00482229,-0.01451775,0.99688392,0.03619319,-0.03799048,0.05890021
1761620321472,0.98673765,0.04734321,-0.47421652,0.01873257,-0.00224147,-0.01605921,0.99688482,0.03628685,-0.03800169,0.05881991
1761620321483,-0.23210771,-0.03884552,-0.10497315,0.04657210,-0.00232608,-0.01076374,0.99687824,0.03655231,-0.03801495,0.05875856
1761620321494,0.12759207,-0.20439542,-0.06465669,0.03006105,0.00987889,-0.01310057,0.99687847,0.03671464,-0.03796160,0.05868782
1761620321506,-0.74514877,-0.04115173,0.29535990,-0.00978271,-0.00004124,-0.07583916,0.99690659,0.03665741,-0.03796184,0.05824416
1761620321516,0.12453012,-0.12743897,0.04591262,-0.08892576,-0.00040808,-0.02400034,0.99693161,0.03617721,-0.03796405,0.05811455
1761620321528,0.00414926,-0.08722091,0.02807666,-0.04637164,-0.00402919,-0.01003432,0.99694352,0.03591521,-0.03798681,0.05805786
1761620321539,0.09250696,-0.02549654,-0.11140448,-0.01015764,-0.01811735,-0.01247150,0.99694580,0.03585731,-0.03809008,0.05798677
1761620321550,-0.03414516,0.11693008,-0.00686905,-0.03734732,0.00708332,-0.01274773,0.99695897,0.03564817,-0.03805042,0.05791539
1761620321561,-0.09120144,-0.01589736,-0.15108757,-0.05638875,-0.00438360,0.01653073,0.99696380,0.03533803,-0.03807453,0.05800630
1761620321573,-0.17159254,0.09705089,0.35998378,-0.05555712,0.00445713,-0.00655676,0.99697825,0.03501858,-0.03804890,0.05796860
1761620321584,0.06594299,-0.10920975,-0.02575509,-0.06493572,-0.01132514,-0.01671375,0.99699341,0.03466792,-0.03811005,0.05787835
1761620321595,-0.10997759,-0.05218029,-0.13628610,-0.05107847,0.00618337,-0.04054854,0.99701736,0.03438699,-0.03807604,0.05765533
1761620321605,0.21752861,-0.17781377,-0.31012968,-0.06615596,-0.00677494,-0.01152015,0.99703195,0.03402644,-0.03811297,0.05759255
1761620321618,-0.03050694,0.00376855,0.12955737,-0.03739548,0.01731460,-0.04221785,0.99705836,0.03380020,-0.03800821,0.05733713
1761620321628,-0.02838027,-0.07432716,-0.06740314,-0.06085019,0.00259349,-0.05196718,0.99708608,0.03347161,-0.03799421,0.05705651
1761620321639,-0.05493458,-0.07910111,-0.06080259,-0.04902500,0.03432785,-0.04053508,0.99711317,0.03321913,-0.03781742,0.05684775
1761620321651,-0.22842618,0.18208154,0.03139927,-0.03576202,0.04084924,-0.00666233,0.99713215,0.03300098,-0.03756824,0.05680711
1761620321662,0.16400415,-0.05736577,-0.07323087,-0.05298990,0.04895041,0.00228639,0.99715131,0.03270689,-0.03729657,0.05681980
1761620321673,0.55840074,0.15034586,-0.58608864,-0.04464546,0.04270963,-0.01348489,0.99717289,0.03245464,-0.03705526,0.05674361
1761620321683,0.30238920,0.10879910,-0.29444683,-0.00776086,0.02568363,-0.03887364,0.99719012,0.03241545,-0.03692555,0.05654730
1761620321695,-0.27864473,0.11003021,0.18894473,-0.00982863,-0.00042988,-0.04402835,0.99720661,0.03235746,-0.03692809,0.05628753
1761620321706,-0.38199071,-0.04173849,0.50609261,-0.02780858,-0.00619932,-0.06375668,0.99723003,0.03220451,-0.03696219,0.05593687
1761620321718,-0.05143082,-0.00234661,0.06587628,-0.05045338,-0.01361273,-0.05880016,0.99725602,0.03190684,-0.03704250,0.05558995
1761620321728,0.18463942,-0.13732025,-0.10099511,-0.05386725,0.00709977,-0.06712211,0.99728485,0.03163481,-0.03700665,0.05525098
1761620321739,-0.14500053,-0.02131893,0.00659635,-0.06294956,0.00260253,-0.02541888,0.99730387,0.03129173,-0.03699246,0.05511245
1761620321751,-0.08421827,0.07891380,-0.04095138,-0.05086060,-0.00317640,-0.01919322,0.99731841,0.03099929,-0.03701073,0.05500209
1761620321762,0.00796629,0.10073915,0.01594773,-0.03755727,-0.01109095,-0.03519606,0.99733414,0.03077958,-0.03707561,0.05479619
1761620321774,0.17217386,0.44702087,0.12078673,-0.02728220,-0.02731991,-0.01898307,0.99733911,0.03062270,-0.03723270,0.05468704
1761620321784,0.28525737,0.08315175,-0.01232499,-0.05303661,-0.04714418,-0.02208140,0.99734465,0.03034691,-0.03747785,0.05457222
1761620321795,-0.11617790,-0.05510256,-0.06930508,-0.00448664,-0.07589919,-0.05562692,0.99734632,0.03032224,-0.03789530,0.05426627
1761620321806,-0.12312901,-0.23840450,-0.19860800,0.03244789,-0.04685274,-0.07324755,0.99735272,0.03049583,-0.03814596,0.05387439
1761620321817,-0.07002165,0.02853577,0.06930155,0.00693481,-0.02387872,-0.04115232,0.99735893,0.03053536,-0.03828207,0.05363982
1761620321829,-0.18769048,0.08652954,0.07089461,-0.05417564,-0.02237258,-0.02957098,0.99737296,0.03021572,-0.03841406,0.05346536
1761620321840,0.02718486,-0.25489460,-0.15763212,0.01115919,-0.01782168,-0.03238445,0.99737685,0.03027710,-0.03851208,0.05328724
1761620321851,-0.12181436,0.08776150,0.10073367,-0.00642353,0.00223781,-0.04594135,0.99739241,0.03024049,-0.03849933,0.05302538
1761620321863,-0.02274121,0.02048835,-0.01233761,0.02387543,0.00376215,-0.03019028,0.99739814,0.03037419,-0.03847826,0.05285631
1761620321873,0.05662453,0.03623684,0.06802167,0.03540524,-0.00225082,-0.02307981,0.99739841,0.03055652,-0.03848985,0.05273745
1761620321884,-0.23465003,0.14076031,-0.01794360,-0.01216973,-0.00474651,-0.01670022,0.99740425,0.03049020,-0.03851572,0.05264643
1761620321921,-0.14394934,-0.02594222,0.18579555,0.00293666,-0.00106074,-0.00470056,0.99740646,0.03054556,-0.03853572,0.05255783
1761620321940,0.35863608,-0.15814166,-0.77571441,-0.03609364,0.01560651,-0.02340658,0.99743358,0.03021169,-0.03839135,0.05234132
1761620321942,8.52385028,-9.42678177,-32.66899023,-0.04752686,0.02481584,-0.12942490,0.99744367,0.03015941,-0.03836406,0.05219895
1761620321963,-1.25621617,1.10921817,3.99020504,0.00369874,0.00737809,0.00623363,0.99744209,0.03019714,-0.03828880,0.05226253
1761620321973,0.25258843,-0.45300269,-0.57895653,-0.00694969,0.01082566,0.02599333,0.99743825,0.03016100,-0.03823251,0.05239770
1761620321984,-0.17573779,0.11783625,0.17222888,-0.01782054,0.00660974,-0.01027716,0.99744571,0.03006120,-0.03819549,0.05234015
1761620321995,-0.01677116,0.11934710,0.00540145,-0.03134358,0.00849239,0.00903624,0.99745018,0.02988411,-0.03814751,0.05239120
1761620322006,0.00468173,0.38143529,0.09521465,-0.01781334,0.00961126,0.01711985,0.99745019,0.02979148,-0.03809753,0.05248022
1761620322017,-0.11233112,-0.04187501,-0.00822021,0.01377188,-0.00300123,-0.00360623,0.99744827,0.02986998,-0.03811464,0.05245967
1761620322029,0.08438946,0.08708396,-0.11374232,0.02318600,0.00065357,-0.00839303,0.99744696,0.03000214,-0.03811091,0.05241183
1761620322031,1.97594942,1.90310655,-25.74348193,0.21145730,0.01497675,0.05414601,0.99743700,0.03024532,-0.03809369,0.05247410
1761620322040,-0.45400050,-0.49270905,5.81055922,0.09162852,0.01031325,0.01177053,0.99742293,0.03067139,-0.03804573,0.05252883
1761620322051,-0.02567740,-0.01522101,0.33164849,0.01892963,-0.00202373,0.01052850,0.99741631,0.03077456,-0.03805676,0.05258621
1761620322062,0.04917616,-0.13875810,-0.26525321,-0.01484813,-0.00593275,-0.01500264,0.99742178,0.03069512,-0.03808850,0.05250594
1761620322074,0.39340253,-0.17880337,0.21810065,-0.05217459,-0.01486048,-0.01768688,0.99743344,0.03038468,-0.03817692,0.05240071
1761620322086,0.01683628,-0.15947115,0.00505088,-0.04243383,-0.02961785,-0.00012907,0.99743438,0.03013220,-0.03835315,0.05239994
1761620322097,0.10185376,-0.09198036,0.06090990,-0.06750851,-0.02352961,-0.03688864,0.99745102,0.02976428,-0.03848139,0.05219890
1761620322108,-0.48775426,0.10813536,-0.07325381,-0.03255377,-0.03906269,-0.00653541,0.99744990,0.02958198,-0.03870014,0.05216230
1761620322118,0.12201022,0.06825539,0.00852556,-0.01445915,-0.03488546,-0.00814591,0.99744723,0.02950534,-0.03888503,0.05211912
1761620322130,-0.02804368,0.14964098,-0.12400899,0.03173049,-0.06188196,-0.02532990,0.99743579,0.02968304,-0.03923157,0.05197728
1761620322141,-0.01446216,0.11290208,0.00500733,0.06187819,-0.05895745,-0.07992653,0.99743559,0.03004502,-0.03957647,0.05150971
1761620322151,-0.14243206,0.13390648,-0.25953895,0.03720764,-0.04246053,-0.04527416,0.99743313,0.03023478,-0.03979302,0.05127881
1761620322163,0.02750134,-0.09756867,0.27040037,-0.02932947,-0.00604370,0.04545218,0.99742337,0.03006614,-0.03982777,0.05154016
1761620322175,0.00597322,-0.48913194,0.16773328,-0.03378082,-0.01032236,0.00798178,0.99742450,0.02986514,-0.03988919,0.05158765
1761620322185,0.07352591,-0.35821620,-0.03345556,-0.02279361,0.01140362,-0.01124871,0.99743352,0.02974547,-0.03982932,0.05152859
1761620322197,-0.05477404,0.01522982,0.14568995,-0.08351821,-0.00666126,0.03036650,0.99743729,0.02924854,-0.03986895,0.05170928
1761620322207,-0.02730488,0.32065913,-0.40618186,-0.04932542,0.01223792,-0.01134084,0.99744937,0.02901178,-0.03981021,0.05165484
1761620322219,-0.13669743,0.33439836,0.15282145,0.01614739,0.03256978,-0.03922460,0.99746620,0.02910705,-0.03961805,0.05142341
1761620322230,0.12548364,0.01319694,-0.08384708,-0.00475503,0.02147972,0.03262476,0.99746235,0.02908066,-0.03949884,0.05160448
1761620322241,0.06239816,0.00546641,0.01450204,-0.06410789,0.03647000,0.03839240,0.99746935,0.02873768,-0.03930372,0.05180988
1761620322265,-0.06893172,0.02330745,0.34372296,-0.04385650,0.01521880,0.01767121,0.99748070,0.02820263,-0.03911805,0.05202547
1761620322276,0.30171551,-0.58499478,-1.42987130,-0.11737633,0.04776567,0.02050355,0.99750292,0.02756293,-0.03885773,0.05213721
1761620322296,-0.13392170,0.30262979,0.50433951,0.01645606,0.00328875,-0.02534622,0.99751290,0.02772831,-0.03882468,0.05188248
1761620322298,36.59529689,-1.13735646,-111.49703931,0.04705065,0.11046407,0.63107681,0.99748589,0.02777066,-0.03872526,0.05245045
1761620322308,-6.16747279,0.35978198,19.07226413,0.03545017,-0.01187420,-0.01961180,0.99748374,0.02795146,-0.03878582,0.05235043
1761620322319,0.00208452,0.11940150,0.33862959,-0.02354707,0.00966612,0.00063977,0.99748954,0.02781488,-0.03872976,0.05235414
1761620322331,0.17918620,-0.03888157,-0.31092148,0.00030492,-0.03341134,0.05297871,0.99746659,0.02781659,-0.03891686,0.05265083
1761620322341,0.24773368,-0.00448510,-0.11042241,-0.02194824,0.01786918,0.06072021,0.99745715,0.02770795,-0.03882841,0.05295139
1761620322364,-0.26726872,0.00528565,0.42861162,-0.00583708,0.00531114,0.00894009,0.99745591,0.02763965,-0.03876627,0.05305599
1761620322365,39.02185337,-14.87123151,-101.68450510,-0.43685019,0.19053659,0.07211611,0.99746760,0.02731202,-0.03862336,0.05311008
1761620322375,-5.80542947,2.20701047,15.43508383,-0.04804544,0.03278862,0.02832000,0.99747277,0.02707899,-0.03846434,0.05324743
1761620322387,-0.05341623,0.03638606,-0.09202209,-0.03255899,0.00923865,0.01391816,0.99747568,0.02688690,-0.03840983,0.05332955
1761620322397,0.32851052,0.03634757,-0.80787646,0.00778984,-0.00560427,-0.04543060,0.99748537,0.02692468,-0.03843701,0.05310921
1761620322408,0.18463781,-0.06231189,0.07179932,-0.00352292,-0.00876129,-0.01788346,0.99748938,0.02690477,-0.03848651,0.05300817
1761620322419,0.39583945,0.14908163,-0.40517528,0.00153766,-0.03109474,-0.02099731,0.99748865,0.02691346,-0.03866220,0.05288953
1761620322431,-0.64784989,-0.10730004,0.42343447,-0.00787449,-0.01943729,-0.03290553,0.99749572,0.02686700,-0.03877688,0.05269539
1761620322474,-0.11524726,-0.02755971,0.29505289,-0.00418910,-0.00624267,-0.01349827,0.99750829,0.02677631,-0.03891203,0.05240315
1761620322478,55.63060743,1.83309098,-80.77050960,-0.58018365,-0.13684697,0.21064909,0.99750645,0.02584801,-0.03913099,0.05274019
1761620322497,-8.40230082,-0.24376343,12.43832981,-0.01164982,-0.05192782,-0.03044284,0.99750508,0.02573676,-0.03962690,0.05244946
1761620322509,-0.33013444,-0.16451192,0.06023530,-0.05552416,-0.06221607,-0.00552326,0.99750022,0.02538696,-0.04001886,0.05241466
1761620322530,-0.35633450,0.08337885,0.50099802,-0.00165262,-0.02028296,-0.01489180,0.99750030,0.02537002,-0.04022676,0.05226202
1761620322540,0.71442936,-0.05046807,-1.43285092,0.01758036,-0.03327853,-0.00265619,0.99749145,0.02546407,-0.04040480,0.05224781
1761620322552,-0.13852955,-0.42927698,0.43212597,0.02894884,-0.02357120,0.03074750,0.99747175,0.02563632,-0.04054505,0.05243076
1761620322564,-0.06758557,0.24152851,0.11176902,-0.01580725,-0.02901817,0.02444328,0.99745999,0.02554622,-0.04071045,0.05257009
1761620322575,0.40597184,-0.13234962,0.04704766,-0.00694684,-0.00687103,0.00864433,0.99745692,0.02550801,-0.04074824,0.05261763
1761620322586,0.07068077,0.01010445,-0.63821472,0.00131652,-0.02044462,0.00816097,0.99744957,0.02551545,-0.04086376,0.05266374
1761620322598,0.22830060,-0.15505938,0.33534786,0.00510956,-0.01626251,0.01081964,0.99744163,0.02554508,-0.04095808,0.05272649
1761620322599,65.91658341,-36.74591088,-205.13313726,-0.20552892,-0.26771830,-0.21612193,0.99744530,0.02541149,-0.04113209,0.05258601
1761620322609,-8.91865359,5.06709744,25.25261876,-0.04996148,-0.01962316,-0.03775433,0.99745800,0.02515169,-0.04123413,0.05238969
1761620322620,-0.03978046,-0.01057651,0.20157527,-0.05333297,-0.00235673,-0.01122468,0.99746787,0.02486369,-0.04124686,0.05232908
1761620322631,0.21334422,-0.40451812,-0.11590675,-0.03653205,0.00152499,0.00379313,0.99747208,0.02466459,-0.04123855,0.05234975
1761620322642,0.18668975,-0.14427088,-0.34016858,-0.08608146,-0.00430696,0.00877652,0.99747987,0.02420836,-0.04126138,0.05239627
1761620322653,0.05884417,0.11458820,0.49948316,-0.05157865,0.00015693,-0.01166679,0.99749049,0.02391436,-0.04126048,0.05232977
