UnixTime(ms),Ax,Ay,Az,Gx,Gy,Gz,QuatW,QuatX,QuatY,QuatZ
1757966387223,0.00000000,0.00000000,0.00000000,0.00000000,0.00000000,0.00000000,0.99834891,0.02435175,-0.01587835,0.04954122
1757966387350,0.00412828,-0.00272182,-0.01135368,-0.00169411,-0.00578127,-0.00158434,0.99835062,0.02424341,-0.01624806,0.04943990
1757966387366,0.92134364,-1.61548991,-5.84085528,-0.17850902,-0.03154360,0.02016784,0.99837123,0.02287782,-0.01648937,0.04959419
1757966387423,-0.24359133,0.40318011,1.46018891,-0.01494310,0.01121769,0.00044444,0.99838558,0.02244970,-0.01616798,0.04960692
1757966387436,0.30198405,-0.16970066,-1.58829289,-0.00342744,0.00585801,-0.01991044,0.99839317,0.02242725,-0.01612961,0.04947651
1757966387458,-0.02907455,0.16761815,0.60599635,-0.01649435,-0.03301671,-0.03999713,0.99841256,0.02224993,-0.01648454,0.04904654
1757966387478,0.06100961,0.05916210,0.21217872,-0.00299548,-0.04130959,-0.01154161,0.99841196,0.02221908,-0.01691003,0.04892766
1757966387496,-0.00576320,0.02378065,0.08443060,-0.00833475,-0.04246242,0.00068077,0.99840681,0.02214448,-0.01729007,0.04893375
1757966387511,-0.02706729,-0.09232902,0.03559191,-0.00941677,-0.04014336,-0.00000601,0.99840322,0.02207574,-0.01758312,0.04893371
1757966387525,-0.11486089,-0.02606945,0.12973633,-0.03445977,-0.02787660,-0.00095514,0.99840544,0.02182935,-0.01778244,0.04892688
1757966387536,-0.02377544,-0.07403118,-0.05238525,-0.02256215,-0.02090000,0.00587597,0.99840452,0.02170639,-0.01789634,0.04895890
1757966387546,-0.10802102,0.05576043,-0.22297988,-0.00213632,-0.01847434,0.00008046,0.99840303,0.02169539,-0.01799148,0.04895932
1757966387556,-0.06047633,0.21793744,0.06081460,-0.00148623,-0.03405732,0.00456023,0.99839911,0.02168818,-0.01815666,0.04898143
1757966387567,0.08716309,0.06089469,0.07230404,0.01759547,-0.01299010,0.00911668,0.99839329,0.02178407,-0.01822746,0.04903112
1757966387579,-0.03595038,0.03567317,0.21795796,0.01423015,-0.01304859,0.00817055,0.99838758,0.02186946,-0.01830575,0.04908014
1757966387591,-0.04755358,-0.03048558,0.08357922,0.00303540,-0.01877059,0.00550926,0.99838345,0.02188782,-0.01841931,0.04911347
1757966387603,-0.02531419,-0.06239263,0.05976884,-0.00542595,0.01021231,0.00557600,0.99838365,0.02185526,-0.01835804,0.04914693
1757966387614,-0.14361628,0.04063812,-0.08252879,-0.00384031,-0.00275872,-0.00529511,0.99838531,0.02183357,-0.01837362,0.04911701
1757966387626,0.06925515,-0.06441669,0.02919647,0.01758183,0.01262043,-0.00072475,0.99838459,0.02193994,-0.01829727,0.04911263
1757966387638,0.03190671,-0.09349354,-0.18928044,0.01182827,0.01401496,-0.00926436,0.99838712,0.02200617,-0.01821879,0.04906075
1757966387649,0.03432136,-0.00366996,0.09770462,-0.00961554,0.01199097,-0.01623014,0.99839418,0.02195089,-0.01814984,0.04896742
1757966387660,0.02253484,-0.04687246,-0.01442230,-0.02242711,0.00305529,-0.00903049,0.99839987,0.02182193,-0.01813227,0.04891550
1757966387673,-0.00377725,-0.02256793,0.10419126,-0.02819988,0.00215763,-0.00944264,0.99840662,0.02165132,-0.01811922,0.04885837
1757966387683,-0.05806336,-0.15956026,-0.20375663,-0.05920858,-0.01761710,-0.00671257,0.99841341,0.02133751,-0.01821259,0.04882279
1757966387695,0.02497503,0.00440760,0.10063953,-0.03728025,-0.00195092,-0.00333685,0.99841880,0.02111943,-0.01822400,0.04880327
1757966387706,-0.04616852,0.04507694,-0.00635096,-0.03040009,-0.02327292,-0.00917965,0.99842248,0.02095070,-0.01835317,0.04875233
1757966387718,0.03988212,0.00600174,0.03911719,-0.00721376,-0.02391057,0.00254385,0.99842005,0.02090850,-0.01849304,0.04876721
1757966387729,-0.10570123,0.08042570,-0.10519022,-0.00621704,-0.02563833,0.00854829,0.99841593,0.02087493,-0.01863149,0.04881337
1757966387740,-0.22770516,0.15051678,-0.14678496,0.00095509,-0.03625763,0.01483162,0.99840730,0.02088071,-0.01885085,0.04890310
1757966387751,0.03631007,0.05056478,-0.08294668,-0.00717320,-0.01884521,0.01122658,0.99840340,0.02084377,-0.01894790,0.04896092
1757966387762,0.21469250,-0.08530054,0.32173285,-0.01560358,-0.02165528,0.00962262,0.99840024,0.02075561,-0.01907025,0.04901529
1757966387773,0.12237527,-0.00745592,0.19098839,-0.01251004,-0.02650061,-0.01629307,0.99840337,0.02068430,-0.01922131,0.04892241
1757966387785,-0.02751830,-0.00412775,0.03669107,-0.01427992,-0.02649011,-0.01593307,0.99840659,0.02060291,-0.01937230,0.04883160
1757966387796,-0.04717996,-0.03101617,0.00383741,-0.02246159,-0.01969401,-0.00455884,0.99840823,0.02048049,-0.01947963,0.04880675
1757966387807,-0.06839142,-0.06015619,0.02053884,-0.02569056,-0.02475448,-0.00403957,0.99840957,0.02033534,-0.01961950,0.04878393
1757966387818,0.05837096,0.02560650,0.02224984,-0.02548465,-0.00313744,0.00096264,0.99841182,0.02019517,-0.01963675,0.04878922
1757966387829,-0.09542169,0.01301951,-0.00076026,-0.02003603,-0.02900144,-0.00492658,0.99841222,0.02008297,-0.01979916,0.04876163
1757966387841,-0.00095033,-0.04751646,-0.06082107,-0.03495919,-0.00900722,0.00391089,0.99841407,0.01988720,-0.01984960,0.04878353
1757966387852,-0.12767997,-0.09259806,-0.12571220,-0.02478469,-0.03013645,0.00096556,0.99841317,0.01974469,-0.02002288,0.04878909
1757966387863,-0.02216991,-0.01094099,-0.01640277,-0.02705301,-0.03205266,-0.00397176,0.99841361,0.01959725,-0.02019757,0.04876744
1757966387874,0.13039455,0.02596352,0.16165729,-0.04499632,-0.03325491,0.00372283,0.99841372,0.01934752,-0.02038214,0.04878810
1757966387885,0.06047058,-0.09917176,0.05998682,-0.03425172,-0.02339900,0.00539767,0.99841327,0.01915742,-0.02051200,0.04881806
1757966387896,-0.08447656,0.05141195,-0.04041039,-0.03507455,-0.02509522,-0.00204343,0.99841468,0.01896100,-0.02065253,0.04880662
1757966387907,-0.06272172,0.11213884,-0.00950329,0.00608159,-0.02487666,-0.00560527,0.99841267,0.01899506,-0.02079184,0.04877523
1757966387919,0.03870981,0.14216634,0.03681795,0.01655245,-0.00796885,0.00252802,0.99840931,0.01908693,-0.02083607,0.04878926
1757966387930,-0.10207435,0.11997364,-0.01548047,0.02385719,-0.02525973,-0.00874480,0.99840621,0.01921933,-0.02097626,0.04874072
1757966387941,-0.11253695,-0.01699034,-0.15799436,-0.00583862,-0.01413724,0.01100501,0.99840216,0.01918664,-0.02105543,0.04880235
1757966387952,-0.17538452,-0.09029504,-0.16316040,-0.00736149,-0.00955793,-0.00029255,0.99840190,0.01914505,-0.02110943,0.04880070
1757966387963,-0.02108591,-0.18217495,-0.02988733,-0.01302068,-0.00698717,0.00040409,0.99840235,0.01907343,-0.02114786,0.04880292
1757966387974,0.07497913,-0.01517262,0.25257793,-0.02695684,-0.01773928,-0.00317915,0.99840397,0.01892382,-0.02124632,0.04878528
1757966388003,0.05946355,0.00253929,0.06671677,-0.01112474,-0.00271688,-0.01222923,0.99841490,0.01876140,-0.02128598,0.04860673
1757966388011,-0.49868961,-0.07949152,-0.07561899,-0.05515557,0.01331302,-0.00003597,0.99842009,0.01854354,-0.02123340,0.04860659
1757966388024,0.20200453,-0.02671842,0.02103581,-0.03930099,0.02956489,0.02440752,0.99842112,0.01829201,-0.02104418,0.04876280
1757966388035,-0.23985809,-0.11740105,0.04261148,-0.03431781,0.02871415,0.00609096,0.99842619,0.01810498,-0.02088769,0.04879599
1757966388046,-0.02503974,-0.01434207,-0.01510864,-0.04738598,0.01915255,0.02370748,0.99842672,0.01783725,-0.02077948,0.04892994
1757966388058,0.17994021,-0.05949456,-0.09545331,-0.02374154,0.03121345,0.02223209,0.99842659,0.01769836,-0.02059688,0.04906000
1757966388070,0.11261961,-0.04755530,-0.21881410,-0.03949116,0.01447536,0.00844496,0.99843003,0.01746339,-0.02051075,0.04911024
1757966388082,-0.07988016,-0.00173820,0.00633615,-0.08285460,0.01709738,-0.04006384,0.99845138,0.01699112,-0.02041329,0.04888188
1757966388093,0.05463669,-0.02569379,0.00234822,-0.05101914,0.01055589,-0.02026023,0.99846368,0.01668755,-0.02035049,0.04876133
1757966388105,-0.00887600,0.16716406,0.01039066,-0.03231764,0.02163253,0.00102679,0.99846896,0.01650334,-0.02022718,0.04876718
1757966388116,-0.03434523,0.03344492,0.05695306,-0.05279138,0.01016741,0.01251226,0.99847153,0.01620771,-0.02017024,0.04883725
1757966388128,-0.04423268,-0.11662494,-0.00885919,-0.07030195,0.01019220,0.01177499,0.99847591,0.01579996,-0.02011113,0.04890555
1757966388139,-0.02941145,-0.22563785,-0.13255449,-0.06587091,0.01077920,0.01032256,0.99848028,0.01541132,-0.02004753,0.04896645
1757966388151,0.03326753,0.00124133,0.05526000,-0.08750959,0.00213012,0.00692864,0.99848621,0.01490814,-0.02003528,0.04900629
1757966388162,0.15094902,-0.00088872,0.14251507,-0.07130866,-0.00409500,0.02122781,0.99848581,0.01452307,-0.02005740,0.04912092
1757966388173,0.14406341,0.21347069,0.30677812,-0.06627303,0.00211745,-0.00075924,0.99849169,0.01414532,-0.02004533,0.04911659
1757966388184,-0.04415687,0.02038734,0.03907948,-0.04726165,-0.00521925,-0.00141522,0.99849524,0.01387829,-0.02007482,0.04910860
1757966388195,0.04270802,0.14540865,0.12087454,-0.02973399,-0.00313209,0.00677089,0.99849532,0.01371475,-0.02009204,0.04914584
1757966388207,0.05726565,0.10614748,0.01618179,-0.01252898,0.00368845,0.00055379,0.99849660,0.01364146,-0.02007046,0.04914908
1757966388218,-0.03863639,0.05065046,0.06355892,-0.02242942,-0.01245008,0.00218212,0.99849631,0.01352146,-0.02013707,0.04916075
1757966388229,0.03994935,-0.04974573,0.01675066,-0.03435571,-0.00935573,0.01000889,0.99849508,0.01332907,-0.02018946,0.04921680
1757966388240,-0.06224656,-0.17533573,-0.03231119,-0.04516572,0.00621842,-0.00073006,0.99849933,0.01307614,-0.02015464,0.04921271
1757966388251,-0.00030667,-0.05780556,0.03669701,-0.07123317,-0.00021735,0.00927131,0.99850187,0.01268080,-0.02015585,0.04926417
1757966388263,-0.00033643,-0.00693880,0.09098655,-0.04528186,0.00702037,-0.01586105,0.99851030,0.01242495,-0.02011618,0.04917455
1757966388274,0.10803056,-0.01791328,0.13222190,-0.02027575,0.01312637,-0.01012359,0.99851598,0.01231141,-0.02004267,0.04911786
1757966388285,-0.02448627,0.15914130,0.03325882,-0.03409503,-0.00637893,-0.02401394,0.99852413,0.01212218,-0.02007808,0.04898458
1757966388296,0.06370630,0.02379248,0.03926315,-0.01982007,-0.00438781,-0.03326097,0.99853409,0.01201119,-0.02010265,0.04879832
1757966388307,0.03495104,0.16180171,0.02702391,-0.02221310,-0.02139732,-0.02688136,0.99854057,0.01188568,-0.02022354,0.04864644
1757966388318,0.11299544,0.05944740,0.03543041,-0.00486504,-0.01658189,-0.00971399,0.99854164,0.01185868,-0.02031557,0.04859253
1757966388330,-0.03918494,-0.08707764,-0.11997364,-0.00904864,-0.01769874,-0.02851175,0.99854792,0.01180846,-0.02041380,0.04843429
1757966388341,-0.07635709,-0.21179177,-0.14636762,-0.01474805,-0.02508365,-0.01368808,0.99854976,0.01172440,-0.02055678,0.04835627
1757966388352,0.01279725,-0.10465757,0.09192193,-0.02727378,-0.01612599,-0.01868609,0.99855461,0.01157576,-0.02064467,0.04825443
1757966388363,-0.04029744,0.08938325,0.16546190,-0.01983633,-0.01984251,-0.01610985,0.99855794,0.01146467,-0.02075578,0.04816421
1757966388374,-0.02748820,0.08400228,0.19497444,-0.02106584,-0.02720067,-0.00187270,0.99855663,0.01134776,-0.02090675,0.04815382
1757966388385,0.09288282,0.04644141,0.08514258,-0.02290780,-0.02048315,0.00433901,0.99855452,0.01122062,-0.02102043,0.04817790
1757966388396,0.00822400,0.08175623,0.03676611,-0.00711914,-0.02715238,0.00983890,0.99854914,0.01118111,-0.02117112,0.04823251
1757966388408,0.02587293,0.13894069,0.03376665,-0.00596198,-0.03865784,-0.00248737,0.99854558,0.01114772,-0.02138761,0.04821858
1757966388419,0.13353633,0.07895299,0.06461714,0.03037955,-0.03940077,0.00066440,0.99853879,0.01131633,-0.02160628,0.04822227
1757966388430,-0.09195505,0.27004759,-0.06023888,0.04276989,-0.04978830,0.00071135,0.99852979,0.01155584,-0.02188510,0.04822625
1757966388441,-0.09249840,0.15226493,-0.04371159,0.06692007,-0.05926684,-0.01269378,0.99852156,0.01192725,-0.02221403,0.04815580
1757966388452,-0.01333885,0.02347998,0.13835423,0.05833181,-0.05104399,-0.02159506,0.99851702,0.01225390,-0.02249987,0.04803487
1757966388463,0.04415810,-0.12755711,0.09795710,0.05207294,-0.05331393,-0.00452462,0.99850802,0.01254031,-0.02279310,0.04800998
1757966388469,0.01951338,0.13770040,0.38537473,0.04365522,-0.04591024,-0.00162202,0.99850337,0.01267345,-0.02293313,0.04800503
1757966388474,0.08790747,-0.05312015,0.59536648,0.08716370,-0.03475823,0.00633557,0.99849770,0.01289572,-0.02302176,0.04802119
1757966388484,-0.08171574,0.01576450,-0.05396908,0.08496962,-0.02677232,0.00451650,0.99848883,0.01328233,-0.02314357,0.04804174
1757966388495,-0.09481204,0.02143082,-0.08845154,0.08109032,-0.02434618,0.03105482,0.99847145,0.01372833,-0.02327748,0.04821254
1757966388506,-0.00538787,0.08188340,0.02384596,0.05294994,-0.00218688,0.02906367,0.99845884,0.01403279,-0.02329005,0.04837966
1757966388517,-0.09084341,-0.07572320,0.06906612,0.04967315,-0.00978281,0.00510808,0.99845241,0.01430351,-0.02334337,0.04840750
1757966388528,0.04934590,-0.10465724,-0.06578249,0.01946300,-0.00058014,-0.00462270,0.99845203,0.01441056,-0.02334656,0.04838207
1757966388539,0.00363673,-0.27334479,-0.26559605,0.04507217,-0.00242103,-0.02330796,0.99845437,0.01466522,-0.02336024,0.04825038
1757966388550,-0.08417131,0.14969166,0.16313047,0.00666114,0.00463432,-0.02486974,0.99846097,0.01470152,-0.02333498,0.04811484
1757966388562,-0.09517536,-0.07600212,-0.04603529,0.01642055,-0.00561344,-0.01305239,0.99846245,0.01479676,-0.02336754,0.04803914
1757966388573,-0.02802499,0.15965068,0.39034804,0.00693229,0.02282445,0.01902884,0.99845974,0.01483523,-0.02324086,0.04814475
1757966388584,-0.05964842,-0.01874316,-0.00433990,0.01922054,0.00622154,0.00014445,0.99845890,0.01494383,-0.02320571,0.04814556
1757966388594,-0.02984114,-0.05952135,0.14388512,0.00789894,0.00765106,0.01866394,0.99845453,0.01498490,-0.02316593,0.04824262
1757966388606,0.11566357,-0.08469047,-0.29807774,-0.00244930,0.00765110,0.02109323,0.99844985,0.01497070,-0.02312155,0.04836496
1757966388617,-0.04347141,-0.03562999,0.06449346,0.00316142,-0.01009680,0.03162264,0.99844004,0.01498777,-0.02317607,0.04853572
1757966388628,0.12812570,-0.09309903,-0.12333677,0.02002654,-0.00065453,0.02099578,0.99843248,0.01510092,-0.02317977,0.04865434
1757966388639,0.01632015,-0.20594201,-0.00179362,0.02630076,0.00235457,0.01897341,0.99842555,0.01524426,-0.02316694,0.04875775
1757966388650,-0.07781954,-0.16966381,-0.14133029,0.00658014,-0.00856501,0.00064278,0.99842372,0.01528078,-0.02321448,0.04876132
1757966388661,0.12264862,0.07595809,-0.01111235,0.02926667,0.00002964,0.03060937,0.99841301,0.01544174,-0.02321431,0.04892967
1757966388673,0.05488257,0.42590843,0.05850863,0.04450109,0.00485145,0.03004691,0.99840118,0.01569763,-0.02318642,0.04910244
1757966388684,0.08290628,0.15620477,0.04328581,0.09817637,0.01441569,0.01619322,0.99838969,0.01625232,-0.02310497,0.04919393
1757966388695,0.05443454,0.09738371,0.05856785,0.02764260,0.01809477,0.03045145,0.99838132,0.01640297,-0.02300635,0.04935989
1757966388706,0.06070332,-0.07224197,-0.06220837,0.05086389,0.00283259,0.00816283,0.99837488,0.01668018,-0.02299091,0.04940438
1757966388717,0.08312320,-0.07886640,0.01098031,0.00337430,0.00042447,-0.03199829,0.99838354,0.01669925,-0.02298852,0.04922359
1757966388728,-0.18918362,-0.17593344,-0.05690794,-0.00755673,-0.01257182,-0.07987511,0.99840383,0.01665844,-0.02305640,0.04879226
1757966388739,-0.17437791,-0.12975059,-0.29028209,-0.04104920,-0.01832749,-0.02842936,0.99841328,0.01642241,-0.02316179,0.04862879
1757966388750,0.04888968,-0.02650610,0.01489154,0.00994684,-0.01401733,-0.00675423,0.99841239,0.01647761,-0.02323958,0.04859131
1757966388761,0.18653383,-0.03440366,0.15070763,0.00969193,-0.01665111,-0.01792739,0.99841413,0.01652995,-0.02332950,0.04849450
1757966388772,0.11535940,0.20777011,0.08799344,0.02743053,-0.03332503,0.00553066,0.99840569,0.01668356,-0.02351612,0.04852547
1757966388784,0.09465454,0.14338010,0.08525619,0.03816165,-0.01099809,0.04493608,0.99838823,0.01689917,-0.02357826,0.04877936
1757966388795,-0.03433017,0.05278600,0.04544819,0.03515272,-0.01986831,0.02959646,0.99837426,0.01709427,-0.02368853,0.04894362
1757966388806,0.06225404,0.04804851,0.07281610,0.02257324,-0.01166627,-0.00913505,0.99837306,0.01721842,-0.02375269,0.04889338
1757966388817,-0.02143470,-0.15491150,0.01345360,0.00695273,-0.01924718,0.01732919,0.99836535,0.01725597,-0.02385663,0.04898696
1757966388828,-0.00649051,-0.00041658,0.00763273,-0.01241052,-0.00041356,-0.00868008,0.99836885,0.01718709,-0.02385892,0.04893878
1757966388839,-0.08933950,-0.03545327,-0.13568303,0.02492734,-0.01024164,-0.00466577,0.99836634,0.01732668,-0.02391627,0.04891265
1757966388850,-0.10723162,0.16155148,0.03821741,0.03755513,-0.00706688,-0.02587718,0.99836879,0.01753511,-0.02395550,0.04876903
1757966388861,-0.01644800,-0.02709082,-0.09094776,0.04255876,0.00331070,-0.01002317,0.99836777,0.01777132,-0.02393712,0.04871341
1757966388873,0.06347718,-0.14312373,-0.12370635,0.02329537,0.01359672,0.00422000,0.99836603,0.01790759,-0.02385758,0.04873809
1757966388883,0.09211532,0.01767450,0.14871530,0.03124934,0.03296160,-0.00845084,0.99836936,0.01807165,-0.02368453,0.04869373
1757966388895,-0.08679899,-0.01261380,-0.23578951,0.01805225,0.01293061,-0.00127751,0.99836960,0.01817636,-0.02360953,0.04868632
1757966388906,0.06244179,0.03611059,0.12421038,0.04393695,0.03961188,-0.00137703,0.99837064,0.01841142,-0.02339761,0.04867895
1757966388917,-0.02709762,-0.05963687,-0.12588472,0.04838062,0.01649703,-0.00436960,0.99836899,0.01867751,-0.02330688,0.04865492
1757966388928,-0.03039801,0.01825992,-0.05685554,0.04805801,0.01836189,-0.03202587,0.99837498,0.01894423,-0.02320497,0.04847717
1757966388939,-0.10642823,0.00919153,-0.10836329,0.03093889,0.01686668,-0.03528458,0.99838337,0.01911594,-0.02311136,0.04828134
1757966388950,0.09775195,-0.02398555,-0.02538625,0.03254908,0.04144894,0.00467911,0.99838395,0.01930147,-0.02287510,0.04830801
1757966388961,-0.13544554,0.00962858,-0.10844250,0.03586723,0.00719086,-0.01230933,0.99838429,0.01949516,-0.02283627,0.04824154
1757966388972,0.18065053,0.01524046,0.08362897,0.00940537,0.03819448,-0.00747968,0.99839016,0.01954783,-0.02262238,0.04819966
1757966388983,0.01290437,-0.14505322,-0.04771186,0.00697268,0.00448976,-0.01934402,0.99839509,0.01958618,-0.02259769,0.04809327
1757966388994,0.05147328,-0.06851009,0.03735658,-0.01881613,0.01007701,-0.03818577,0.99840871,0.01948081,-0.02254126,0.04787943
1757966389006,0.06576547,-0.18556837,-0.08933621,-0.02215030,-0.00981926,-0.00879001,0.99841230,0.01935455,-0.02259723,0.04782932
1757966389017,-0.03711574,0.01253328,0.06852963,-0.02886179,-0.00054666,-0.02272506,0.99842111,0.01919870,-0.02260018,0.04770661
1757966389028,-0.02214668,-0.01932864,-0.16647179,-0.00031108,0.00295673,-0.00112402,0.99842183,0.01919694,-0.02258347,0.04770026
1757966389039,0.07970502,0.03785689,0.08582730,-0.00242488,0.00153936,0.00510597,0.99842094,0.01918372,-0.02257508,0.04772808
1757966389050,-0.08780082,0.04636560,-0.08458801,0.02056180,0.00182555,0.00844941,0.99841669,0.01929887,-0.02256486,0.04777540
1757966389061,-0.00083363,0.16287320,0.02406729,0.02967127,0.01277760,0.01265485,0.99841173,0.01946354,-0.02249394,0.04784563
1757966389072,-0.14899952,0.10933082,0.01548047,0.02184063,0.01606638,0.00761173,0.99840934,0.01958476,-0.02240477,0.04788788
1757966389084,-0.02039081,-0.10513975,-0.04561593,0.00473089,0.00818208,-0.00485361,0.99841118,0.01961173,-0.02235814,0.04786021
1757966389094,0.03575312,-0.03636050,0.16831232,-0.01954984,0.01140574,-0.01559835,0.99841860,0.01950713,-0.02229712,0.04777676
1757966389105,0.01107533,-0.19786830,-0.10414542,-0.00982255,-0.00706464,-0.01319574,0.99842232,0.01945213,-0.02233668,0.04770287
1757966389117,0.01013314,0.11289426,0.13287979,-0.02774440,-0.01067777,-0.02078993,0.99842948,0.01929815,-0.02239594,0.04758748
1757966389128,0.00241882,-0.05079529,-0.08320752,-0.01805560,-0.01835122,-0.00318569,0.99842997,0.01919794,-0.02249779,0.04756980
1757966389139,0.09645769,-0.05370208,-0.12473013,0.00235388,-0.00181981,0.00131082,0.99842913,0.01921124,-0.02250807,0.04757721
1757966389150,-0.02506626,0.08429118,-0.00152724,-0.01166315,-0.00714172,0.01333675,0.99842600,0.01914767,-0.02254699,0.04764989
1757966389161,-0.01552929,-0.17081331,-0.13856085,0.01058922,0.01186992,0.00696595,0.99842452,0.01920644,-0.02248112,0.04768855
1757966389172,-0.20172987,0.09433411,0.09288282,-0.01525608,0.00422086,0.00500287,0.99842534,0.01912177,-0.02245769,0.04771632
1757966389183,0.05273035,-0.03724988,0.06772705,-0.01573036,0.01501649,-0.00362234,0.99842984,0.01903447,-0.02237435,0.04769622
1757966389194,-0.06865486,0.02046632,-0.01217449,-0.00353888,0.00459790,-0.01009118,0.99843349,0.01901465,-0.02234860,0.04763971
1757966389206,0.04702020,0.08868011,-0.05737795,0.00783099,0.00453230,-0.00614682,0.99843486,0.01905811,-0.02232345,0.04760559
1757966389217,0.06621715,0.06258374,-0.01524012,0.01903946,0.00543043,-0.00185754,0.99843398,0.01916569,-0.02229276,0.04759510
1757966389228,-0.03596855,-0.06283052,-0.06103013,0.00642046,-0.00545083,0.00708896,0.99843077,0.01920100,-0.02232274,0.04763409
1757966389239,-0.01676904,0.18722132,0.06244962,0.00268768,-0.00111206,0.00450365,0.99842916,0.01921592,-0.02232892,0.04765908
1757966389250,-0.01608274,0.11156289,0.10840758,-0.01627039,-0.00305878,-0.00444533,0.99843166,0.01912643,-0.02234574,0.04763463
1757966389261,0.00612530,-0.20197950,-0.02477767,-0.01432179,-0.00949145,-0.01037904,0.99843478,0.01904623,-0.02239889,0.04757651
1757966389272,0.01473010,-0.12401796,-0.06462238,-0.01856388,-0.01685925,-0.01182121,0.99843779,0.01894227,-0.02249330,0.04751031
1757966389283,0.09698949,-0.09614504,-0.09222183,0.02194240,-0.01308334,-0.00462454,0.99843508,0.01906295,-0.02256526,0.04748487
1757966389295,-0.08108598,0.16015202,-0.05791613,0.01282628,-0.02405029,-0.00390380,0.99843166,0.01913542,-0.02270114,0.04746282
1757966389306,0.11026757,-0.11754859,0.10553934,0.01769831,-0.01025596,-0.01540876,0.99843252,0.01923188,-0.02275704,0.04737884
1757966389317,-0.02810446,0.15035689,0.00638203,-0.03283950,-0.02235699,0.00197690,0.99843266,0.01904797,-0.02288224,0.04738991
1757966389328,0.02331141,-0.19478871,-0.06983489,-0.02033509,-0.01964264,0.01375261,0.99842868,0.01893511,-0.02299126,0.04746624
1757966389339,-0.13904343,-0.06496484,-0.11325184,-0.00130533,-0.02449933,-0.00692326,0.99842749,0.01892780,-0.02312845,0.04742747
1757966389350,-0.02206050,0.14021966,-0.12409422,-0.02346148,-0.02914338,0.01874877,0.99842135,0.01879994,-0.02328728,0.04752965
1757966389361,0.02311863,0.10733362,-0.06960885,0.02804369,-0.02734292,0.00471124,0.99841361,0.01895558,-0.02343904,0.04755580
1757966389372,0.06158287,0.11150437,0.02180044,0.03183712,-0.03184372,-0.01694037,0.99841050,0.01913546,-0.02361895,0.04746008
1757966389383,-0.00265481,0.01208397,0.04294778,0.01312277,-0.03154702,-0.03672546,0.99841457,0.01920764,-0.02379246,0.04725809
1757966389395,-0.10325758,0.06994423,0.06285995,-0.03368065,-0.05204493,-0.01458392,0.99841506,0.01901903,-0.02408391,0.04717642
1757966389405,0.17390392,0.00809855,0.07881757,-0.03226398,-0.01333737,0.01550160,0.99841264,0.01884319,-0.02415660,0.04726091
1757966389417,-0.15857273,0.00400326,0.01695395,-0.04071232,-0.03347804,0.01671902,0.99840797,0.01861723,-0.02434241,0.04735370
1757966389428,-0.11991082,-0.04008522,-0.02501331,-0.04970164,-0.02075614,-0.00086109,0.99841053,0.01833642,-0.02445968,0.04734883
1757966389439,-0.10566060,-0.06279129,-0.25174059,-0.04392678,-0.04349760,0.01921863,0.99840403,0.01809482,-0.02469891,0.04745453
1757966389450,0.03956315,-0.09821302,0.07949573,-0.01255350,-0.01991663,0.01162508,0.99839948,0.01802515,-0.02480945,0.04751905
1757966389461,0.01935059,0.02370447,0.13351905,-0.00278541,-0.03670764,0.03210083,0.99838618,0.01800969,-0.02501318,0.04769721
1757966389485,-0.03599229,0.08396147,0.08520903,0.01779286,-0.01600422,0.03955576,0.99835495,0.01822143,-0.02520363,0.04816793
1757966389496,-0.01619392,0.22101541,-0.02015551,0.04270892,-0.01303291,0.02508847,0.99834204,0.01845846,-0.02527596,0.04830717
1757966389507,0.00048376,0.03096094,0.02128565,0.04796862,-0.01799411,0.01222826,0.99833126,0.01872469,-0.02537583,0.04837504
1757966389519,0.08385955,0.00225605,0.05246380,0.03778048,-0.01293627,0.02789367,0.99831713,0.01894759,-0.02545215,0.04853961
1757966389529,-0.13782475,-0.02707739,-0.03060550,0.04673403,-0.01433416,0.01037966,0.99830804,0.01918827,-0.02552597,0.04859306
1757966389540,-0.06478219,-0.21867102,-0.11058015,0.03598950,-0.01713210,0.02261178,0.99829563,0.01938801,-0.02562106,0.04871856
1757966389551,-0.00061398,0.00403291,0.00792284,-0.00058941,0.00291425,0.00699309,0.99829419,0.01938468,-0.02560459,0.04875807
1757966389563,0.06738457,0.02782289,0.04805110,0.00939053,-0.00441679,0.00241198,0.99829189,0.01943680,-0.02562911,0.04877146
1757966389574,0.06192188,0.00290259,0.01354541,0.01374120,-0.00989103,0.01053195,0.99828614,0.01951306,-0.02568400,0.04882991
1757966389585,-0.00751913,0.02676694,-0.04556897,0.01895334,-0.00037431,-0.02220969,0.99829011,0.01962015,-0.02568612,0.04870442
1757966389596,-0.02375656,0.08545881,-0.01214688,0.01795783,-0.00290122,-0.00811103,0.99828993,0.01971802,-0.02570193,0.04866022
1757966389607,-0.00590686,0.01534912,-0.05947840,0.03384058,0.00685990,0.01360056,0.99828345,0.01990753,-0.02566351,0.04873638
1757966389618,-0.02788126,0.07023658,0.01383912,0.03767532,0.00763868,0.00865580,0.99827800,0.02011663,-0.02562112,0.04878442
1757966389630,-0.03997012,0.01706392,-0.03912411,0.03268735,0.00509187,0.01495040,0.99827068,0.02030621,-0.02559158,0.04887113
1757966389640,-0.18158852,0.10518122,-0.04613340,0.03356845,0.01539590,0.00421959,0.99826803,0.02048413,-0.02550999,0.04889350
1757966389652,-0.00554425,-0.17172654,-0.16383511,0.02771357,0.01169143,0.01535620,0.99826224,0.02064071,-0.02544393,0.04898026
1757966389663,-0.02392113,-0.06782534,-0.03688354,0.01859811,0.01628214,0.00296419,0.99826156,0.02074951,-0.02534868,0.04899760
1757966389674,0.03467025,-0.06598392,0.04289123,0.03735380,0.02214010,0.00813714,0.99825837,0.02094188,-0.02523466,0.04903951
1757966389685,0.04551615,0.01462566,-0.08976418,0.03303020,0.02403791,0.01342236,0.99825421,0.02112520,-0.02510125,0.04911400
1757966389696,-0.00719953,0.04925284,-0.11438502,0.04596444,0.03499536,-0.00039701,0.99825374,0.02138489,-0.02490352,0.04911176
1757966389707,0.02548008,0.01503957,-0.00932889,0.03021741,0.03245796,0.01112200,0.99825160,0.02155109,-0.02472500,0.04917293
1757966389718,0.02514053,-0.12920157,-0.07809978,0.03105193,0.02634544,0.01386276,0.99824764,0.02172498,-0.02457747,0.04925056
1757966389729,0.09361710,-0.11028539,-0.08576456,0.01784527,0.02693741,-0.00112538,0.99824946,0.02182402,-0.02442797,0.04924431
1757966389741,0.08369129,-0.06482447,-0.15480469,0.00388412,0.02275170,0.00874154,0.99824968,0.02184558,-0.02430170,0.04929283
1757966389752,-0.05304605,-0.03479071,-0.08237403,0.00525381,0.00806264,-0.00428743,0.99825133,0.02187526,-0.02425614,0.04926861
1757966389763,0.07263022,0.05680598,0.05616516,0.01017079,0.02264156,-0.00212055,0.99825370,0.02193120,-0.02413161,0.04925694
1757966389774,0.03168916,0.07778012,0.00407778,0.00861185,0.01146349,0.01298680,0.99825059,0.02197943,-0.02406742,0.04932967
1757966389785,-0.03423573,0.06316720,-0.08099758,0.01191585,0.01568144,-0.00009483,0.99825125,0.02204497,-0.02398117,0.04932915
1757966389796,0.06926172,-0.04778428,-0.06679950,0.00279330,0.01849075,0.01244712,0.99824994,0.02206061,-0.02387762,0.04939885
1757966389807,0.03164771,-0.04407874,-0.04497284,0.00456762,0.01670779,0.00497305,0.99825023,0.02208596,-0.02378489,0.04942645
1757966389818,-0.00048376,-0.04595764,-0.09481787,0.00409400,0.01260267,-0.00425979,0.99825256,0.02210868,-0.02371495,0.04940281
1757966389830,0.09788390,0.01273099,-0.15796012,-0.00099194,0.00581154,-0.00049644,0.99825359,0.02210313,-0.02368240,0.04940003
1757966389841,0.12693256,0.07630028,-0.09313666,-0.01813424,0.01334082,-0.00848395,0.99825984,0.02200339,-0.02360903,0.04935337
1757966389852,-0.03723562,-0.16141773,-0.13090352,-0.01432716,0.00580889,-0.00816126,0.99826463,0.02192316,-0.02357650,0.04930766
1757966389863,0.01135983,-0.01846944,0.15542668,-0.05292217,0.01316660,-0.00350690,0.99827372,0.02162944,-0.02350342,0.04928820
1757966389874,-0.03659059,-0.13954972,-0.01510555,-0.01699156,0.01469575,0.00198992,0.99827720,0.02153344,-0.02342039,0.04929944
1757966389885,-0.01428541,0.07807498,-0.06320978,-0.01498768,0.01533409,-0.00589833,0.99828255,0.02145100,-0.02333606,0.04926700
1757966389896,0.00690024,0.03905300,-0.05743606,-0.00089015,0.02047780,-0.00091579,0.99828556,0.02144606,-0.02322240,0.04926192
1757966389908,-0.02137007,0.04632248,-0.02429544,-0.01091011,0.01222444,-0.00689625,0.99829045,0.02138387,-0.02315272,0.04922261
1757966389919,0.03742811,-0.07176267,-0.02148934,-0.01310056,0.02003463,-0.00861706,0.99829693,0.02131117,-0.02304153,0.04917479
1757966389930,0.04785768,-0.10416057,-0.01734308,-0.01109356,0.01705504,0.00200762,0.99829985,0.02125015,-0.02294773,0.04918583
1757966389941,0.05363013,-0.00041163,-0.04173967,-0.00625571,0.01191814,-0.00617244,0.99830386,0.02121481,-0.02288039,0.04915096
1757966389952,0.07937771,-0.03961947,-0.06667442,-0.00315948,0.00819065,0.00055410,0.99830514,0.02119711,-0.02283452,0.04915406
1757966389963,0.05451996,-0.02947954,-0.09363544,-0.00990853,0.01064245,-0.00795183,0.99830966,0.02114410,-0.02277759,0.04911152
1757966389974,-0.07648003,0.16768097,0.16883839,-0.02352485,0.01149383,-0.00754210,0.99831592,0.02101354,-0.02271380,0.04906966
1757966389985,-0.04898904,-0.02017951,-0.04746509,-0.01210250,0.00907636,0.00940312,0.99831591,0.02094577,-0.02266297,0.04912231
1757966389996,-0.00329997,0.01407237,-0.01402918,-0.00616203,0.01556455,0.00239311,0.99831793,0.02091157,-0.02257659,0.04913560
1757966390008,0.01466186,0.06471762,-0.04099310,-0.01006276,0.01623054,0.01744681,0.99831631,0.02085371,-0.02248326,0.04923592
1757966390020,0.03159156,0.09909002,-0.06663823,0.00232639,0.01980278,0.01200045,0.99831512,0.02086778,-0.02236345,0.04930852
1757966390031,-0.02884869,0.07592373,-0.19307646,0.02235912,0.01387837,-0.00611516,0.99831590,0.02098964,-0.02228782,0.04927519
1757966390042,0.11473263,0.02233274,-0.28281447,0.01777698,0.00629837,-0.02307545,0.99832096,0.02108919,-0.02225255,0.04914597
1757966390054,0.06550506,-0.07581616,0.08227205,-0.01264994,0.00822045,-0.02818904,0.99833133,0.02101772,-0.02220610,0.04898670
1757966390064,0.06735547,-0.05913820,0.05513637,-0.04028624,0.00571421,-0.00831548,0.99833891,0.02079614,-0.02217467,0.04894097
1757966390076,-0.10705890,-0.14244570,0.34180748,-0.04848261,0.00283649,0.01072030,0.99834194,0.02052464,-0.02215879,0.04900100
1757966390087,-0.02702171,0.05186648,0.06228470,-0.04070224,0.00896209,0.00270523,0.99834692,0.02029874,-0.02210905,0.04901601
1757966390098,0.12529505,0.05127905,0.02515576,-0.01328564,0.00254809,0.01788314,0.99834386,0.02022501,-0.02209491,0.04911526
1757966390109,0.03628235,0.01306165,-0.05418164,0.00235202,-0.01278015,-0.00165713,0.99834247,0.02023806,-0.02216584,0.04910607
1757966390120,0.08808487,0.11634470,0.11822028,-0.01013940,-0.01905500,-0.00275413,0.99834200,0.02018077,-0.02227350,0.04909051
1757966390131,-0.00688590,-0.10969929,0.05139338,-0.00950929,-0.03008133,-0.00100864,0.99833965,0.02012895,-0.02243744,0.04908501
1757966390142,0.04153985,-0.04026257,0.08094363,-0.01371155,-0.02409447,-0.00689283,0.99834005,0.02005216,-0.02257237,0.04904641
1757966390154,-0.02340001,0.03809997,0.07471908,-0.01842138,-0.02568703,-0.00011204,0.99833885,0.01994624,-0.02272007,0.04904577
1757966390165,0.16163471,0.00212653,0.01465045,0.00891219,-0.01348972,-0.00146352,0.99833666,0.01999348,-0.02279156,0.04903801
1757966390176,-0.06481534,0.16884756,0.17083282,-0.00151760,-0.02761188,0.00583519,0.99833172,0.01998505,-0.02294481,0.04907039
1757966390187,-0.02444980,0.07679776,0.05138915,0.00737313,-0.02629953,-0.00128253,0.99832782,0.02002671,-0.02309340,0.04906315
1757966390198,0.02225420,-0.02828311,-0.01783824,0.02216791,-0.01322688,-0.01305327,0.99832721,0.02014863,-0.02316615,0.04899135
1757966390209,-0.05905000,0.02454441,0.07640646,-0.00599882,-0.01962684,-0.00651353,0.99832712,0.02011504,-0.02327606,0.04895488
1757966390221,0.01419322,-0.05470082,0.03023737,0.00612610,-0.01016971,-0.00281094,0.99832584,0.02014996,-0.02333403,0.04893886
1757966390231,-0.01817568,0.02218529,-0.05242635,0.02327083,-0.01223283,-0.00822987,0.99832395,0.02027446,-0.02339947,0.04889483
1757966390242,-0.14929485,-0.03076900,0.08213791,0.05103380,0.00048269,-0.03411982,0.99832754,0.02056280,-0.02339675,0.04870205
1757966390254,0.02097452,0.15010575,0.11890047,0.00749516,-0.00021288,-0.02118292,0.99833242,0.02060477,-0.02339794,0.04858343
1757966390265,-0.01473010,0.09503292,-0.00190066,0.02782383,-0.00572886,-0.01471512,0.99833245,0.02076059,-0.02343002,0.04850102
1757966390276,0.13461184,0.02346691,0.03310333,0.03847747,-0.00263416,-0.00254537,0.99832833,0.02097414,-0.02344464,0.04848689
1757966390287,-0.01319331,-0.00235014,-0.00429789,0.03656755,-0.00609865,-0.00937015,0.99832575,0.02117891,-0.02347879,0.04843442
1757966390298,0.03203662,-0.02571198,0.05021005,0.01354176,-0.00033866,-0.01102349,0.99832706,0.02125339,-0.02348066,0.04837379
1757966390310,-0.04263082,-0.09722424,0.04403120,0.01089207,-0.01534920,-0.01188860,0.99832696,0.02131493,-0.02356738,0.04830662
1757966390320,0.05578863,-0.07407999,0.01148981,0.01580297,-0.01481938,-0.00113487,0.99832351,0.02140106,-0.02364814,0.04830044
1757966390331,-0.02528079,-0.08730325,-0.01917978,0.00633652,-0.01499614,0.00049611,0.99832067,0.02143591,-0.02373062,0.04830316
1757966390343,-0.13670917,0.00511450,-0.01955950,0.00764355,-0.00484027,-0.00440571,0.99832030,0.02147871,-0.02375773,0.04827849
1757966390354,-0.02752678,0.05454731,0.02619790,0.01654879,-0.00292866,0.00164068,0.99831737,0.02157470,-0.02377471,0.04828801
1757966390365,-0.02459882,0.16658624,0.00443416,0.02660395,0.00628339,0.00098772,0.99831482,0.02171703,-0.02374110,0.04829329
1757966390376,0.02064968,-0.03175609,0.05796120,0.04365499,0.01310248,0.00111870,0.99831092,0.02196150,-0.02366772,0.04829956
1757966390387,0.06224656,0.03563734,0.04371514,0.01122579,0.01194982,0.00195457,0.99831059,0.02202436,-0.02360081,0.04831050
1757966390399,0.00333006,-0.02886607,0.06128309,0.02204131,0.00635630,-0.00019628,0.99830873,0.02214889,-0.02356489,0.04830939
1757966390409,0.03303500,-0.01254019,-0.04835185,0.01271617,0.00702821,-0.01664410,0.99831245,0.02221756,-0.02352694,0.04821952
1757966390421,-0.05006802,-0.06576365,0.00825549,0.01470799,-0.00320205,-0.00675665,0.99831201,0.02230140,-0.02354519,0.04818100
1757966390432,0.04156466,-0.01302609,0.01494479,0.01220018,-0.00270138,-0.01353266,0.99831373,0.02236789,-0.02355991,0.04810725
1757966390443,-0.06369272,-0.09536821,-0.26261764,0.02219695,-0.00380710,-0.00805350,0.99831261,0.02249108,-0.02358104,0.04806255
1757966390454,0.01466161,0.07897578,0.01304776,0.01650280,-0.00618940,-0.00052001,0.99830985,0.02258350,-0.02361570,0.04805964
1757966390465,0.01948175,-0.00712747,-0.04371514,0.02395192,-0.01302784,0.00879761,0.99830270,0.02271763,-0.02368866,0.04810891
1757966390476,0.07874998,0.10504604,0.22638459,0.02540053,-0.01104003,0.00190978,0.99829752,0.02285860,-0.02374993,0.04811951
1757966390488,-0.02504253,0.02934966,-0.01266248,0.02721861,-0.02135623,0.00411336,0.99828972,0.02301783,-0.02387487,0.04814357
1757966390499,0.03969725,0.01012978,-0.06174419,0.03414491,-0.01457097,0.00478446,0.99828198,0.02321075,-0.02395719,0.04817060
1757966390510,-0.02475025,0.05485032,-0.02769423,0.02527966,-0.01776597,-0.01472707,0.99828032,0.02334726,-0.02405313,0.04809108
1757966390521,-0.03175999,-0.10306032,-0.11855228,0.03974438,-0.01523547,0.00077125,0.99827323,0.02355790,-0.02413388,0.04809516
1757966390532,-0.06741984,-0.08311739,-0.00422293,0.03700123,-0.00192664,0.00487218,0.99826662,0.02376881,-0.02414486,0.04812294
1757966390544,-0.06512665,-0.08668266,-0.29903223,0.03710715,0.00196298,0.00171883,0.99826136,0.02398032,-0.02413367,0.04813273
1757966390554,-0.03633327,-0.03079544,-0.12236700,0.05725165,0.02082675,0.00417899,0.99825535,0.02429807,-0.02401808,0.04815593
1757966390566,-0.03918494,0.00725647,-0.07546729,0.04390262,0.03346966,0.00280484,0.99825309,0.02454173,-0.02383232,0.04817149
1757966390577,-0.06816977,0.02141407,0.16120663,0.05477253,0.02851744,0.00374066,0.99824842,0.02484024,-0.02367690,0.04819188
1757966390588,-0.05850374,-0.10120761,-0.05140116,0.03923674,0.02683783,-0.01763053,0.99825129,0.02506389,-0.02352393,0.04809139
1757966390599,0.05252666,-0.06076339,-0.03584951,0.00536034,0.03602627,-0.01724313,0.99825984,0.02509364,-0.02332398,0.04799569
1757966390610,0.00096753,-0.07159717,-0.07740235,-0.00571912,0.02856424,0.00842256,0.99826208,0.02506190,-0.02316545,0.04804243
1757966390621,-0.04190438,-0.04862518,-0.08862890,0.00055122,0.02520182,-0.00630022,0.99826697,0.02506498,-0.02302432,0.04800715
1757966390632,0.04670027,-0.04244280,-0.14102445,0.00071147,0.03589831,-0.00018028,0.99827145,0.02506890,-0.02282688,0.04800616
1757966390643,0.26884562,-0.06174596,-0.55064733,-0.00865087,0.03134864,0.00612462,0.99827498,0.02502088,-0.02265290,0.04804015
1757966390655,0.01623387,0.07732638,-0.07618905,0.00254522,0.02414775,0.00304348,0.99827693,0.02503565,-0.02251284,0.04805780
1757966390665,0.18652935,-0.12794467,-0.48575530,0.01449817,0.02172837,-0.02071651,0.99828243,0.02510669,-0.02240637,0.04795629
1757966390677,-0.30909367,0.10112966,0.71632924,-0.01954970,0.00373494,-0.04537245,0.99829864,0.02499134,-0.02238433,0.04768859
1757966390688,0.05693348,-0.00770528,0.05479312,-0.05154572,-0.00451551,-0.03250537,0.99831475,0.02468722,-0.02241097,0.04749681
1757966390699,0.12197426,-0.06002507,-0.19651108,-0.04620368,-0.00467008,-0.02575559,0.99832671,0.02444234,-0.02243573,0.04736031
1757966390709,0.04915491,-0.07415638,-0.05005596,-0.05061052,-0.00600122,-0.02766574,0.99833911,0.02418170,-0.02246663,0.04721783
1757966390721,-0.07825955,-0.05129162,0.19953813,-0.05689681,-0.01661519,-0.00544554,0.99834668,0.02383747,-0.02256715,0.04718488
1757966390732,0.02344588,0.01372231,-0.44456090,-0.06835945,-0.02329131,-0.00463443,0.99835349,0.02348201,-0.02268827,0.04716079
1757966390743,0.03290882,-0.04167463,0.05621250,-0.06007655,-0.02810404,-0.00290799,0.99835857,0.02314257,-0.02284706,0.04714435
1757966390755,-0.05555207,0.04916766,0.05558860,-0.05008589,-0.02884582,-0.02011136,0.99836678,0.02285708,-0.02301148,0.04702972
1757966390765,0.08189799,-0.09292923,0.08299048,-0.04222372,-0.02454924,-0.00175104,0.99836926,0.02263752,-0.02313913,0.04702061
1757966390776,-0.12588206,0.14116043,0.16988961,-0.03917631,-0.01656168,-0.00987048,0.99837466,0.02241813,-0.02323188,0.04696534
1757966390788,-0.05382880,0.01530968,0.05987025,-0.02977571,-0.00853843,0.00599142,0.99837574,0.02224395,-0.02328183,0.04700039
1757966390799,-0.08601460,-0.06193394,-0.09160598,-0.01838362,-0.00588683,-0.00475022,0.99837844,0.02214375,-0.02331391,0.04697450
1757966390810,-0.04885579,-0.06089221,0.05224658,-0.02866287,0.00752069,0.00344680,0.99838203,0.02198468,-0.02327217,0.04699363
1757966390821,-0.07582942,0.02765372,0.01664360,-0.02361746,0.02844041,-0.00184632,0.99838912,0.02185242,-0.02311291,0.04698329
1757966390832,-0.04290263,-0.15052203,-0.21479087,0.00309095,0.03602183,-0.00614906,0.99839485,0.02186926,-0.02291659,0.04694978
1757966390843,-0.05599687,0.15328683,-0.00711889,-0.02454546,0.04529433,0.00194555,0.99840306,0.02173304,-0.02266520,0.04696058
1757966390856,-0.03566667,-0.01627577,0.07719831,0.00434844,0.04379296,-0.00021072,0.99840875,0.02176043,-0.02238931,0.04695925
1757966390865,-0.13686500,-0.04567300,-0.38176834,-0.00854240,0.06211285,-0.01480227,0.99841962,0.02171943,-0.02209117,0.04688820
1757966390877,0.04359643,0.00861315,0.35753425,-0.02478950,0.04520792,-0.01825410,0.99843359,0.02157441,-0.02182670,0.04678141
1757966390888,0.06033893,-0.08655787,-0.15047390,-0.03932782,0.04936989,-0.01715939,0.99844829,0.02136204,-0.02156010,0.04668875
1757966390899,0.02692816,-0.02003934,-0.08277726,-0.03660256,0.04255175,-0.01576936,0.99846153,0.02116255,-0.02132820,0.04660281
1757966390910,0.08626635,-0.00700105,-0.00687027,-0.04654004,0.03636169,-0.00344964,0.99847225,0.02090193,-0.02112457,0.04658349
1757966390921,0.06888096,-0.28681855,-0.18081514,-0.04596545,0.03031363,-0.00955642,0.99848378,0.02064223,-0.02095330,0.04652950
1757966390932,-0.24309817,0.18335537,-0.03489955,-0.06423343,0.03269095,-0.00815936,0.99849699,0.02028573,-0.02077186,0.04648421
1757966390943,0.01510253,-0.21069910,-0.11559770,-0.05244863,0.00994407,0.00545643,0.99850265,0.01999202,-0.02071618,0.04651477
1757966390955,0.13617975,0.03408813,0.10115865,-0.05462965,0.01047657,-0.00074330,0.99851007,0.01968882,-0.02065803,0.04651064
1757966390966,0.25086977,0.22328026,0.20004857,-0.06799118,0.00492799,-0.00377977,0.99851906,0.01930807,-0.02063044,0.04648948
1757966390977,0.10479887,-0.11126076,0.22312758,-0.06239863,0.00421155,-0.00279204,0.99852711,0.01895240,-0.02060643,0.04647356
1757966390988,-0.00814130,-0.05376341,-0.19912310,-0.07361825,-0.00579329,0.00016658,0.99853395,0.01855118,-0.02063800,0.04647447
1757966390999,0.08891062,-0.04903776,0.04704500,-0.07030906,-0.00276304,-0.00638739,0.99854246,0.01816097,-0.02065334,0.04643902
1757966391010,0.04976814,0.16855500,0.04359528,-0.08427695,0.00259163,-0.00602541,0.99855280,0.01768901,-0.02063882,0.04640528
1757966391022,0.06414722,-0.08220347,0.00760263,-0.06379422,0.00730949,-0.00789416,0.99856196,0.01733177,-0.02059789,0.04636107
1757966391033,-0.15918013,0.00902813,0.10263555,-0.07013747,-0.00292182,-0.01123678,0.99857128,0.01693900,-0.02061425,0.04629814
1757966391044,0.21665620,-0.06397647,0.13314284,-0.09434635,0.00764063,-0.01072296,0.99858355,0.01642009,-0.02057223,0.04623917
1757966391055,-0.10920146,-0.06926172,-0.03573238,-0.08424224,0.00015406,-0.02098542,0.99859665,0.01594834,-0.02057137,0.04612165
1757966391066,-0.10073489,0.13067026,0.06272172,-0.09983903,0.00705953,-0.01537104,0.99861020,0.01538924,-0.02053183,0.04603557
1757966391077,0.09011068,-0.07631787,-0.12600014,-0.08231917,0.01010014,-0.00679394,0.99861994,0.01493648,-0.02047628,0.04599820
1757966391088,0.00187349,0.02436855,-0.04440080,-0.06839992,-0.00172875,-0.00809701,0.99862742,0.01455686,-0.02048588,0.04595327
1757966391100,-0.07063695,0.19177573,0.19702819,-0.05984441,-0.00059616,-0.00089976,0.99863246,0.01421874,-0.02048925,0.04594818
1757966391111,0.03030593,0.09309259,0.07807020,-0.04624575,0.00472804,-0.00606169,0.99863816,0.01396208,-0.02046301,0.04591454
1757966391122,-0.03970980,0.08741216,0.00007101,-0.04294170,-0.00170153,-0.00021249,0.99864130,0.01372590,-0.02047236,0.04591337
1757966391133,-0.04338685,0.08594431,0.05688152,-0.03567374,0.01596542,0.00252946,0.99864520,0.01352613,-0.02038296,0.04592754
1757966391144,-0.21003161,0.28816825,0.01219778,-0.02641072,0.02316002,0.00220200,0.99864923,0.01337955,-0.02025442,0.04593976
1757966391155,-0.09288282,-0.02128565,0.06966211,-0.02669972,0.02989892,-0.00826465,0.99865667,0.01323136,-0.02008848,0.04589389
1757966391166,-0.09037545,-0.02881809,0.05191708,-0.04303710,0.03434188,-0.01702730,0.99866806,0.01299035,-0.01989617,0.04579854
1757966391177,0.09063847,-0.33437009,0.06080096,-0.04662362,0.04771610,-0.00799823,0.99867857,0.01273392,-0.01963373,0.04575455
1757966391188,-0.03722698,0.04187496,0.07143020,-0.04800637,0.05858554,-0.00207026,0.99868889,0.01246509,-0.01930565,0.04574295
1757966391200,-0.08442989,0.01873292,-0.02603691,-0.01761140,0.04806255,-0.00491935,0.99869647,0.01236735,-0.01903890,0.04571565
1757966391211,-0.01943466,0.09072219,-0.00270544,-0.01815963,0.05802913,0.00519339,0.99870254,0.01226565,-0.01871394,0.04574473
1757966391222,-0.02416056,0.02328734,0.10053757,-0.02051860,0.06011003,0.00173623,0.99870994,0.01214767,-0.01836831,0.04575472
1757966391233,-0.04794148,-0.07318768,0.00012916,-0.04043687,0.07466337,-0.00967689,0.99872207,0.01193335,-0.01797259,0.04570343
1757966391244,-0.08663495,-0.11398591,0.16161391,-0.04645418,0.05952138,0.01433811,0.99872736,0.01167553,-0.01764225,0.04578301
1757966391255,-0.08106479,-0.01368560,0.05008492,-0.02813670,0.05570657,0.02119646,0.99872921,0.01151797,-0.01733029,0.04590171
1757966391266,-0.03341766,0.19265073,0.10791467,-0.02036735,0.08587379,0.00131469,0.99873825,0.01140595,-0.01685798,0.04590894
1757966391277,-0.04686165,0.31214368,-0.08242694,0.00682582,0.07839599,0.00667175,0.99874345,0.01144451,-0.01641505,0.04594663
1757966391288,-0.03609497,0.17342149,-0.06704596,0.03394861,0.06921720,0.02114626,0.99874212,0.01163123,-0.01603435,0.04606294
1757966391300,0.09939579,0.02022473,0.06583189,0.02790996,0.06998241,0.02386601,0.99874033,0.01178753,-0.01564245,0.04619659
1757966391311,-0.01268586,-0.03792801,0.10060577,0.01216259,0.05517992,-0.00965547,0.99874676,0.01185503,-0.01533620,0.04614300
1757966391322,-0.01451294,-0.08465882,0.09288282,-0.01395567,0.05510199,-0.01350339,0.99875578,0.01177758,-0.01503039,0.04606805
1757966391333,0.02267948,-0.08758011,0.06292720,-0.00152402,0.04220772,-0.00305796,0.99876020,0.01176904,-0.01479402,0.04605093
1757966391344,0.31890596,-0.03973350,0.09728857,0.00458627,0.04493386,0.00595409,0.99876202,0.01179427,-0.01454689,0.04608368
1757966391355,-0.08950521,0.05050263,0.05431759,-0.00711703,0.03262664,0.02117844,0.99875964,0.01175405,-0.01436255,0.04620334
1757966391366,0.03283421,0.00772467,0.09395153,-0.00537688,0.05815008,0.03017177,0.99875684,0.01172448,-0.01404272,0.04636928
1757966391378,-0.36011714,0.06109880,-0.00743472,-0.00562502,0.03490016,0.02083724,0.99875449,0.01169270,-0.01384553,0.04648701
1757966391389,0.03053686,0.01161752,0.07069033,0.00022343,0.03826338,0.00604274,0.99875583,0.01169393,-0.01363509,0.04652025
1757966391400,0.01641478,-0.02509733,0.05657050,0.00919284,0.03586654,0.00038458,0.99875785,0.01174541,-0.01343423,0.04652240
1757966391411,0.01029328,0.07601330,0.10329778,-0.00516166,0.03411270,0.01072445,0.99875793,0.01171754,-0.01325002,0.04658031
1757966391422,0.06315944,0.01032781,0.01032002,0.02265971,0.03432535,0.00510303,0.99875762,0.01185236,-0.01304579,0.04661067
1757966391433,-0.02820023,0.11586271,-0.03589979,0.04570200,0.03190236,0.00126358,0.99875657,0.01209915,-0.01287352,0.04661750
1757966391444,-0.07854040,-0.01101236,0.17926268,0.04547767,0.03830709,0.00266796,0.99875556,0.01234018,-0.01267049,0.04663164
1757966391455,-0.00639231,-0.10384587,0.06229139,0.03876939,0.03205870,0.00415070,0.99875403,0.01255729,-0.01249096,0.04665488
1757966391466,-0.00047516,-0.04276481,-0.01710592,0.02975918,0.03842378,-0.00960485,0.99875710,0.01272394,-0.01227579,0.04660109
1757966391477,0.08721176,0.01605825,-0.08077054,0.01184970,0.03297666,0.00261259,0.99875780,0.01278852,-0.01209606,0.04661533
1757966391488,0.07881370,0.06631127,-0.02856431,-0.00478685,0.03902764,-0.00064174,0.99876091,0.01276196,-0.01187946,0.04661177
1757966391500,-0.00822400,-0.09578540,-0.08901270,0.03465208,0.02798465,-0.00017385,0.99876031,0.01295428,-0.01172415,0.04661081
1757966391511,0.03688940,0.01685806,-0.04219473,0.02151790,0.02814220,-0.01429694,0.99876439,0.01307693,-0.01156373,0.04652931
1757966391522,0.03451913,0.02191551,-0.03680750,0.02062817,0.01790603,-0.02329785,0.99876994,0.01318935,-0.01146615,0.04640234
1757966391533,0.11688464,-0.04899338,0.08528460,0.02967595,0.01091157,-0.02022393,0.99877365,0.01335405,-0.01140559,0.04629010
1757966391544,0.10013929,0.08756140,0.06579199,0.02474838,0.00842263,-0.00486214,0.99877359,0.01349141,-0.01135884,0.04626311
1757966391555,0.04324836,0.00340880,-0.04219473,0.03373680,0.00237369,-0.00948168,0.99877363,0.01368371,-0.01134531,0.04620907
1757966391566,-0.06707114,0.04595656,-0.12175871,0.03508143,-0.01069340,-0.00129691,0.99877065,0.01387490,-0.01140359,0.04620200
1757966391577,0.05724401,-0.00363933,0.01777058,0.02319249,-0.01467835,0.00845552,0.99876575,0.01400362,-0.01148506,0.04624893
1757966391589,0.02380532,-0.09441221,0.01902371,0.02180377,-0.01305702,-0.00000382,0.99876319,0.01412572,-0.01155818,0.04624891
1757966391599,-0.03512417,-0.05081701,0.00031667,0.00638634,-0.02345457,0.00575308,0.99875973,0.01416084,-0.01168718,0.04628055
1757966391611,0.03497619,0.00629774,0.02112732,0.01667889,-0.01623017,0.00766198,0.99875538,0.01425341,-0.01177725,0.04632307
1757966391622,-0.03966870,-0.00967529,-0.02322070,0.02144997,-0.01881844,0.00664852,0.99875073,0.01437246,-0.01188170,0.04635997
1757966391633,0.01996691,0.05795788,0.09122205,0.01043691,-0.01126950,0.00998640,0.99874649,0.01443143,-0.01194537,0.04641639
1757966391644,0.33594037,-0.16056156,0.25716355,0.02010409,-0.01872146,0.01322481,0.99874027,0.01454200,-0.01204834,0.04648913
1757966391655,0.02357680,0.01135211,0.02018154,0.00894806,-0.02225571,0.01222135,0.99873484,0.01459211,-0.01217297,0.04655757
1757966391666,0.10431608,0.02093146,0.02087099,0.00585075,-0.01329831,0.01751367,0.99872893,0.01462458,-0.01224677,0.04665477
1757966391677,-0.29487601,0.13701007,-0.40651828,0.02853351,-0.02231977,0.00030317,0.99872496,0.01478437,-0.01237176,0.04665647
1757966391689,0.04549116,0.07509583,0.01736370,0.02775096,-0.01890439,-0.00459367,0.99872255,0.01493839,-0.01247668,0.04663097
1757966391700,0.02273694,-0.02950964,-0.08514258,0.02666477,-0.03191809,-0.00787320,0.99872013,0.01508638,-0.01265383,0.04658728
1757966391711,0.06352651,-0.08509299,0.05576977,0.02101561,-0.02983956,0.00164107,0.99871579,0.01520406,-0.01282093,0.04659647
1757966391722,-0.00116698,0.02171415,0.00575154,0.00844455,-0.03800706,0.00479230,0.99871102,0.01525178,-0.01303567,0.04662354
1757966391733,0.17902754,0.10476694,0.09623580,0.02500808,-0.03424304,0.00493696,0.99870517,0.01538932,-0.01322401,0.04665070
1757966391744,0.27101376,0.09973908,0.09212638,0.02213790,-0.03851193,0.00825068,0.99869827,0.01551219,-0.01343775,0.04669649
1757966391755,-0.01402918,0.01886682,-0.01741553,0.02190521,-0.05180249,0.00357878,0.99869154,0.01563376,-0.01372525,0.04671635
1757966391767,0.02757459,-0.13255152,-0.06772705,0.02337439,-0.03725831,0.00985702,0.99868407,0.01576349,-0.01393204,0.04677106
1757966391778,-0.27420849,-0.12286215,-0.20037391,-0.00366749,-0.05205821,0.00591700,0.99867874,0.01574295,-0.01422356,0.04680419
1757966391790,-0.01092687,-0.10755959,-0.02053794,0.00769901,-0.03941468,0.00162654,0.99867408,0.01578991,-0.01446399,0.04681411
1757966391800,0.13878749,0.03120999,0.00893281,0.00125458,-0.04922804,0.00378480,0.99866954,0.01579612,-0.01470767,0.04683285
1757966391811,-0.09342522,0.03826139,-0.02896724,0.00319958,-0.05209518,-0.00314479,0.99866578,0.01581388,-0.01499680,0.04681540
1757966391822,0.06972077,-0.08661694,-0.04234530,0.02475654,-0.04431764,0.00587861,0.99865827,0.01595252,-0.01524498,0.04684832
1757966391833,-0.00455689,0.08836480,0.06014231,0.00330637,-0.04587671,-0.00232536,0.99865466,0.01597087,-0.01549959,0.04683541
1757966391844,0.29509645,-0.21043763,-0.08901270,0.00247133,-0.04856995,-0.00165394,0.99865066,0.01598458,-0.01576916,0.04682623
1757966391856,0.01681292,-0.06757968,0.02447503,0.00329741,-0.04393835,0.00538135,0.99864498,0.01600321,-0.01601741,0.04685664
1757966391867,-0.00289021,-0.00781378,-0.02759686,-0.00900540,-0.04860810,0.00574036,0.99864001,0.01595413,-0.01628232,0.04688792
1757966391878,-0.28733778,0.06725305,-0.02454437,-0.00080365,-0.03735142,-0.00611001,0.99863821,0.01594951,-0.01649709,0.04685279
1757966391889,-0.01737891,-0.02257348,-0.07415476,-0.00356294,-0.04254271,-0.00602218,0.99863622,0.01593027,-0.01672682,0.04682027
1757966391900,0.06807920,0.02280557,0.10056345,-0.02670507,-0.03164448,0.02747525,0.99862853,0.01578340,-0.01690087,0.04697138
1757966391911,-0.09707572,-0.06619956,-0.05757665,-0.00769535,-0.02996339,0.00588581,0.99862477,0.01573992,-0.01707016,0.04700464
1757966391922,0.01166979,0.05648181,0.01120300,-0.00101708,-0.02351478,0.01187201,0.99861942,0.01573417,-0.01720302,0.04707171
1757966391933,0.23771184,0.03599708,-0.18268064,0.00687354,-0.02413164,0.01299583,0.99861327,0.01577129,-0.01733333,0.04714189
1757966391944,0.09673950,0.08697014,-0.13292778,0.02790638,-0.03203339,0.00802224,0.99860561,0.01592617,-0.01751112,0.04718641
1757966391956,0.01607026,-0.03667785,0.04182177,0.02271463,-0.02626715,-0.01250286,0.99860424,0.01605791,-0.01766346,0.04711390
1757966391966,-0.14632083,0.08803953,0.08110355,-0.02851998,-0.03739617,-0.04390976,0.99861390,0.01590961,-0.01785793,0.04688557
1757966391978,-0.11629400,-0.08058891,0.00648122,-0.02784013,-0.03968719,-0.02563332,0.99861915,0.01575231,-0.01808216,0.04674074
1757966391989,0.04247805,0.00933584,0.05788218,-0.02654368,-0.03054870,-0.01154180,0.99862141,0.01560234,-0.01825476,0.04667553
1757966392000,-0.03955254,-0.09839991,-0.10235286,-0.00478125,-0.04250592,-0.00367931,0.99861855,0.01557676,-0.01848216,0.04665584
1757966392011,-0.02556449,0.07030233,0.08758236,-0.01022756,-0.02601771,0.00391258,0.99861568,0.01551898,-0.01862916,0.04667795
1757966392022,-0.04024181,-0.01454088,-0.10435119,-0.00039056,-0.04188549,0.01621545,0.99860707,0.01551679,-0.01886372,0.04676876
1757966392033,0.28477579,-0.20135040,0.20140318,-0.00467077,-0.03575746,0.01166714,0.99860072,0.01549110,-0.01906039,0.04683293
1757966392044,-0.02364482,-0.07733826,-0.00591120,-0.01531311,-0.05386639,-0.01747897,0.99860083,0.01540688,-0.01935665,0.04673679
1757966392055,0.01488217,-0.07839556,0.08863952,-0.02879150,-0.04277543,-0.00899576,0.99860099,0.01524420,-0.01959834,0.04668597
1757966392066,-0.24385462,0.05984441,-0.18760663,-0.03775969,-0.04825812,-0.01044158,0.99860158,0.01503653,-0.01986376,0.04662854
1757966392077,-0.02758562,0.00640380,0.01773361,-0.02991637,-0.03874561,0.01073465,0.99859702,0.01487199,-0.02007686,0.04668758
1757966392089,-0.05953380,0.06298954,-0.03096345,-0.00751253,-0.03914250,0.01063249,0.99859043,0.01482992,-0.02029605,0.04674712
1757966392100,-0.00712747,0.07365051,-0.01900658,0.00109792,-0.02874056,0.01750806,0.99858246,0.01483606,-0.02045700,0.04684516
1757966392111,-0.04141371,0.13123844,-0.00210783,0.00142614,-0.02453742,0.00202682,0.99857902,0.01484398,-0.02059318,0.04685641
1757966392122,-0.05541446,-0.05261485,-0.04542745,0.01247226,-0.02679262,-0.00577864,0.99857639,0.01491382,-0.02074322,0.04682405
1757966392133,-0.07381089,-0.21946226,0.11502219,-0.01538553,-0.01105409,-0.00358005,0.99857731,0.01482920,-0.02080402,0.04680436
1757966392144,-0.10846883,-0.04242176,-0.00042219,-0.01706040,-0.01628914,-0.01230714,0.99858002,0.01473452,-0.02089442,0.04673606
1757966392155,-0.00104451,-0.04461838,0.01479431,-0.00018851,-0.01812608,-0.00796307,0.99857999,0.01473346,-0.02099593,0.04669146
1757966392166,0.06732968,0.11564999,-0.06523912,-0.01065488,-0.01370656,-0.02748822,0.99858638,0.01467433,-0.02107200,0.04653890
1757966392178,0.00264551,0.00417374,0.02094149,-0.02099528,-0.00982664,-0.02110742,0.99859244,0.01455676,-0.02112703,0.04642070
1757966392189,0.06652617,0.01760055,0.08947399,-0.01972263,-0.00462592,-0.01119177,0.99859645,0.01444532,-0.02115317,0.04635747
1757966392200,-0.04867631,-0.00275258,-0.02605186,-0.01954810,-0.02005247,-0.00177414,0.99859611,0.01433879,-0.02126245,0.04634780
1757966392211,-0.01175010,0.02385270,-0.00272964,-0.02051407,-0.01477100,-0.01109890,0.99859882,0.01422596,-0.02134369,0.04628676
1757966392223,-0.02414602,-0.01616596,0.08428148,-0.02528016,-0.01751217,-0.00574115,0.99860028,0.01407807,-0.02144614,0.04625317
1757966392233,-0.04028276,-0.08016950,0.01220986,-0.03394748,-0.02206210,-0.00237369,0.99860087,0.01389645,-0.02156417,0.04624047
1757966392245,-0.02005017,-0.07617288,0.06233093,-0.03072746,-0.01601321,-0.00196954,0.99860182,0.01372438,-0.02165385,0.04622944
1757966392256,-0.11800834,0.04490805,0.00993445,-0.04142776,-0.02629879,-0.00594651,0.99860330,0.01349445,-0.02179980,0.04619644
1757966392267,0.09046399,0.09143152,0.01161035,-0.03738736,-0.01840219,-0.00536994,0.99860523,0.01328695,-0.02190194,0.04616664
1757966392278,0.00055140,-0.00464619,0.05110812,-0.01485822,-0.00185931,-0.01310738,0.99860938,0.01320597,-0.02191207,0.04609520
1757966392289,-0.11673791,0.06611763,-0.00076724,-0.01627716,-0.01020441,-0.00458924,0.99861051,0.01311482,-0.02196922,0.04606950
1757966392300,0.00577926,-0.00145141,0.07079371,-0.01732917,0.00068810,0.00178014,0.99861139,0.01301951,-0.02196543,0.04607929
1757966392311,-0.05434305,0.05671520,0.02544440,-0.01149665,-0.00145319,-0.01301611,0.99861545,0.01295456,-0.02197364,0.04600575
1757966392322,-0.02956530,0.04990054,-0.01775802,0.00040884,0.00496427,-0.00323777,0.99861685,0.01295683,-0.02194609,0.04598778
1757966392333,-0.03483106,0.07595105,-0.00387012,0.00671113,0.00884151,-0.00320140,0.99861826,0.01299407,-0.02189702,0.04597001
1757966392344,0.10996970,0.19995581,-0.15012329,0.01671749,0.00975607,-0.01410774,0.99862181,0.01308602,-0.02184336,0.04589242
1757966392356,0.01035429,-0.01532350,0.04788435,0.01133161,0.01720073,-0.00678417,0.99862485,0.01315004,-0.02174618,0.04585409
1757966392367,-0.09388614,-0.04534103,-0.00781186,0.00819285,0.02311590,-0.00784506,0.99862899,0.01319510,-0.02161904,0.04581094
1757966392378,-0.27534491,-0.19480020,0.11096389,-0.00022158,0.01961907,-0.00727050,0.99863325,0.01319386,-0.02150917,0.04577023
1757966392389,-0.06496167,-0.01741694,0.03479870,-0.01255206,0.03517493,0.00014551,0.99863827,0.01312483,-0.02131571,0.04577103
1757966392400,-0.01855897,0.02201129,0.01356300,0.00172816,0.04133674,-0.00325567,0.99864384,0.01313442,-0.02108629,0.04575296
1757966392411,-0.05275183,0.06038871,-0.00390405,-0.00026474,0.03510817,0.00598580,0.99864646,0.01313293,-0.02088969,0.04578648
1757966392422,0.03136086,-0.00190066,-0.00190066,0.01328115,0.05436797,0.01218765,0.99864867,0.01320731,-0.02058522,0.04585473
1757966392433,-0.08968219,0.06337749,-0.01542864,0.00822141,0.04305776,0.00479093,0.99865174,0.01325294,-0.02034625,0.04588132
1757966392445,-0.33401501,-0.04475537,0.13693301,0.00371101,0.04730292,0.00270548,0.99865613,0.01327372,-0.02008136,0.04589647
1757966392455,-0.17474369,-0.09124156,0.03538289,-0.00299777,0.05344940,0.01368566,0.99865868,0.01325768,-0.01979540,0.04596969
1757966392466,0.03041388,-0.06232878,0.04832221,-0.00784529,0.05481752,0.02745966,0.99865822,0.01321414,-0.01949117,0.04612209
1757966392478,0.23849598,0.09433411,-0.11610352,-0.00600973,0.06000997,0.01602502,0.99866099,0.01318079,-0.01915811,0.04621103
1757966392489,0.01162227,-0.04005937,-0.01034232,0.00442987,0.05962071,0.02126053,0.99866150,0.01320559,-0.01882424,0.04633009
1757966392500,-0.04559050,0.03122874,0.02204585,-0.00625016,0.05040873,0.02756484,0.99866008,0.01317090,-0.01854447,0.04648307
1757966392511,-0.04595764,0.01644800,0.03096094,0.00069968,0.06458254,0.02148495,0.99866106,0.01317479,-0.01818603,0.04660231
1757966392522,-0.07225070,0.02925045,-0.02782495,0.00093364,0.08834262,0.03296944,0.99866125,0.01318002,-0.01769131,0.04678694
1757966392533,-0.11479908,-0.00387444,-0.01062555,0.00835399,0.10454427,0.04642555,0.99865864,0.01322638,-0.01711109,0.04704460
1757966392544,-0.14756643,0.19152985,0.00482870,0.01427253,0.10493896,0.02146845,0.99866180,0.01330631,-0.01652344,0.04716483
1757966392556,-0.05041519,0.00653946,-0.04163832,0.01909855,0.12536011,0.02086444,0.99866618,0.01341230,-0.01582769,0.04728063
1757966392567,-0.02470546,0.04366392,-0.00140236,0.00723545,0.13798486,0.02044751,0.99867205,0.01345210,-0.01506877,0.04739309
1757966392578,-0.06974552,-0.13774589,-0.13791868,0.00214621,0.12411336,0.03184595,0.99867366,0.01346412,-0.01437374,0.04757142
1757966392589,-0.06025365,-0.08208867,0.00255068,0.00740927,0.14119455,0.00754649,0.99868222,0.01350598,-0.01357599,0.04761406
1757966392600,-0.17447208,-0.06063780,-0.02376688,0.02332427,0.16992993,0.00298374,0.99869196,0.01363426,-0.01264137,0.04763047
1757966392611,-0.10338931,0.11311298,-0.05715460,-0.00297046,0.17168582,0.00910074,0.99870139,0.01361778,-0.01168852,0.04768098
1757966392623,0.05627509,-0.00118858,-0.05159139,0.02539899,0.17804456,0.00497203,0.99870961,0.01376636,-0.01064695,0.04771007
1757966392634,-0.16706219,0.02114811,-0.16525399,0.03218417,0.19011958,-0.02854158,0.99872496,0.01394016,-0.00962031,0.04755594
1757966392644,-0.19571827,0.11344505,0.39859073,-0.00185270,0.19397166,-0.03574241,0.99874382,0.01393015,-0.00857286,0.04736293
1757966392656,0.07238288,-0.04103118,-0.00636549,-0.01583332,0.17274046,-0.02800018,0.99876088,0.01383832,-0.00757097,0.04720053
1757966392667,-0.09902584,-0.15381153,0.00303654,-0.01807898,0.18541539,-0.02270918,0.99877485,0.01374250,-0.00658827,0.04708017
1757966392678,0.29274608,-0.23261778,-0.32176740,-0.01553043,0.17986381,-0.02879874,0.99878964,0.01365631,-0.00559002,0.04692034
1757966392689,0.09664874,-0.06031715,0.05746615,-0.03975480,0.15943461,-0.02151607,0.99880314,0.01342970,-0.00468124,0.04679770
1757966392700,0.01974127,-0.00403432,0.02452866,-0.03202115,0.15347911,-0.00489286,0.99881022,0.01325679,-0.00385246,0.04677128
1757966392711,0.15133112,0.10194920,0.01562764,-0.02649689,0.13175823,-0.01128929,0.99881771,0.01310841,-0.00311461,0.04670806
1757966392723,0.15674288,0.10309638,-0.00874488,-0.01097088,0.10029494,-0.01409569,0.99882412,0.01304368,-0.00252287,0.04662489
1757966392733,-0.06058127,0.06555031,-0.12863479,-0.00641620,0.10289541,-0.01207462,0.99882869,0.01301031,-0.00198781,0.04656211
1757966392745,0.15055407,-0.05782387,0.11345468,0.01002388,0.07885905,-0.00863667,0.99883099,0.01306645,-0.00154620,0.04651374
1757966392756,0.10184274,-0.03627904,0.01253637,0.00135082,0.05753871,-0.00969605,0.99883402,0.01307442,-0.00120673,0.04645653
1757966392767,-0.05873038,-0.06258701,-0.00645629,0.00827892,0.05051924,0.00680044,0.99883211,0.01311705,-0.00094655,0.04649156
1757966392778,0.25741000,0.08680766,-0.07657784,0.00802416,0.04322965,0.01385980,0.99882817,0.01316119,-0.00070879,0.04656779
1757966392789,0.06310186,0.12503740,0.03943002,0.00174708,0.02873264,0.01949673,0.99882305,0.01317097,-0.00054789,0.04667697
1757966392800,0.04222574,0.04488213,-0.07583011,-0.00175612,0.01294924,0.01509697,0.99881930,0.01316122,-0.00047602,0.04676076
1757966392811,0.07159717,0.08659388,0.03096094,-0.00885113,0.00507445,0.01759935,0.99881538,0.01311210,-0.00044785,0.04685843
1757966392823,0.07009811,-0.05547662,-0.05700925,0.02112019,-0.00162919,0.00965459,0.99881098,0.01323882,-0.00045763,0.04691636
1757966392833,-0.06774591,0.03181560,-0.05936952,0.00731777,0.00465661,0.00689352,0.99880880,0.01327687,-0.00043342,0.04695221
1757966392844,0.07053658,0.02562469,0.47615510,0.00073246,-0.01441620,-0.00018115,0.99880876,0.01328090,-0.00051270,0.04695121
1757966392856,-0.01858256,-0.03753430,-0.07051102,0.00397418,-0.01830601,0.00154742,0.99880799,0.01330336,-0.00061613,0.04695995
1757966392867,0.02926617,-0.00817783,-0.02271325,0.01040610,-0.01131394,0.00626086,0.99880559,0.01336007,-0.00067779,0.04699407
1757966392878,0.03810202,0.10229182,-0.30309410,-0.00096177,-0.00480059,0.01103600,0.99880276,0.01335473,-0.00070444,0.04705532
1757966392889,-0.05892883,-0.01721753,-0.05910237,-0.00507281,-0.00235805,0.00714056,0.99880122,0.01332582,-0.00071788,0.04709602
1757966392900,-0.04836990,-0.08157289,0.00293832,-0.01062912,-0.00057165,0.00544774,0.99880058,0.01326736,-0.00072102,0.04712599
1757966392911,0.02019662,-0.08521986,0.04926004,-0.01540108,0.00133025,0.01099808,0.99879885,0.01318265,-0.00071371,0.04718648
1757966392923,-0.00142501,-0.02151371,0.03910863,-0.01824013,-0.00236890,0.00494711,0.99879888,0.01307595,-0.00072756,0.04721542
1757966392933,-0.14392866,0.08980746,0.14901017,-0.01455286,0.00046236,0.00751106,0.99879799,0.01299809,-0.00072509,0.04725560
1757966392944,-0.00478329,0.05867469,0.02625974,-0.01149110,-0.00559741,0.02301785,0.99879279,0.01293489,-0.00075588,0.04738220
1757966392956,0.00049244,0.05032425,-0.02222042,0.00112679,-0.00746656,0.02077196,0.99878715,0.01294120,-0.00079769,0.04749852
1757966392967,0.18551943,-0.03241655,-0.17949397,0.01052358,-0.00175322,0.03283820,0.99877770,0.01299960,-0.00080742,0.04768077
1757966392978,0.05805176,-0.03628235,-0.06579199,0.00671119,0.00113033,0.02624664,0.99877026,0.01303685,-0.00080115,0.04782644
1757966392989,0.00141265,0.03529916,-0.03440020,0.00777798,0.00589128,0.00854001,0.99876742,0.01308041,-0.00076815,0.04787427
1757966393000,-0.01296306,-0.02201123,-0.02445692,0.01913627,0.00327553,0.00968811,0.99876353,0.01318470,-0.00075030,0.04792707
1757966393011,0.00827806,0.06586903,0.02184072,0.01206550,-0.00122902,0.00347872,0.99876168,0.01325287,-0.00075725,0.04794672
1757966393022,0.03915925,0.00069782,0.00359613,0.01131600,0.00148743,0.00249295,0.99876019,0.01331567,-0.00074899,0.04796056
1757966393034,-0.09481787,-0.10546070,0.08901270,0.01036448,-0.00120014,0.00328278,0.99875854,0.01337320,-0.00075565,0.04797878
1757966393045,-0.19953916,-0.13887648,0.34903621,-0.00102777,0.00050823,0.00765410,0.99875656,0.01336744,-0.00075281,0.04802164
1757966393056,0.01092879,-0.02043208,-0.05321843,0.00091342,-0.00621857,0.00478527,0.99875518,0.01337256,-0.00078763,0.04804844
1757966393067,0.15801916,0.02884351,-0.15073571,0.00202704,-0.01192093,0.01066641,0.99875215,0.01338370,-0.00085320,0.04810710
1757966393078,0.26495351,0.13844905,-0.29616953,0.01592004,-0.01156922,0.00066496,0.99875073,0.01347206,-0.00091740,0.04811079
1757966393090,0.05877303,0.09558330,0.02272249,0.03721040,-0.03010287,0.01687666,0.99874276,0.01369160,-0.00109501,0.04821037
1757966393100,0.02916558,0.26162369,-0.13462714,0.06937632,-0.03234290,0.01368612,0.99873436,0.01404195,-0.00125834,0.04827948
1757966393111,0.08082032,0.13074553,0.10948545,0.07340754,-0.04037415,0.03108973,0.99871976,0.01445303,-0.00148444,0.04845358
1757966393123,0.07093070,0.02270793,-0.02901763,0.07421736,-0.04302231,0.02983628,0.99870449,0.01488721,-0.00173612,0.04862813
1757966393133,0.09233626,-0.21712491,-0.04702536,0.06125418,-0.05348946,0.03193354,0.99869107,0.01520573,-0.00201426,0.04879418
1757966393144,0.06016315,-0.22552042,0.07397947,0.03867155,-0.05512102,0.03268743,0.99867812,0.01542229,-0.00232294,0.04897723
1757966393156,0.02880991,-0.15113327,0.10010473,0.02393569,-0.05713184,0.02610075,0.99866816,0.01555513,-0.00264002,0.04912209
1757966393167,0.03676611,0.17415528,0.18383057,0.01198013,-0.05565251,0.02743868,0.99865875,0.01562162,-0.00294890,0.04927437
1757966393178,-0.00654529,0.14871795,0.01510253,0.01828877,-0.05528333,0.01690512,0.99865151,0.01572404,-0.00325848,0.04936904
1757966393189,0.00999060,0.09762976,-0.07329035,0.04137948,-0.04796293,0.01173667,0.99864374,0.01595369,-0.00352468,0.04943418
1757966393210,-0.05753939,-0.07056312,0.05816898,0.01539749,-0.02501701,0.00506580,0.99863752,0.01611614,-0.00378861,0.04948763
1757966393220,0.43186008,0.68982525,-0.51688848,0.07583709,-0.09458839,0.01012470,0.99862680,0.01649912,-0.00426628,0.04953876
1757966393232,-0.18875013,-0.48784593,0.55694139,0.01054260,-0.03730790,-0.00617117,0.99862662,0.01655921,-0.00447893,0.04950358
1757966393245,-0.10303504,-0.23801639,0.11518738,0.02218781,-0.04232609,-0.00160738,0.99862346,0.01670343,-0.00475405,0.04949313
1757966393255,0.02825725,0.07642503,0.01649956,0.01338518,-0.04337116,-0.00729846,0.99862309,0.01677169,-0.00497524,0.04945591
1757966393265,0.09739321,0.03551988,-0.13062148,0.01611594,-0.02903390,0.01590200,0.99861693,0.01685388,-0.00512332,0.04953701
1757966393275,0.01238825,0.00219473,-0.20295511,0.04047781,-0.02060299,0.02144943,0.99860708,0.01706842,-0.00523251,0.04965069
1757966393287,-0.06010759,0.02841827,-0.04967140,0.04375753,-0.01086470,0.00505520,0.99860103,0.01731784,-0.00529444,0.04967951
1757966393298,0.03843383,0.10420036,-0.08840163,0.04055522,-0.00557123,0.01823982,0.99859189,0.01754292,-0.00532536,0.04978074
1757966393309,0.03079152,0.08897992,-0.06910862,0.04726359,-0.00218727,-0.00916566,0.99858970,0.01780759,-0.00533761,0.04972941
1757966393321,0.00757286,-0.06320861,-0.07848771,0.05189605,-0.01939255,-0.01791626,0.99858887,0.01810081,-0.00544718,0.04962818
1757966393332,0.05956376,0.00296343,0.04628217,0.00547349,-0.00726655,-0.03929139,0.99859927,0.01813228,-0.00548896,0.04940226
1757966393343,0.21534872,-0.12363369,-0.07857156,-0.00250587,-0.01308919,-0.01023420,0.99860196,0.01811825,-0.00556226,0.04934495
1757966393355,0.05642763,-0.07466168,0.04944659,0.00063360,-0.01570555,-0.02492854,0.99860834,0.01812182,-0.00565100,0.04920410
1757966393366,0.01420898,-0.15816108,0.00871633,-0.01100740,-0.02741814,-0.01551468,0.99861282,0.01806073,-0.00580317,0.04911799
1757966393377,-0.06293576,-0.04446856,0.08402280,-0.01538338,-0.02170250,-0.00942013,0.99861625,0.01797459,-0.00592470,0.04906524
1757966393388,0.02508172,0.00058349,0.01272008,-0.00275317,-0.03203879,-0.00860268,0.99861783,0.01795903,-0.00610572,0.04901664
1757966393399,0.07280016,0.02395705,-0.01839162,-0.01097095,-0.03374382,-0.00834410,0.99862003,0.01789814,-0.00629300,0.04897033
1757966393410,0.02791499,-0.02446662,-0.02674591,-0.00239783,-0.03605274,-0.00866502,0.99862137,0.01788459,-0.00649670,0.04892137
1757966393422,0.03926205,-0.06236850,0.03237847,-0.00269838,-0.03204553,-0.00905011,0.99862294,0.01786948,-0.00667615,0.04887069
1757966393433,-0.05226810,0.01282944,0.05511909,-0.01353221,-0.03853822,-0.01973074,0.99862822,0.01779370,-0.00689197,0.04876020
1757966393445,0.17428879,-0.38592856,0.38664046,-0.00446833,-0.02770323,-0.00470220,0.99862889,0.01776779,-0.00705265,0.04873292
1757966393494,-0.15533904,0.08178306,-0.00997311,0.00051364,-0.00617411,-0.00075541,0.99862849,0.01778040,-0.00720422,0.04871438
1757966393499,17.93566263,-1.04736908,-1.40594091,0.03751601,-0.21742657,-0.12480340,0.99863755,0.01787044,-0.00772604,0.04841485
1757966393517,-4.23473020,0.42126648,0.27487807,0.00936812,-0.02071101,-0.03186533,0.99864868,0.01795662,-0.00791658,0.04812169
1757966393531,-0.05846386,0.01475969,0.01209770,0.01692375,-0.02761271,-0.05160908,0.99866272,0.01807847,-0.00811540,0.04775010
1757966393544,0.29754082,0.15750324,0.04918813,0.02696321,-0.01237994,-0.03951234,0.99867074,0.01824565,-0.00819215,0.04750513
1757966393556,-0.02503019,0.10528694,-0.00040669,0.03409723,-0.02067260,-0.02749648,0.99867387,0.01845534,-0.00831929,0.04733602
1757966393569,-0.02985824,0.00250324,0.04207049,0.02310524,-0.00523151,-0.02088022,0.99867722,0.01860553,-0.00835329,0.04720030
1757966393579,-0.13440263,-0.03085734,0.04844100,0.02078009,-0.01466153,-0.02505024,0.99868064,0.01871151,-0.00842807,0.04707255
1757966393591,-0.10885500,-0.19381313,0.04589839,0.01104580,-0.02220153,0.00150197,0.99867791,0.01877612,-0.00855795,0.04708133
1757966393603,-0.12677722,-0.08836701,-0.03382140,-0.00176832,-0.02445713,-0.00991711,0.99867970,0.01876516,-0.00870958,0.04701985
1757966393614,0.12526384,-0.10503545,0.04051139,0.00946422,-0.02798732,-0.01156997,0.99868037,0.01881769,-0.00886491,0.04695563
1757966393627,-0.16678960,0.05991071,0.02110757,0.01130071,-0.03244841,-0.00701050,0.99867928,0.01888775,-0.00906609,0.04691217
1757966393638,-0.37242467,0.11496823,0.26861423,0.03234370,-0.03167912,-0.01319461,0.99867770,0.01906726,-0.00924191,0.04683894
1757966393649,0.03983591,0.01896581,-0.03623439,0.03524104,-0.02855328,-0.00118662,0.99867259,0.01926989,-0.00940609,0.04683211
1757966393661,0.10495509,0.05470394,-0.09858643,0.03762232,-0.02667169,-0.00290410,0.99866781,0.01948246,-0.00955679,0.04681571
1757966393672,0.24994682,0.00602503,-0.09992855,0.01892510,-0.02577402,-0.00541508,0.99866569,0.01959223,-0.00970627,0.04678430
1757966393685,-0.00751339,-0.12906349,-0.02104930,0.02217994,-0.01784600,-0.01096451,0.99866511,0.01972309,-0.00981157,0.04671961
1757966393695,0.01936900,-0.08164777,0.04039704,0.00773343,-0.02247155,-0.02202151,0.99866878,0.01976639,-0.00993741,0.04659629
1757966393707,0.00857531,-0.06917390,0.03570162,-0.00115027,-0.02047016,-0.02870614,0.99867542,0.01975978,-0.01005511,0.04643123
1757966393720,-0.08065890,-0.00664968,-0.01813945,-0.00263274,-0.02583104,-0.01119358,0.99867741,0.01974280,-0.01022172,0.04635903
1757966393730,0.36197734,0.12685241,0.06210813,0.01384842,-0.02448213,-0.02901097,0.99868155,0.01981273,-0.01034536,0.04621252
1757966393740,0.13127715,0.23229499,0.08373903,0.01289067,-0.03246472,-0.01447801,0.99868194,0.01988041,-0.01051580,0.04613651
1757966393752,-0.05839742,-0.00776915,-0.06919268,0.01586457,-0.02409065,-0.01169738,0.99868175,0.01997163,-0.01065432,0.04606925
1757966393763,-0.12060090,-0.06494467,-0.04502081,0.02177089,-0.03159591,-0.02146515,0.99868294,0.02009355,-0.01083125,0.04594905
1757966393774,-0.18377512,-0.16102754,-0.01421504,0.02037987,-0.02674072,-0.01242798,0.99868222,0.02020564,-0.01097833,0.04588069
1757966393785,-0.03842283,-0.04039323,0.01379281,0.00800285,-0.02261721,-0.01261539,0.99868314,0.02024965,-0.01110272,0.04581131
1757966393797,-0.03994690,-0.16877566,0.03482468,-0.00198895,-0.01545605,-0.00410124,0.99868346,0.02023812,-0.01119237,0.04578752
1757966393808,-0.08324089,-0.03156147,0.03734997,-0.01171296,-0.02145512,-0.01017054,0.99868602,0.02017311,-0.01131144,0.04573108
1757966393824,-0.12353458,0.02201711,-0.02403687,0.00395470,-0.00644936,-0.00458263,0.99868649,0.02020613,-0.01136530,0.04569281
1757966393830,1.42918089,-0.26266027,0.88703749,-0.01150383,-0.03274296,-0.00452329,0.99868667,0.02017565,-0.01145206,0.04568082
1757966393841,-0.55259728,0.25180421,-0.23236641,-0.01068210,-0.00982472,0.00273435,0.99868653,0.02011316,-0.01150954,0.04569682
1757966393852,-0.07013207,0.13955231,0.25647990,-0.00619181,-0.01530597,-0.00444667,0.99868733,0.02008034,-0.01159066,0.04567325
1757966393863,0.02489105,0.03401155,-0.00632590,0.00278923,-0.01230259,-0.00031094,0.99868634,0.02009526,-0.01165648,0.04567159
1757966393947,-0.05428076,-0.01979713,-0.07531436,0.00062101,-0.00274408,-0.00119457,0.99868676,0.02012144,-0.01177214,0.04562124
1757966393980,0.35655184,-0.01066949,0.32607630,0.01270572,-0.03272076,0.01281565,0.99866645,0.02032981,-0.01230876,0.04583142
1757966393992,0.37976908,-0.03643464,-0.29400689,0.05693087,-0.04557794,0.00950351,0.99865319,0.02067709,-0.01258679,0.04588939
1757966394031,-0.31108056,0.02975198,-0.14777607,0.00179951,-0.02079584,-0.01572067,0.99866139,0.02071254,-0.01299647,0.04557969
1757966394043,0.92882445,-0.03589913,0.75229304,-0.02062178,-0.07139888,0.00768629,0.99865649,0.02059603,-0.01339987,0.04562312
1757966394098,-0.21952267,-0.01187203,-0.12148963,-0.01535049,-0.01536177,0.00079725,0.99865837,0.02016698,-0.01382923,0.04564540
1757966394135,0.07581726,-0.13001908,0.04614665,-0.04715219,-0.03631529,0.00207567,0.99866431,0.01929702,-0.01449925,0.04568370
1757966394174,-0.04450743,0.06034204,-0.02774535,-0.02371127,-0.01665225,0.01786289,0.99865250,0.01883940,-0.01482064,0.04602845
1757966394210,0.02394248,0.01719403,-0.01176792,-0.03933893,-0.00412383,-0.00307873,0.99866717,0.01812539,-0.01489548,0.04597257
1757966394246,-0.02373009,0.07681274,0.03885385,0.00154844,-0.00614375,-0.01554876,0.99867788,0.01815334,-0.01500638,0.04569192
1757966394291,-0.02428978,-0.00518210,0.00456769,0.00879800,-0.01016466,-0.00926591,0.99868031,0.01835086,-0.01523458,0.04548390
1757966394334,0.01151548,-0.02393145,0.10942138,0.01073088,-0.02667802,0.00723872,0.99866032,0.01857835,-0.01580015,0.04563736
1757966394363,0.03546479,0.09233339,-0.02736248,0.01667215,-0.01237458,0.01474327,0.99864297,0.01882260,-0.01598144,0.04585335
1757966394373,0.38293441,0.16306447,1.30589098,0.08512157,-0.05575402,-0.09118515,0.99865118,0.01924821,-0.01626021,0.04539742
1757966394427,-0.10196930,-0.03880498,-0.33688664,0.00676647,-0.00957913,-0.00804445,0.99865326,0.01943158,-0.01651980,0.04517942
1757966394439,0.51574010,0.00490943,1.11227633,0.02666310,-0.02765374,-0.02567595,0.99865429,0.01958489,-0.01667881,0.04503178
1757966394494,-0.14981121,-0.01499585,-0.23349491,0.01166080,-0.00850438,-0.00564713,0.99865096,0.01991023,-0.01691608,0.04487422
1757966394505,0.95052539,0.90756497,2.15374098,0.06448849,-0.07524207,0.00826103,0.99863558,0.02024557,-0.01730734,0.04491718
1757966394528,-0.32257817,-0.42418049,-0.73365880,0.00545851,-0.02089187,-0.01426593,0.99863745,0.02030752,-0.01754446,0.04475526
1757966394549,-0.09584858,-0.02669846,-0.13850798,0.00424740,-0.02360814,-0.00508916,0.99863444,0.02035382,-0.01780179,0.04469979
1757966394573,0.00343100,0.13137821,-0.03505267,0.03052687,-0.02352095,0.00117420,0.99862148,0.02071251,-0.01807816,0.04471359
1757966394605,-0.00298971,-0.02661585,-0.05958214,0.02010597,-0.01353607,-0.01672577,0.99862275,0.02103119,-0.01829271,0.04444848
1757966394617,0.11435304,0.30943592,0.93243348,-0.01304470,-0.06153708,0.00433574,0.99861598,0.02094770,-0.01868655,0.04447623
1757966394629,-0.18114341,-0.52067062,-0.07362294,0.02096700,-0.04552267,-0.01120806,0.99861154,0.02106407,-0.01893920,0.04441403
1757966394674,-0.00721924,0.00355587,-0.27119237,-0.00293043,-0.00758576,0.00963898,0.99859996,0.02099784,-0.01911064,0.04463187
1757966394695,-0.04388072,0.30638226,0.57321800,0.03324710,-0.04082772,-0.03289903,0.99859963,0.02135026,-0.01954341,0.04428314
1757966394730,0.00378199,-0.12000099,-0.30337077,0.01160135,-0.01938668,-0.00469097,0.99859215,0.02155503,-0.01988559,0.04420034
1757966394762,-0.07976871,-0.11693577,0.14917424,-0.04561391,-0.03456125,0.01972134,0.99858267,0.02084117,-0.02042647,0.04450898
1757966394795,-0.09336267,-0.01287482,-0.09735662,-0.02070496,-0.02941816,0.02082503,0.99856399,0.02049333,-0.02092069,0.04485884
1757966394830,0.06454055,0.11365025,0.08003836,0.04628893,-0.02210200,0.04070094,0.99850726,0.02129412,-0.02130306,0.04556297
1757966394864,0.05935912,-0.04656736,0.06126751,-0.00892543,-0.02591122,-0.00574477,0.99850546,0.02114328,-0.02174096,0.04546588
1757966394896,0.00615345,-0.07455416,-0.05859804,0.00226610,-0.03335416,-0.01244198,0.99850187,0.02118056,-0.02228963,0.04526121
1757966394908,0.09725709,0.69584314,1.56460575,0.06975539,-0.08527491,-0.03709589,0.99849213,0.02157119,-0.02276717,0.04505348
1757966394931,0.07081573,-0.28038971,-0.70574282,-0.03616761,-0.06022654,-0.00589257,0.99848805,0.02115526,-0.02345978,0.04498571
1757966394965,0.02437771,-0.09298465,-0.19962763,-0.04302890,-0.04991102,-0.00847539,0.99848947,0.02041517,-0.02431825,0.04483993
1757966394973,0.15961186,-0.34061181,0.66279379,-0.01722120,-0.18219826,0.03364875,0.99846623,0.02034456,-0.02506526,0.04497789
1757966395003,-0.13375703,0.24076334,-0.13134393,0.00998102,-0.03483708,0.01994880,0.99843709,0.02049078,-0.02557562,0.04527014
1757966395008,-1.54198896,0.38996041,3.93363933,0.06752116,-0.11225766,0.13934364,0.99840946,0.02066634,-0.02586749,0.04563244
1757966395030,0.29584441,-0.08477463,-0.87114481,0.01469288,-0.02627074,0.01872092,0.99838914,0.02082796,-0.02615647,0.04583837
1757966395044,-0.14705973,-0.02444973,0.09013935,0.02590321,-0.01703703,0.00235725,0.99838156,0.02100669,-0.02627403,0.04585463
1757966395058,-0.02550722,-0.15184380,-0.21293432,-0.00473293,-0.01378853,-0.01093607,0.99838325,0.02097309,-0.02637193,0.04577699
1757966395065,-0.36007690,-0.37872900,0.33551725,0.00427585,-0.01805342,0.01052466,0.99837942,0.02098869,-0.02643782,0.04581540
1757966395084,0.25341732,0.16241792,-0.21234966,0.01288797,-0.00082414,-0.00946057,0.99838074,0.02110984,-0.02644557,0.04572647
1757966395096,-0.20644097,0.03333386,0.07986036,0.00322450,-0.00860536,0.00714315,0.99837699,0.02112919,-0.02649720,0.04576933
1757966395099,-3.95211909,1.29971239,4.94718552,-0.05467831,-0.01922126,0.08226718,0.99837230,0.02104717,-0.02652603,0.04589273
1757966395111,1.02455174,-0.25623485,-1.18609728,0.01169888,0.00719067,0.00177550,0.99837144,0.02111970,-0.02648145,0.04590374
1757966395122,-0.07073582,0.03564997,0.01951333,0.00118378,0.00680871,0.00224222,0.99837173,0.02112621,-0.02644400,0.04591607
1757966395139,0.12532335,-0.05931937,-0.10933911,-0.00061544,0.00098475,0.00668721,0.99836953,0.02112117,-0.02643593,0.04597091
1757966395152,-0.03026671,-0.02424460,-0.23455621,-0.01173939,-0.00273827,0.00150531,0.99837023,0.02104310,-0.02645414,0.04598092
1757966395166,0.05230997,-0.04874055,0.02678619,-0.00975143,0.00404828,0.00950511,0.99836934,0.02097387,-0.02642539,0.04604840
1757966395168,-15.00384769,-3.34900312,-1.71676715,-0.12728458,0.01050391,0.06743574,0.99836920,0.02086567,-0.02641647,0.04610572
1757966395179,2.13838216,0.63792553,0.58015091,-0.01623273,-0.00582829,0.02616789,0.99836366,0.02077802,-0.02644794,0.04624703
1757966395192,0.13190690,0.04262529,-0.08347843,0.00113570,-0.00459124,0.02130846,0.99835612,0.02078557,-0.02647847,0.04638873
1757966395205,0.02255180,0.07028146,-0.01821016,0.00354284,-0.01172243,0.01690975,0.99834838,0.02080895,-0.02655584,0.04650034
1757966395219,0.02360042,0.00302262,-0.00696678,0.00887151,-0.00997526,0.01425083,0.99834058,0.02087105,-0.02662567,0.04660009
1757966395231,0.00141768,-0.00377679,-0.01891719,0.01794114,-0.02132062,0.01304022,0.99833093,0.02098229,-0.02675785,0.04668094
1757966395243,0.02702062,0.01001466,-0.00668580,-0.00139113,-0.00524934,0.01227611,0.99832692,0.02097415,-0.02678856,0.04675276
1757966395276,0.04872954,-0.05587576,-0.02106253,0.00181407,-0.00368746,0.00385709,0.99832167,0.02100408,-0.02684941,0.04681640
1757966395307,-0.08203718,-0.12284743,0.03309392,-0.02363669,-0.00902343,0.00767430,0.99832000,0.02064599,-0.02698611,0.04693266
1757966395328,-0.00544036,0.30695413,-0.03547977,0.03396227,0.00027339,0.04148012,0.99829140,0.02101108,-0.02698317,0.04737858
1757966395339,-0.12052241,0.51636600,-0.34408609,0.06578517,0.01237869,0.04781115,0.99827371,0.02135974,-0.02691756,0.04763198
1757966395349,0.51440574,-0.28368063,-0.57004386,0.01768860,0.02234369,-0.05093572,0.99828747,0.02145172,-0.02680138,0.04736711
1757966395371,-0.00155911,-0.14132147,0.22586509,-0.00311568,0.01397803,-0.01405787,0.99829948,0.02141792,-0.02664972,0.04721458
1757966395382,-0.13913696,0.08463652,0.07030416,0.02197392,0.04208025,-0.02104202,0.99830858,0.02153987,-0.02641617,0.04709780
1757966395416,0.00853811,-0.04453173,0.06320114,0.00662603,0.01394076,0.00370765,0.99830941,0.02165285,-0.02617848,0.04716101
1757966395427,-0.22412674,0.22276753,-0.16115666,-0.01713749,0.02843887,0.02192108,0.99830983,0.02156030,-0.02602491,0.04727939
1757966395449,0.14957466,-0.19464935,0.10076129,-0.01454253,0.00025189,0.00616876,0.99831013,0.02140106,-0.02602215,0.04734694
1757966395471,-0.03803497,0.01429104,-0.05855435,-0.02123506,-0.00124864,0.00605451,0.99831163,0.02116005,-0.02603632,0.04741565
1757966395482,0.08366828,-0.39572302,-0.13403070,-0.03456903,-0.01069087,0.02902672,0.99830651,0.02096992,-0.02609512,0.04757530
1757966395516,0.02044824,0.12985201,0.10043332,-0.00369106,0.00095298,0.01274158,0.99829806,0.02090827,-0.02607921,0.04778809
1757966395537,-0.00624751,0.02487518,-0.00581050,-0.00465862,0.01770381,-0.00467727,0.99830639,0.02085866,-0.02589066,0.04773827
1757966395550,0.14785265,-0.05235806,0.13709270,-0.01789342,0.03610624,-0.03431165,0.99832478,0.02074683,-0.02566500,0.04752383
1757966395584,-0.04857456,0.08255161,-0.02669800,0.02663432,0.00441140,-0.02533651,0.99833756,0.02119828,-0.02559023,0.04709437
1757966395615,0.06433887,0.06675062,0.03423435,0.02964727,-0.00472740,-0.01443431,0.99833631,0.02167263,-0.02566586,0.04686342
1757966395627,0.16365805,-0.33775258,0.13827307,0.01451174,-0.01121024,-0.00095078,0.99833303,0.02175753,-0.02573144,0.04685786
1757966395650,-0.19632892,-0.06199370,-0.04849267,-0.00392188,-0.01092953,-0.00491897,0.99833341,0.02171380,-0.02585331,0.04680301
1757966395708,-0.01696404,0.01908600,-0.01669670,0.00189356,0.00420396,0.00716496,0.99832553,0.02176919,-0.02573034,0.04701259
1757966395743,-0.06833211,0.02657771,0.04569296,0.01159600,0.06115763,-0.00127841,0.99834889,0.02196980,-0.02467232,0.04699047
1757966395780,0.12543622,0.02360934,-0.04735709,0.00982941,0.01255968,-0.00420847,0.99835423,0.02215115,-0.02444059,0.04691283
1757966395803,0.14863752,-0.00845087,0.03803022,0.00279794,-0.01904147,0.00870919,0.99834323,0.02218389,-0.02466338,0.04701472
1757966395863,-0.04691149,-0.01899452,-0.01916349,0.01411565,-0.02538211,0.00246210,0.99831115,0.02260735,-0.02542484,0.04708859
1757966395901,0.05313467,-0.02254649,0.04549445,0.00686459,-0.01088451,-0.00693557,0.99830909,0.02273881,-0.02563328,0.04695577
1757966395925,-0.09990742,-0.11077183,-0.09128313,-0.03237653,0.00307491,-0.01650424,0.99832779,0.02235677,-0.02559699,0.04676102
1757966395972,-0.00179255,0.06102691,0.00428071,0.00536286,-0.01375834,0.00038156,0.99831615,0.02248333,-0.02592169,0.04677003
1757966395993,-0.02477373,-0.12403542,-0.14164034,-0.00877595,-0.04429935,0.01267095,0.99829971,0.02239075,-0.02638905,0.04690370
1757966396027,-0.00800004,-0.01444799,0.09416479,-0.02672492,-0.01800404,0.00228338,0.99829984,0.02193909,-0.02669332,0.04694229
1757966396062,-0.00427583,0.11295907,-0.02559672,0.01699493,0.00068083,0.01181602,0.99828392,0.02223481,-0.02668147,0.04714789
1757966396104,0.00608451,-0.00091348,-0.02009724,0.01021834,-0.00434028,-0.01493724,0.99829152,0.02245144,-0.02677348,0.04683122
1757966396115,-0.39274617,-0.84651857,0.10574365,-0.11776556,0.02185244,-0.00797764,0.99831132,0.02179784,-0.02665220,0.04678695
1757966396172,0.04263134,0.15694596,0.00750035,0.00080691,-0.00204238,0.01085867,0.99829465,0.02182091,-0.02671061,0.04709750
1757966396205,-0.04275993,0.02244920,-0.00992034,-0.00879652,0.00250841,0.01282135,0.99828899,0.02167753,-0.02666973,0.04730649
1757966396239,0.04422562,-0.06964863,0.05754020,-0.00083918,0.01524712,-0.00438802,0.99829978,0.02166318,-0.02640900,0.04723146
1757966396275,0.01376671,0.07688177,-0.01734982,0.03151327,0.02496402,-0.00716972,0.99830511,0.02222097,-0.02596714,0.04710455
1757966396310,0.00225418,-0.02622934,-0.02379804,0.00529853,0.00167701,-0.02968470,0.99832825,0.02231395,-0.02593771,0.04658359
1757966396355,0.05748735,-0.04185473,0.01205200,-0.01091034,-0.00044805,-0.00665981,0.99834061,0.02206465,-0.02594794,0.04643141
1757966396394,-0.05463768,0.08739736,-0.08582884,-0.01204187,-0.00823619,0.00688492,0.99833544,0.02183465,-0.02610526,0.04656291
1757966396454,-0.00490347,-0.03380748,0.04251436,-0.00457782,0.00894553,-0.00223051,0.99834871,0.02169549,-0.02583331,0.04649510
1757966396502,0.07307206,0.03360250,0.01126846,0.03031611,0.00938720,-0.00276029,0.99834152,0.02242307,-0.02560802,0.04642886
1757966396541,-0.01056326,-0.07059349,0.02343705,-0.01258787,-0.02609216,0.00166067,0.99833244,0.02218076,-0.02611029,0.04646083
1757966396588,-0.00262923,0.01517265,-0.04899626,0.00623058,-0.00741497,0.00381135,0.99832043,0.02232718,-0.02628454,0.04655039
1757966396631,-0.00749919,-0.01831654,0.02868317,-0.01141384,-0.00009399,-0.01211116,0.99833815,0.02207893,-0.02628659,0.04628697
1757966396666,0.03963137,0.02608661,0.03938306,-0.00622030,-0.03002818,-0.00659114,0.99833204,0.02197225,-0.02680157,0.04617394
1757966396690,0.08081577,-0.05559365,0.09788113,0.01324474,-0.04809735,0.01804722,0.99830222,0.02213450,-0.02739076,0.04639501
1757966396739,-0.11047092,0.05456519,-0.04200377,0.00012636,-0.00621409,0.00436938,0.99829298,0.02213759,-0.02754301,0.04650206
1757966396774,-0.00744310,0.02807958,-0.04332473,0.02732011,0.00307556,0.01065580,0.99827535,0.02260750,-0.02749011,0.04668534
1757966396809,0.02623513,0.07008810,-0.07631394,0.01913617,0.00902143,-0.02272118,0.99829073,0.02294621,-0.02733043,0.04628318
1757966396845,-0.02008205,-0.15209735,0.15900898,-0.02861063,0.00859925,-0.00020654,0.99830666,0.02243694,-0.02717736,0.04627950
1757966396877,-0.03226269,0.00635339,-0.01204288,-0.00667299,-0.02077833,-0.00081111,0.99830037,0.02232717,-0.02751917,0.04626616
1757966396910,-0.03394484,-0.00821953,0.05444308,-0.00577206,-0.00055774,0.00682327,0.99829705,0.02223279,-0.02752829,0.04637772
1757966396956,0.02739977,0.02403723,-0.01044904,0.00543607,0.00161153,-0.00265476,0.99829810,0.02235619,-0.02749171,0.04631746
1757966396988,0.06931833,0.11155709,-0.02674204,0.02364425,0.01596938,-0.02392584,0.99831460,0.02274278,-0.02723061,0.04592627
1757966397022,-0.11495394,-0.07356917,0.04543376,0.01239111,0.01254542,-0.01961634,0.99833062,0.02295033,-0.02702047,0.04559770
1757966397064,-0.01405337,-0.01794930,0.00013883,-0.00128834,0.00223723,0.00359839,0.99832904,0.02292289,-0.02697282,0.04567434
1757966397108,-0.06585746,-0.07089335,-0.00824775,-0.01830655,0.00779882,0.00835158,0.99833432,0.02252655,-0.02680397,0.04585515
1757966397145,-0.01041594,0.10337121,0.10385127,0.01452898,0.01911040,-0.00276182,0.99834002,0.02279679,-0.02644852,0.04580378
1757966397177,0.02181011,0.01353306,-0.05302572,0.01735957,-0.00326441,-0.00606826,0.99833669,0.02307541,-0.02650091,0.04570639
1757966397217,0.03143858,-0.03912061,-0.04018402,0.00801378,-0.01131064,0.00469878,0.99832257,0.02323649,-0.02672826,0.04580083
1757966397252,-0.06247358,-0.04063349,0.02927015,0.00244194,-0.00987391,0.00572076,0.99831251,0.02327849,-0.02689809,0.04589923
1757966397283,-0.04539348,-0.02786691,-0.00524820,-0.01105400,0.01611234,0.01420671,0.99831304,0.02310494,-0.02664512,0.04612228
1757966397303,-0.28306161,-0.10846885,0.26053971,-0.04794859,0.04235293,0.00061464,0.99833528,0.02261826,-0.02621524,0.04612852
1757966397336,0.16470432,0.09650357,-0.07564314,0.00002793,0.00724552,-0.00109400,0.99833924,0.02261872,-0.02609569,0.04611046
1757966397369,0.11067088,0.09058373,-0.07509419,0.01396370,-0.01142869,0.00410180,0.99832592,0.02284912,-0.02628426,0.04617814
1757966397402,-0.04224686,-0.01213718,0.09423221,0.00490641,-0.02826443,-0.00088292,0.99831230,0.02293033,-0.02675204,0.04616353
1757966397438,0.03150408,-0.04122576,-0.07845151,-0.00117763,-0.01446408,0.00930616,0.99829818,0.02290936,-0.02700950,0.04632918
1757966397459,-0.48499188,0.33332041,0.59522201,0.11290244,0.01070537,0.03018879,0.99825931,0.02407226,-0.02689924,0.04664013
1757966397481,0.34047591,-0.08702350,-0.49769843,-0.00878048,0.01323759,-0.01287768,0.99827245,0.02397348,-0.02675031,0.04649525
1757966397503,-0.10189912,-0.14128177,0.21243136,-0.00422059,-0.00664755,-0.00351868,0.99827340,0.02392726,-0.02682310,0.04645672
1757966397526,0.05091260,-0.06881379,0.01068655,-0.00598046,0.00134045,0.01591039,0.99826690,0.02385819,-0.02680762,0.04664049
1757966397560,0.07320406,0.02309366,-0.12093832,0.01512237,-0.00415898,0.01008914,0.99825108,0.02411073,-0.02687708,0.04680898
1757966397571,-1.03044988,0.55903629,1.55996788,0.05376305,0.01431547,0.06215864,0.99822934,0.02441449,-0.02679619,0.04716017
1757966397602,0.32388237,-0.18126173,-0.48974540,0.01693661,0.00779192,0.01334323,0.99821603,0.02468294,-0.02667269,0.04737166
1757966397614,-1.05736834,0.18851075,1.88420764,0.04198587,0.01757575,0.00904139,0.99821021,0.02492646,-0.02657075,0.04742410
1757966397636,0.40111822,-0.01542254,-0.72122008,0.03341328,0.02621392,-0.00109703,0.99820915,0.02529901,-0.02627847,0.04741187
1757966397647,-0.89632372,0.28298312,0.41937504,0.07523958,0.02400642,-0.00036319,0.99820247,0.02569402,-0.02615243,0.04740996
1757966397671,0.34322057,-0.15100395,-0.43032412,0.02557552,0.01795065,-0.01116378,0.99820644,0.02599709,-0.02593972,0.04727767
1757966397681,-0.44105877,0.04073051,0.65432037,0.03391196,0.01975964,0.00244368,0.99820385,0.02617683,-0.02583499,0.04729062
1757966397704,0.43647425,-0.08765649,-0.42635404,0.00614626,0.00534339,0.01181167,0.99819722,0.02624659,-0.02577435,0.04742469
1757966397725,-0.18619619,0.04722951,0.25984485,0.02284546,0.00560305,0.01463611,0.99818503,0.02648761,-0.02571523,0.04757910
1757966397759,0.07809676,-0.02698823,-0.11238443,0.01438172,-0.00032145,0.01431190,0.99816653,0.02673497,-0.02572076,0.04782526
1757966397770,-2.70216185,0.90973496,3.89992336,0.05286228,-0.01899217,0.05698770,0.99814257,0.02700721,-0.02581857,0.04811875
1757966397791,1.14988044,-0.35794397,-1.66363581,0.03597720,0.01100061,0.01214462,0.99812878,0.02739397,-0.02570032,0.04824930
1757966397838,0.11395524,-0.02889936,-0.18082841,0.01634065,0.00640234,-0.00103929,0.99812324,0.02777634,-0.02555050,0.04822498
1757966397869,-0.28060573,0.06041546,0.34060691,0.01881343,0.00516531,0.00457509,0.99811370,0.02806795,-0.02547044,0.04829590
1757966397881,-0.54045783,0.06016286,0.42765247,0.05983936,-0.00623906,0.04939577,0.99808734,0.02843895,-0.02550912,0.04860215
1757966397914,0.41979842,-0.05599802,-0.41647246,0.02165795,0.00453502,0.01668990,0.99806569,0.02879414,-0.02543475,0.04887587
1757966397947,0.00492232,-0.03841112,-0.02581098,0.00857827,0.00835338,0.00779303,0.99805877,0.02893611,-0.02529650,0.04900484
1757966397958,-1.10413213,0.30226997,1.92402376,0.00871149,0.04885951,0.02366351,0.99805779,0.02898272,-0.02503510,0.04913144
1757966397980,0.45062566,-0.10829886,-0.64268362,0.00844878,0.01165787,0.00087951,0.99805782,0.02907650,-0.02490570,0.04914120
1757966398003,0.14565682,-0.05348017,-0.23423243,0.01248518,0.00638709,0.00196015,0.99805428,0.02922258,-0.02483097,0.04916414
1757966398037,0.03198244,0.01734913,-0.03307967,0.01371313,0.00112116,0.00034204,0.99804777,0.02945021,-0.02481236,0.04916981
1757966398069,-0.17909635,0.04806319,0.33447559,0.02975401,-0.00151781,0.01248747,0.99802291,0.02993074,-0.02483687,0.04937149
1757966398103,0.13769943,-0.04653531,-0.30910429,0.01116578,-0.00471167,0.01253298,0.99800454,0.03012168,-0.02491744,0.04958580
1757966398124,-0.20215446,0.23087557,0.71597012,0.08774141,-0.01227527,0.01251504,0.99796617,0.03105173,-0.02504756,0.04971846
1757966398193,0.11180242,-0.07502357,-0.27593708,0.00058690,-0.00552138,-0.01175710,0.99798085,0.03107195,-0.02523777,0.04931343
1757966398224,-0.13333974,-0.12319335,0.63172242,-0.01248917,-0.02485771,0.01560175,0.99796527,0.03088087,-0.02561809,0.04955214
1757966398270,0.03691199,0.01308711,-0.22725434,-0.00693586,-0.02277545,0.00788652,0.99794739,0.03071961,-0.02614762,0.04973550
1757966398290,-0.15281733,-0.16163705,0.59887026,0.02388560,-0.03410145,0.01645128,0.99792317,0.03095488,-0.02648352,0.04989754
1757966398337,0.07056270,0.06994241,-0.31467939,0.01182215,-0.00338841,0.00394367,0.99790789,0.03123034,-0.02656247,0.04998943
1757966398358,-0.09427125,-0.11168704,0.22611723,0.00109035,0.00895793,-0.03153936,0.99792648,0.03124173,-0.02646886,0.04965984
1757966398404,0.06616107,0.06607872,-0.16890194,-0.01065528,0.00935392,-0.00631012,0.99794715,0.03099506,-0.02625232,0.04951376
1757966398437,-0.16725472,-0.19916699,0.33397875,-0.04757340,0.04222549,0.00126854,0.99798790,0.03021724,-0.02556193,0.04953450
1757966398469,0.01804999,-0.07101698,0.00956004,-0.08240076,0.04952081,-0.01814451,0.99806174,0.02889059,-0.02476464,0.04924238
1757966398491,-0.06315452,0.04222500,0.67017369,-0.01764177,0.07137591,-0.03512113,0.99810490,0.02869917,-0.02399022,0.04886131
1757966398524,0.27400834,0.44235751,-0.37265995,0.03262393,0.02090377,-0.02602304,0.99811884,0.02925378,-0.02363485,0.04841892
1757966398570,0.02407396,-0.03452342,0.01884289,0.01780107,0.00819794,-0.02695032,0.99814084,0.02965875,-0.02344835,0.04780580
1757966398591,0.38119930,1.26295201,1.67505779,0.16539303,-0.02557305,-0.08826176,0.99812542,0.03138711,-0.02371559,0.04688347
1757966398624,-0.14279286,-0.41386012,-0.77153057,0.14943392,-0.01514196,-0.02985227,0.99806229,0.03383783,-0.02396392,0.04639389
1757966398657,-0.03348938,-0.25513582,-0.29160674,0.07758244,-0.01007132,-0.00548825,0.99801759,0.03513733,-0.02413261,0.04630196
1757966398668,-0.24312892,1.41325839,3.05877167,0.19350582,-0.04176836,-0.03921513,0.99798520,0.03616291,-0.02435398,0.04609412
1757966398702,0.00772998,-0.47689428,-1.17561589,0.06804431,-0.01604866,-0.00428467,0.99793914,0.03732307,-0.02462761,0.04602107
1757966398724,0.20376870,0.04364664,0.23083352,0.10351117,-0.01637064,-0.01628148,0.99790024,0.03844617,-0.02480523,0.04584441
1757966398735,0.25014708,0.59440878,0.96195717,0.08051059,-0.05539362,-0.02374113,0.99788059,0.03890910,-0.02512375,0.04570790
1757966398758,-0.15968112,-0.33622336,-0.65785503,0.06059581,-0.01156168,-0.02843099,0.99786516,0.03958777,-0.02525324,0.04538948
1757966398802,-0.04620406,-0.11525227,-0.25226052,0.02772548,-0.01287033,0.00171845,0.99783131,0.04020744,-0.02554089,0.04542788
1757966398825,0.49886494,0.04894735,0.13492998,0.01466137,-0.10855949,-0.08007806,0.99783326,0.04037311,-0.02676761,0.04452300
1757966398847,-0.44345273,-0.34314327,-0.30243854,-0.02250920,-0.05203075,-0.01898156,0.99783705,0.04012326,-0.02734515,0.04431231
1757966398869,-0.20180210,-0.33964460,0.00247220,-0.05594778,-0.06151964,0.00134338,0.99784209,0.03951902,-0.02800956,0.04432681
1757966398890,0.12259814,0.12502061,-0.07742136,-0.07272055,-0.04855332,0.00328941,0.99785658,0.03872637,-0.02853880,0.04436267
1757966398913,-0.07542712,0.18106202,0.00391882,-0.04639535,-0.01788001,0.00491662,0.99786847,0.03820442,-0.02873995,0.04441798
1757966398923,0.09226831,-1.14757642,-0.77142434,-0.09645498,-0.05080238,0.01313478,0.99787646,0.03772697,-0.02899142,0.04448300
1757966398935,-0.22262038,0.52534923,0.26016749,-0.05747923,-0.00949062,0.00681623,0.99788620,0.03737347,-0.02904979,0.04452492
1757966398946,0.07939374,0.11842471,0.11102729,-0.03446229,0.00168608,-0.00805462,0.99789510,0.03719255,-0.02904093,0.04448263
1757966398982,-0.00758771,0.18489024,0.12146027,-0.00746123,0.00745795,-0.00127683,0.99790510,0.03705713,-0.02890557,0.04445946
1757966399013,-0.05669797,-0.09142254,-0.11062813,-0.02041157,0.01935710,0.00288688,0.99792363,0.03673768,-0.02860263,0.04450464
1757966399024,-1.15805797,-0.87768035,-0.99271854,-0.12021272,0.09627546,-0.04983188,0.99797358,0.03609455,-0.02808756,0.04423804
1757966399057,0.27405951,0.35962390,0.34799391,-0.00911538,0.02644368,0.01212996,0.99798220,0.03594597,-0.02765653,0.04443575
1757966399090,-0.05018274,0.04476312,0.01031591,-0.00550300,0.03109430,0.02211932,0.99798324,0.03585489,-0.02714192,0.04480183
1757966399114,-0.40353417,0.03109608,-0.15545858,0.00131611,0.09150426,0.03711860,0.99799190,0.03587082,-0.02603471,0.04525096
1757966399145,0.30071875,0.02786253,0.16814042,0.00562725,0.04707444,0.02102407,0.99799270,0.03595916,-0.02529565,0.04558104
1757966399156,-1.20472963,0.86615599,-0.19536081,0.07564902,0.13504472,0.06161242,0.99798053,0.03637902,-0.02454615,0.04592299
1757966399203,0.33524971,-0.15062154,0.07500654,0.02309842,0.03372940,0.01131299,0.99796771,0.03691374,-0.02376531,0.04618489
1757966399224,-0.63130249,0.27305455,-0.23872521,0.04274716,0.12726986,0.03856648,0.99796297,0.03737328,-0.02239716,0.04659948
1757966399268,0.32891078,-0.16342889,0.07684927,0.02397845,0.03397873,0.00767856,0.99795175,0.03789721,-0.02165473,0.04676725
1757966399290,-0.38637752,0.16431531,-0.33430896,0.05801203,0.10282986,0.05472951,0.99792214,0.03854984,-0.02049789,0.04738296
1757966399314,0.35404491,-0.16026037,0.05555794,0.01257765,0.05998741,0.02323255,0.99791763,0.03869826,-0.01979004,0.04765710
1757966399346,0.08730636,-0.05767045,0.07197306,0.00463098,0.03181116,-0.00267699,0.99792688,0.03877328,-0.01927470,0.04761374
1757966399368,0.05573581,0.06914794,-0.07329354,-0.00085255,0.03944486,0.00054219,0.99793502,0.03876416,-0.01885264,0.04761954
1757966399379,0.18593970,-0.14045226,-0.92779734,0.02894525,0.05060485,0.00306893,0.99793322,0.03892480,-0.01857178,0.04763657
1757966399401,0.03938753,-0.07208276,0.29938263,-0.03082586,0.02185565,0.02255865,0.99793898,0.03858418,-0.01833028,0.04788584
1757966399435,-0.02058712,0.00311425,0.05800687,0.00165111,0.00613874,-0.00512381,0.99794392,0.03861192,-0.01822715,0.04779976
1757966399456,0.04458413,-0.11549906,-0.31737106,-0.01195264,0.01690130,-0.00087272,0.99795264,0.03848342,-0.01804546,0.04779038
1757966399489,-0.08655923,-0.05774791,0.20916425,-0.02630177,0.00824287,-0.02778204,0.99799407,0.03804419,-0.01790780,0.04732642
1757966399500,0.63423063,-0.82390937,-3.76748139,-0.16194274,0.07137275,-0.02765950,0.99804136,0.03716160,-0.01751882,0.04717568
1757966399523,-0.18172589,0.36252765,1.53966692,-0.07198738,0.02037581,0.01126600,0.99806980,0.03633374,-0.01728450,0.04730524
1757966399557,-0.01510832,0.04702084,0.17071644,-0.05034932,0.00904051,-0.00402210,0.99810616,0.03548536,-0.01713216,0.04723746
1757966399567,0.38804513,-1.07503267,-1.77313846,-0.16572584,0.06397099,-0.01171955,0.99814459,0.03463187,-0.01680271,0.04717711
1757966399601,-0.15001141,0.36912758,0.56908886,-0.01637954,0.02300065,0.00401935,0.99815722,0.03435915,-0.01641975,0.04724403
1757966399640,-0.00581984,0.06288470,0.03953489,0.00111810,0.02725771,-0.00202111,0.99816704,0.03438118,-0.01588278,0.04720421
1757966399673,0.00987339,-0.00400134,-0.23266042,-0.01630022,0.06311632,-0.01379555,0.99820325,0.03411059,-0.01483505,0.04697521
1757966399707,-0.06025703,0.04434493,0.16346907,0.00059947,0.04627322,-0.02537193,0.99823385,0.03412057,-0.01406460,0.04655277
1757966399742,0.04509638,0.00682477,-0.00340870,-0.00686509,0.02779997,0.00276417,0.99824247,0.03399975,-0.01357532,0.04660141
1757966399777,-0.06621655,-0.12327788,-0.02226745,-0.05306644,0.01889860,-0.00136600,0.99827933,0.03306843,-0.01324365,0.04657744
1757966399809,-0.06701179,0.01943595,0.12430913,-0.03274017,0.02901005,0.00516272,0.99829886,0.03254131,-0.01277658,0.04666056
1757966399850,-0.00365847,0.02853920,0.09702492,-0.02372693,0.02409165,0.00093690,0.99831980,0.03205729,-0.01228511,0.04667967
1757966399881,-0.15227054,0.08034940,0.10576384,0.02366717,0.05043953,0.00041915,0.99831694,0.03242649,-0.01149826,0.04668621
1757966399915,-0.00580757,0.03896350,0.01754454,0.01580558,0.03428866,0.00550224,0.99831042,0.03269203,-0.01092221,0.04677865
1757966399935,-0.17721593,-0.02269630,-0.08263767,0.03630813,0.02963098,0.01240618,0.99829533,0.03306782,-0.01061553,0.04690705
1757966399980,0.12577200,-0.08926330,0.03572504,-0.02440067,0.03166781,0.01658446,0.99830297,0.03252734,-0.00991409,0.04727440
1757966400000,-0.45217098,-0.33039352,-0.04956095,-0.07430133,0.07983683,0.00937263,0.99833073,0.03176575,-0.00909576,0.04737047
1757966400048,0.19076629,0.09231606,-0.00798397,-0.02496276,0.04110129,0.00006557,0.99835820,0.03116290,-0.00810316,0.04737205
1757966400080,-0.07898514,-0.12513972,0.07090585,-0.05649729,0.05269423,0.00567268,0.99838819,0.03025895,-0.00726005,0.04746282
1757966400115,0.01419008,0.06420237,-0.00234925,-0.01829651,0.05232571,0.00518225,0.99839951,0.02994608,-0.00636529,0.04755143
1757966400148,0.00903965,0.07549269,0.01209512,-0.01468790,0.04815337,-0.03255915,0.99843694,0.02970372,-0.00557075,0.04701421
1757966400182,-0.02767483,-0.05556215,0.02020775,-0.05607791,0.04768016,-0.01923767,0.99848411,0.02875601,-0.00476496,0.04668909
1757966400217,-0.03256689,-0.01326604,0.04754451,-0.05157371,0.07858296,0.00001201,0.99851590,0.02783542,-0.00336225,0.04668930
1757966400252,-0.14987021,-0.10998738,0.23284951,-0.08502573,0.09752812,-0.00812191,0.99856747,0.02633896,-0.00164576,0.04654636
1757966400310,0.17006662,0.11159756,-0.05908723,-0.01097540,0.04295117,-0.00018409,0.99857724,0.02602397,-0.00041306,0.04654107
1757966400348,-0.29184577,0.07078762,0.43060318,0.00592083,0.10088908,0.00775380,0.99856635,0.02613676,0.00150888,0.04668878
1757966400385,0.23379287,0.08492032,-0.23918592,0.01950634,0.04894328,-0.01326065,0.99856650,0.02649860,0.00241677,0.04644280
1757966400420,0.03681265,0.12111457,0.09536840,0.03702967,0.04715736,0.00639798,0.99854117,0.02715588,0.00325382,0.04655636
1757966400469,0.06653789,-0.11067733,-0.10821096,0.01091350,0.01818742,-0.01275325,0.99854677,0.02741999,0.00369395,0.04624774
1757966400490,-0.87540150,0.19528847,1.73815346,0.04964203,0.05528330,-0.01171251,0.99853547,0.02795116,0.00428548,0.04612241
1757966400548,0.33886086,-0.05024317,-0.67436836,0.01991898,0.01865521,-0.00758854,0.99852689,0.02852383,0.00482182,0.04590424
1757966400583,-0.13497348,0.04895030,0.25830050,0.04536818,0.01615988,-0.00803127,0.99850899,0.02931550,0.00510381,0.04576410
1757966400624,0.11106514,-0.08154779,-0.13269835,-0.00303135,0.01483462,0.01412673,0.99849583,0.02925306,0.00540941,0.04605511
1757966400668,-0.05284630,0.09414008,0.00970347,0.02782121,-0.00410185,0.00037707,0.99847765,0.02987069,0.00531834,0.04606348
1757966400688,-0.50709516,0.05359326,0.90360459,0.04530494,-0.00089117,0.02151806,0.99845385,0.03032827,0.00530934,0.04628081
1757966400734,0.25799642,-0.11418677,-0.47717782,-0.00384633,0.00131639,-0.01408751,0.99847126,0.03024019,0.00533949,0.04595820
1757966400768,-0.01650981,0.06168545,0.02025385,0.00588350,0.00698300,0.01428952,0.99845633,0.03034050,0.00545855,0.04620184
1757966400802,0.12630403,0.07915061,-0.10586517,0.03965104,-0.02096631,0.01369660,0.99842732,0.03100069,0.00510946,0.04642989
1757966400836,-0.02524043,-0.08690423,0.01106224,-0.02617544,-0.04501870,0.00768345,0.99843880,0.03054655,0.00432839,0.04656320
1757966400871,-0.03827834,-0.02538391,-0.06935333,0.01440860,-0.00592245,0.03223257,0.99840552,0.03079510,0.00422622,0.04711921
1757966400916,-0.01276435,-0.00522648,-0.03322935,0.01151389,-0.01835982,-0.00374785,0.99840310,0.03105761,0.00380762,0.04703376
1757966400949,0.03719035,-0.16550909,0.08523310,-0.00621885,0.00271603,0.01331047,0.99839584,0.03095624,0.00385189,0.04725072
1757966400993,0.01841074,-0.02303718,-0.13917526,-0.02419299,0.01301369,-0.00084537,0.99841197,0.03042279,0.00413884,0.04723208
1757966401027,0.01624809,0.04805874,0.13886474,-0.04870546,0.00340837,-0.01061363,0.99844503,0.02959723,0.00419661,0.04705218
1757966401069,0.05539047,0.09421010,-0.03733144,0.00722500,-0.00770214,0.01306187,0.99842835,0.02974787,0.00403602,0.04732452
1757966401100,-0.03353259,0.11182492,0.20242885,0.02845253,0.00719966,0.00760842,0.99840906,0.03018889,0.00414762,0.04744245
1757966401122,-0.02392461,0.08664524,-0.02840270,0.07165442,0.04549062,-0.02391054,0.99839498,0.03098783,0.00465484,0.04717585
1757966401155,0.06493572,-0.00477374,-0.16119642,0.04689324,0.02523295,-0.00753321,0.99837424,0.03177095,0.00507623,0.04705004
1757966401188,0.05698359,0.00538218,-0.11615681,0.02577585,-0.00286013,0.00857502,0.99835449,0.03218981,0.00502975,0.04718939
1757966401199,0.23585984,0.06326302,0.47636977,-0.01292319,-0.03864360,-0.00270624,0.99835856,0.03211809,0.00481528,0.04717437
1757966401222,-0.11441478,-0.24239968,-0.24142973,0.01175498,-0.02536339,0.00912689,0.99835067,0.03225209,0.00452614,0.04727841
1757966401265,-0.04585095,0.01394748,-0.06486199,0.02512987,-0.00625575,0.00042678,0.99833299,0.03279992,0.00438976,0.04728772
1757966401277,0.12474216,0.61534505,0.34319759,0.04283577,0.00022855,0.02790193,0.99831657,0.03305694,0.00439113,0.04745513
1757966401299,-0.01541429,-0.52264899,-0.29375402,-0.01083049,0.00172984,0.00563343,0.99831747,0.03293780,0.00441016,0.04751710
1757966401333,-0.00799268,0.01004829,-0.00730731,-0.00941396,0.00732032,-0.00882679,0.99832911,0.03278059,0.00453241,0.04736969
1757966401366,0.01701641,0.01725009,-0.03175209,-0.00354717,-0.00475942,-0.01621426,0.99834417,0.03272153,0.00445317,0.04709972
1757966401378,1.47718769,-0.22889846,-1.52847644,-0.04513137,-0.01164627,0.01761211,0.99834816,0.03246202,0.00438620,0.04720099
1757966401399,-0.72320319,0.14765972,0.56073324,-0.00254008,0.00348298,0.01758105,0.99833997,0.03243484,0.00442347,0.04738911
1757966401422,0.01945723,0.03146009,-0.08929233,0.01590419,0.00435613,-0.02824264,0.99834903,0.03261536,0.00447291,0.04706855
1757966401466,-0.05386418,0.00589566,0.12183633,-0.01830259,-0.00949196,-0.01884179,0.99838293,0.03220721,0.00426124,0.04664838
1757966401477,0.32204280,-0.39919922,-1.74250465,-0.10430143,-0.04545813,0.02939201,0.99839463,0.03163877,0.00401349,0.04680857
1757966401521,-0.06985620,0.07500957,0.40712877,-0.00801150,-0.01162764,0.00404441,0.99839703,0.03146211,0.00375710,0.04689775
1757966401543,0.47495142,-0.13964042,-0.76359506,-0.02961782,-0.03780228,-0.00851871,0.99841290,0.03114076,0.00334695,0.04680532
1757966401566,-0.17658122,0.24478597,0.35715536,-0.00512542,-0.01513827,0.00496320,0.99841262,0.03108182,0.00317286,0.04686240
1757966401588,-0.12747262,-0.13065502,0.02524107,-0.01066209,0.00215998,-0.01120913,0.99842189,0.03096560,0.00319640,0.04674022
1757966401634,-0.07952972,-0.00460346,0.16049584,-0.01514552,-0.00185379,-0.00806534,0.99844156,0.03061498,0.00315349,0.04655350
1757966401665,0.17173253,-0.07904990,-0.40881754,-0.03175358,-0.01133739,-0.03618922,0.99848307,0.03012280,0.00297776,0.04599257
1757966401677,-0.76293030,-0.08603057,-0.43854379,-0.07631110,-0.01119242,-0.01224817,0.99849992,0.02967638,0.00291228,0.04592092
1757966401699,0.27144208,0.07271351,0.43462150,-0.02929518,-0.01622786,-0.00668653,0.99851315,0.02935853,0.00273621,0.04584837
1757966401722,0.00723579,0.01531193,0.08031761,-0.01561960,-0.00484412,-0.01068233,0.99852449,0.02917422,0.00267905,0.04572232
1757966401733,0.11775812,0.06567523,-0.38877427,-0.05483858,-0.00887216,-0.00570911,0.99853510,0.02886438,0.00262892,0.04569006
1757966401769,-0.10783456,0.05824824,0.27935976,-0.00648265,-0.00153269,0.00152973,0.99853726,0.02874866,0.00260156,0.04571737
1757966401800,0.03916240,0.01270336,-0.08318455,-0.01001051,0.00301304,-0.00287872,0.99854362,0.02859400,0.00264812,0.04567289
1757966401821,0.14173976,-0.03766356,-0.53601676,-0.00611470,-0.00357630,-0.01399624,0.99855231,0.02852949,0.00261039,0.04552523
1757966401833,0.07687198,0.32276698,-0.44980196,-0.00163472,-0.00381023,-0.00947453,0.99855526,0.02851960,0.00258733,0.04546791
1757966401867,-0.20826077,-0.09179771,0.47163045,-0.01139074,-0.00110846,0.00006108,0.99856069,0.02832881,0.00256877,0.04546893
1757966401900,-0.02313896,-0.04852583,-0.03472551,-0.03431002,-0.00053359,0.00316657,0.99857440,0.02775583,0.00255986,0.04552182
1757966401944,0.05682245,-0.04545190,-0.24804945,-0.04314859,-0.00071608,0.00950603,0.99859089,0.02680225,0.00254403,0.04573190
1757966401966,0.49602399,-0.09348121,-0.73906294,-0.12690573,-0.00844307,-0.00947190,0.99863256,0.02539994,0.00245073,0.04562723
1757966401999,-0.21459046,0.05812031,0.35192302,-0.02899976,-0.00514319,0.00777496,0.99863888,0.02492724,0.00236690,0.04575397
1757966402021,0.02555717,0.08986745,0.07457396,-0.00190030,0.01661814,-0.01377027,0.99864594,0.02490615,0.00255136,0.04560112
1757966402068,-0.13380423,0.02549163,0.32316098,-0.00949594,0.00034620,-0.02852236,0.99868139,0.02468584,0.00255939,0.04493940
1757966402089,0.05890905,-0.61802243,-1.46276295,-0.13129940,0.04182686,0.01620797,0.99870562,0.02330720,0.00299858,0.04510958
1757966402147,-0.02584325,0.19359915,0.56552416,-0.02544077,0.00024495,0.00584367,0.99871493,0.02256433,0.00300573,0.04528022
1757966402190,0.03207680,-0.08591202,-0.44144791,-0.02965637,0.02375550,0.05031542,0.99867801,0.02192968,0.00351410,0.04635697
1757966402233,0.02465623,0.07658915,0.15906765,-0.03106722,0.01932610,0.00668604,0.99868427,0.02125708,0.00393251,0.04650172
1757966402245,1.20342649,-1.24363798,-3.55211821,-0.08257999,0.09600421,-0.08402827,0.99871483,0.02077398,0.00449413,0.04601015
1757966402312,-0.21190397,0.22508783,0.76662584,-0.00564671,0.00601073,-0.01496040,0.99874101,0.02058312,0.00469729,0.04550449
1757966402349,0.20830854,-0.09936480,-0.42889789,-0.02805601,0.02496393,-0.02012245,0.99876592,0.02006970,0.00515413,0.04513625
1757966402384,-0.00558924,0.17828797,0.12605598,-0.00246653,0.02193689,-0.02116418,0.99878127,0.02002691,0.00553474,0.04476905
1757966402435,-0.07622598,-0.00199013,0.12068582,0.00172396,0.01286935,-0.01890293,0.99880000,0.02007087,0.00586291,0.04428703
1757966402469,0.08351937,0.04609056,-0.54982854,-0.00298869,0.02126616,-0.03334956,0.99882430,0.02001901,0.00623187,0.04370841
1757966402505,-0.19527757,-0.12595033,0.13599745,0.00097847,0.02602794,0.00982662,0.99881341,0.02003623,0.00668997,0.04388136
1757966402549,-0.02617346,0.02681973,0.05698528,-0.00231419,0.04335971,-0.00668735,0.99881404,0.01998486,0.00765255,0.04373290
1757966402585,0.05725253,0.02068535,-0.64570181,0.00212068,0.09479070,-0.00490145,0.99880278,0.02002250,0.00933509,0.04364590
1757966402634,-0.02523909,-0.04854847,0.39245014,-0.02279617,0.03820753,-0.01865531,0.99882458,0.01946172,0.01027499,0.04318698
1757966402668,0.14279939,-0.06296281,-1.33253499,-0.05066290,0.07529875,-0.01829249,0.99884036,0.01860298,0.01155131,0.04287692
1757966402697,-0.11319189,-0.20449496,0.28275411,-0.06434774,0.06794132,-0.06949860,0.99888945,0.01764420,0.01256363,0.04184139
1757966402744,-0.06790410,0.08710902,0.43101465,-0.06889535,0.06304058,-0.02358418,0.99891977,0.01604238,0.01402933,0.04129306
1757966402764,-0.31791306,-0.82791529,-3.08489205,-0.23396992,0.20230515,-0.01150066,0.99892897,0.01365589,0.01609284,0.04117575
1757966402799,-0.02913553,0.50200370,1.68319689,-0.07064050,0.10118158,-0.01857073,0.99892842,0.01244794,0.01782304,0.04085820
1757966402822,-0.25213704,-0.50400757,-2.64175051,-0.13405806,0.32247777,0.00360919,0.99887141,0.01089956,0.02154766,0.04089988
1757966402854,0.16184136,0.27368388,1.66080466,-0.05893308,0.17474366,-0.03280869,0.99883827,0.00995369,0.02435230,0.04037330
1757966402865,-2.11385575,-1.30062560,-9.85501592,-0.18564962,0.53293676,-0.09067130,0.99879033,0.00889549,0.02739004,0.03985648
1757966402886,0.89593343,0.34785382,3.30593438,-0.07527450,0.33303945,-0.06144900,0.99872057,0.00810510,0.03088695,0.03921126
1757966402909,0.08613381,0.14757273,1.41463158,-0.07464927,0.21587638,-0.06685842,0.99867781,0.00725783,0.03333715,0.03845242
1757966402931,-0.14519636,-0.01337696,-0.38479127,-0.12302798,0.24773010,-0.08397275,0.99862591,0.00587377,0.03612411,0.03750772
1757966402942,-2.43540528,-3.35782684,-12.78326422,-0.32630060,0.77511543,-0.16626345,0.99850546,0.00407912,0.04038725,0.03659328
1757966402953,0.94465560,1.57869371,6.33581032,-0.26673766,0.53893058,-0.16355908,0.99842285,0.00267874,0.04321663,0.03573459
1757966402976,0.61058469,0.54493987,3.96989977,-0.12182399,0.20022741,-0.07648749,0.99835471,0.00128386,0.04550924,0.03485881
1757966402986,-3.09621120,-2.93169160,-5.60492873,-0.35124222,0.44559747,-0.16627481,0.99827450,-0.00059529,0.04789318,0.03396924
1757966402999,-1.23571098,0.18539482,-0.52483621,-0.47496404,0.55900456,-0.07959907,0.99811554,-0.00349257,0.05130311,0.03348368
1757966403033,1.19963934,1.09114314,2.54859646,-0.13532769,0.19382446,-0.01413395,0.99793478,-0.00583374,0.05465627,0.03323917
1757966403067,-1.76992122,-0.58346457,-2.20192670,-0.22029215,0.48172407,0.00085995,0.99742961,-0.00953464,0.06274924,0.03325361
1757966403110,-2.07236665,-0.13112227,0.39158942,-0.34135779,0.92753719,0.09024776,0.99581063,-0.01687384,0.08269129,0.03519394
1757966403154,-1.11846087,0.02566746,0.35800089,-0.43666844,1.14200802,-0.01386455,0.99321236,-0.02645871,0.10775836,0.03488961
1757966403186,-5.11577474,-0.19940269,0.03022786,-0.50716009,1.87262754,0.28063638,0.98905494,-0.03462399,0.13790767,0.03940786
1757966403198,-57.80547766,-4.52781755,-4.88433125,-0.62377459,5.14078673,0.87195415,0.98408790,-0.03824188,0.16772423,0.04446519
1757966403231,23.39507959,2.20870767,3.39975734,-0.07626442,1.25858341,0.12677671,0.98006200,-0.03953456,0.18905722,0.04661406
1757966403252,-7.93030484,-0.89387813,-0.06191890,-0.24964342,1.89848557,0.18996466,0.97581984,-0.04214334,0.20889639,0.04859919
1757966403276,3.64018476,-0.06550542,0.46652409,-0.23600382,1.35493051,0.11355761,0.97203408,-0.04495178,0.22502007,0.04995053
1757966403310,5.57724693,0.76397853,0.21513790,-0.11632777,0.57981384,0.04518952,0.96958819,-0.04691190,0.23478993,0.05071197
1757966403342,-5.76898095,-0.50614063,-0.46483606,-0.25640680,1.14099700,0.06850086,0.96463904,-0.05107851,0.25333113,0.05182511
1757966403348,-381.79447125,-37.53258958,-28.07185022,-1.71878457,5.72303156,-0.05065384,0.96028239,-0.05563329,0.26849716,0.05169087
1757966403379,66.42472725,6.64321771,4.83605822,-0.18177394,0.50820758,0.08586368,0.95776384,-0.05849623,0.27650143,0.05304323
1757966403420,1.60919008,0.06859016,0.00924048,-0.10069463,0.34698766,0.06547534,0.95545493,-0.06058061,0.28368408,0.05439857
1757966403442,-19.57020512,-3.25618110,-1.59083647,-0.46796513,0.83452701,0.17123299,0.95233509,-0.06556444,0.29257179,0.05622220
1757966403464,9.02234079,0.93857207,1.49309221,-0.44531220,0.50524117,0.10829826,0.95019805,-0.07044061,0.29810418,0.05740806
1757966403476,-33.19273347,-4.19981970,-0.14701572,-0.77380632,0.94224631,0.21759761,0.94796966,-0.07508345,0.30375766,0.05871365
1757966403509,15.91854292,2.21239620,0.27419259,-0.29958634,0.32813158,0.08477145,0.94573840,-0.07999666,0.30913902,0.06010390
1757966403544,0.43944089,-0.17507296,0.15306496,-0.31261302,0.26177029,0.07862591,0.94362445,-0.08556117,0.31379853,0.06150344
1757966403574,-8.03127303,-0.38435409,-0.07742654,-0.37560414,0.47233166,0.15973266,0.94052903,-0.09123280,0.32093074,0.06391541
1757966403586,-70.77498778,-7.01821500,1.16713896,-1.07204742,0.98364404,0.30551183,0.93774396,-0.09761148,0.32678342,0.06573320
1757966403609,38.23654956,3.04338021,0.52125554,-0.57736726,0.20805519,0.10472343,0.93614933,-0.10407799,0.32911364,0.06690610
1757966403641,5.16997085,1.02578813,0.08002138,-0.30898716,0.11470099,0.17969967,0.93470614,-0.10909903,0.33097753,0.06982622
1757966403653,-52.68138779,2.08700046,2.67282344,-0.22336948,0.56554021,0.61751262,0.93302769,-0.11046159,0.33442732,0.07359305
1757966403675,19.31717412,1.21077335,-0.79563843,0.01843472,0.31341221,0.18944395,0.93164187,-0.11025881,0.33787486,0.07567693
1757966403686,-12.66918892,-1.57656748,1.37928104,-0.02112212,0.26805589,0.24218239,0.93098289,-0.11037498,0.33934916,0.07700894
1757966403707,17.77348141,0.01718409,-1.04492974,-0.06979627,0.10937932,0.07333367,0.93040946,-0.11111133,0.34050312,0.07778261
1757966403719,-20.63045170,-0.53808420,1.97708748,-0.14083051,0.16894922,0.11934749,0.92988970,-0.11193519,0.34149147,0.07848079
1757966403741,12.70358315,0.56916291,-1.07839431,-0.06469036,0.09003591,0.07504712,0.92936223,-0.11265648,0.34249537,0.07931757
1757966403764,-9.11235044,0.15242000,0.77345030,-0.06179210,0.13948777,0.11387037,0.92858754,-0.11335165,0.34406461,0.08059861
1757966403774,-104.30459218,2.59685265,9.85619030,-0.00300651,0.31602796,0.24287019,0.92790637,-0.11336638,0.34561314,0.08178867
1757966403785,67.14382770,-1.41178798,-6.62712890,0.14579392,0.15310315,0.09031150,0.92763889,-0.11254264,0.34647818,0.08229893
1757966403797,16.07924562,0.04728411,-1.19521890,0.11932010,0.13839762,0.10405201,0.92735229,-0.11180882,0.34732932,0.08293885
1757966403820,12.82775741,-0.17452416,-1.18072898,0.07471779,0.08339460,0.04625719,0.92705333,-0.11096451,0.34827168,0.08346156
1757966403830,-35.63588276,0.90063287,2.99338009,0.20895763,0.21502660,0.09934875,0.92671531,-0.10987793,0.34938982,0.08397817
1757966403842,9.29185880,-0.62981435,-1.01943738,0.20416103,0.17512003,0.06897469,0.92644236,-0.10872442,0.35037925,0.08436788
1757966403852,-2.85931940,-0.43044776,0.45327168,0.20521222,0.18427431,0.07898913,0.92615855,-0.10762654,0.35136512,0.08479047
1757966403864,1.77587997,-0.10971307,-0.03093380,0.18386942,0.19389804,0.06148922,0.92582466,-0.10656929,0.35248003,0.08514403
1757966403874,-7.33932061,0.44501455,0.65193874,0.20683653,0.21459344,0.02399878,0.92551988,-0.10552476,0.35356373,0.08526523
1757966403885,3.31288702,0.59502746,-1.05432763,0.24507331,0.21235022,-0.04222851,0.92525200,-0.10420137,0.35471042,0.08503719
1757966403897,6.51911723,0.21206028,-0.93058734,0.27770950,0.18755500,-0.06929310,0.92503364,-0.10245180,0.35589201,0.08460065
1757966403908,-8.70199791,-0.52048431,0.21488618,0.40107945,0.22885040,-0.08072976,0.92483820,-0.10032608,0.35710492,0.08417278
1757966403919,2.40991254,-0.44676065,-0.24053769,0.33195788,0.24215555,-0.07423011,0.92455626,-0.09850031,0.35843678,0.08376451
1757966403930,-0.86727397,-0.71593957,0.56583160,0.34424439,0.25235276,-0.09224912,0.92426808,-0.09664139,0.35979948,0.08326637
1757966403941,1.46913955,-0.57570683,0.02918713,0.26832589,0.25315908,-0.10744712,0.92392804,-0.09515218,0.36120451,0.08267004
1757966403951,-2.19367887,-0.09094302,-0.26242555,0.21616765,0.31215789,-0.13203570,0.92346373,-0.09401730,0.36284334,0.08197685
1757966403964,7.29898141,0.58327599,-0.29964697,0.16493635,0.27068302,-0.07355709,0.92295076,-0.09300294,0.36450804,0.08152447
1757966403975,-3.70458069,0.35553378,-0.31503336,0.20974820,0.29796802,-0.04656358,0.92241671,-0.09179689,0.36622136,0.08125673
1757966403985,-5.13227090,0.59477661,0.40603721,0.32786343,0.35774507,-0.13085373,0.92192377,-0.09015757,0.36801008,0.08060246
1757966404008,14.23952639,-0.18072484,-0.77497027,0.15575423,0.16318920,-0.03770876,0.92139090,-0.08838976,0.36986228,0.08017447
1757966404019,-73.17011734,-0.69678762,5.28560714,0.56547491,0.79474176,-0.14798815,0.92000132,-0.08530792,0.37419362,0.07936793
