UnixTime(ms),Ax,Ay,Az,Gx,Gy,Gz,QuatW,QuatX,QuatY,QuatZ
1761618578900,0.00000000,0.00000000,0.00000000,0.00000000,0.00000000,0.00000000,0.99814901,0.04723125,-0.00613049,0.03781772
1761618578918,0.22977402,-0.11838632,-0.13254957,-0.02364184,-0.02889680,-0.00714599,0.99816034,0.04700901,-0.00640212,0.03775054
1761618578927,2.01483868,-0.86938520,-1.60122679,-0.08981615,-0.14902258,-0.02569624,0.99817872,0.04661382,-0.00705782,0.03763748
1761618578933,-1.51848734,0.93429409,0.85168451,-0.01734336,-0.08159331,-0.01322661,0.99818099,0.04655919,-0.00731483,0.03759582
1761618578945,-0.24745515,0.28903205,0.10020776,-0.00925899,-0.06696747,-0.00961895,0.99818262,0.04650734,-0.00768985,0.03754195
1761618578956,0.14744888,0.06270152,0.15241671,0.02407632,-0.04929212,0.00547521,0.99817309,0.04664097,-0.00796342,0.03757234
1761618578967,-0.09624009,-0.00797292,0.01645451,0.00817135,-0.05701473,-0.02820326,0.99817429,0.04668672,-0.00828271,0.03741440
1761618578979,0.00047460,-0.14380367,0.08651481,-0.02422647,-0.06663134,-0.03703828,0.99818560,0.04654621,-0.00866917,0.03719958
1761618578990,0.08621020,-0.02477886,0.15942633,-0.07971772,-0.06764727,-0.02457674,0.99820787,0.04610378,-0.00904461,0.03706318
1761618579001,-0.02693094,-0.10893228,0.05651394,-0.05194221,-0.07710762,-0.03153294,0.99822394,0.04581030,-0.00948027,0.03688501
1761618579012,-0.07733390,0.08677777,0.07914396,-0.03835306,-0.06983358,-0.04938734,0.99823988,0.04559936,-0.00986435,0.03661338
1761618579023,-0.29352862,-0.12584367,0.11541271,-0.01539884,-0.05979808,-0.02413036,0.99824525,0.04551544,-0.01019025,0.03648187
1761618579034,-0.15577175,-0.07268094,0.02575815,0.00158155,-0.04366599,-0.02121118,0.99824662,0.04552406,-0.01042823,0.03636627
1761618579045,-0.04797249,-0.12182142,-0.01655853,0.01542555,-0.03318597,0.00149240,0.99824035,0.04561121,-0.01061573,0.03637471
1761618579056,0.09055761,0.18543304,0.01878837,-0.02532070,-0.02371528,-0.00736217,0.99824696,0.04546815,-0.01074972,0.03633311
1761618579067,-0.05694072,0.06931957,-0.00574504,-0.02967783,-0.02059439,-0.01739532,0.99825655,0.04530641,-0.01086196,0.03623830
1761618579079,-0.09259824,0.01924580,0.03837955,-0.03375063,-0.00833115,-0.00254052,0.99826511,0.04511740,-0.01090862,0.03622408
1761618579090,-0.05345602,0.07923369,0.08276773,-0.02574195,-0.00234239,-0.01447171,0.99827441,0.04497325,-0.01092174,0.03614304
1761618579101,-0.00088452,0.01630521,0.04085836,-0.01033196,0.01011902,-0.01289329,0.99828035,0.04491436,-0.01086406,0.03606954
1761618579112,-0.04666288,0.01583099,0.06668643,-0.01302756,0.00219979,-0.00321932,0.99828431,0.04484336,-0.01085207,0.03605200
1761618579126,-0.03091223,0.06718340,-0.07647209,-0.02390438,0.00958782,-0.00925945,0.99829518,0.04467124,-0.01078304,0.03598533
1761618579134,0.36926338,0.05534767,-0.07800630,-0.01869493,0.02838091,-0.00081360,0.99829974,0.04459833,-0.01067235,0.03598216
1761618579145,-0.28114850,0.20262453,-0.02578751,-0.00187757,0.00391969,-0.01789970,0.99830398,0.04458801,-0.01065079,0.03588371
1761618579156,-0.04260993,0.11964031,0.22474122,0.01288865,0.01346257,-0.01186757,0.99830394,0.04465889,-0.01057675,0.03581844
1761618579167,-0.02223119,0.05116031,0.06940724,0.01400864,0.01027117,-0.01446524,0.99830394,0.04473664,-0.01051974,0.03573816
1761618579178,-0.00785948,0.04273003,0.04792895,0.01332809,0.01013008,-0.00467840,0.99830212,0.04481128,-0.01046301,0.03571196
1761618579189,-0.02375037,0.01859676,0.06947328,0.00876216,0.01596382,0.00049535,0.99830078,0.04485947,-0.01037521,0.03571468
1761618579203,-0.05958223,-0.08812731,-0.08555004,0.01325759,0.01241983,0.00367430,0.99829685,0.04494631,-0.01029386,0.03573875
1761618579211,-0.06201140,0.24426737,0.02024271,0.01973066,0.02007220,0.01309127,0.99829173,0.04503411,-0.01020454,0.03579700
1761618579224,0.09424087,-0.25042329,-0.21889467,0.03660153,0.02515818,0.00974296,0.99828114,0.04525555,-0.01005234,0.03585595
1761618579234,0.09993858,-0.01967569,-0.14204195,0.08741948,0.03036664,0.00652506,0.99826098,0.04570576,-0.00989595,0.03588955
1761618579245,-0.00797851,0.02389475,0.02384575,0.05057132,0.04086156,-0.00437302,0.99825101,0.04599149,-0.00966508,0.03586485
1761618579258,-0.16061455,0.10667057,0.14369789,0.03606050,0.02094560,-0.00743358,0.99824305,0.04623129,-0.00952579,0.03581541
1761618579267,0.04121167,0.06169655,-0.00510949,0.06545543,0.05754568,-0.02126493,0.99823567,0.04650948,-0.00928122,0.03572504
1761618579278,0.01011262,-0.06458255,0.02269051,0.01758752,0.00697491,-0.00555322,0.99823255,0.04660797,-0.00924216,0.03569394
1761618579289,0.13304608,-0.00611774,0.04026277,0.02156437,0.03421408,-0.02616930,0.99823389,0.04672873,-0.00905056,0.03554739
1761618579301,-0.06889886,-0.06361266,-0.12217669,0.02818698,-0.00048745,-0.01744031,0.99822994,0.04688657,-0.00905329,0.03544972
1761618579312,0.13139394,0.04605213,0.01956919,-0.00113424,0.02377995,-0.02317540,0.99823598,0.04688028,-0.00892131,0.03532110
1761618579323,0.15962961,-0.21871965,-0.18244273,0.01373963,-0.00433131,-0.01487924,0.99823509,0.04695722,-0.00894557,0.03523778
1761618579334,0.02922262,0.02981658,-0.00820401,0.02495736,0.00576025,-0.01836109,0.99823242,0.04709698,-0.00891331,0.03513495
1761618579345,0.01924417,0.02761894,-0.01543542,0.01700685,0.00538911,-0.02024063,0.99823217,0.04719222,-0.00888313,0.03502161
1761618579357,-0.10617846,0.01696913,-0.02792298,0.01444804,0.00052816,-0.00741970,0.99822981,0.04727385,-0.00888015,0.03497969
1761618579368,-0.04848191,0.00242069,0.00927942,0.00459058,-0.00020147,-0.01158230,0.99823091,0.04730094,-0.00888134,0.03491135
1761618579379,0.08176977,-0.00200466,-0.07574716,0.01403337,0.00341441,-0.01241040,0.99822986,0.04737391,-0.00886358,0.03484682
1761618579390,-0.03466602,0.05404854,0.03219903,0.00919785,-0.00160484,-0.00626639,0.99822854,0.04742588,-0.00887265,0.03481141
1761618579401,0.01152800,-0.01692458,-0.05270785,0.01553420,-0.00785246,-0.00096562,0.99822420,0.04751287,-0.00891662,0.03480600
1761618579412,0.07559217,0.01126933,-0.05041636,0.01612627,-0.00411891,0.00114640,0.99821956,0.04760156,-0.00893928,0.03481231
1761618579424,-0.07025371,0.02252107,0.01385107,0.00631272,-0.00888288,-0.00832508,0.99821901,0.04763944,-0.00899258,0.03476236
1761618579434,0.06089608,-0.05483627,-0.14873532,-0.00544060,-0.02008003,0.00040816,0.99821933,0.04761224,-0.00909298,0.03476440
1761618579446,-0.20970155,-0.14393058,0.03261168,-0.01270990,-0.00586821,0.00389889,0.99822168,0.04754043,-0.00912613,0.03478643
1761618579473,-0.03377281,-0.08209585,-0.05599874,-0.00007789,-0.00505953,-0.00229003,0.99822219,0.04753937,-0.00919494,0.03475528
1761618579485,0.13636014,-0.02968856,-0.01352361,-0.00703594,-0.00218830,-0.01299323,0.99822682,0.04749680,-0.00920818,0.03467667
1761618579496,0.06584956,0.06606947,-0.08939132,-0.01800740,0.01368517,0.01214025,0.99822996,0.04739596,-0.00913154,0.03474466
1761618579507,-0.04912120,0.08553093,-0.20740999,-0.00050167,0.02467498,0.00312533,0.99823071,0.04739325,-0.00899830,0.03476154
1761618579518,0.01861941,0.25102989,-0.07031418,0.01213633,0.04292614,0.00552814,0.99822854,0.04746121,-0.00875791,0.03479249
1761618579530,-0.20629262,0.07040092,-0.11811375,0.06043651,0.03182873,0.00779042,0.99821184,0.04781174,-0.00857331,0.03483768
1761618579541,0.08017569,-0.16101582,0.03315276,0.03457023,0.03054478,-0.04487549,0.99821277,0.04801225,-0.00839615,0.03457740
1761618579553,-0.02157973,-0.14971380,0.02589194,-0.03069742,-0.00676047,-0.08143269,0.99823681,0.04783728,-0.00843468,0.03411323
1761618579564,0.17861462,-0.03384298,0.22079196,-0.04990038,0.00354226,-0.04957509,0.99826101,0.04754286,-0.00841378,0.03382074
1761618579576,0.14449190,0.06963546,-0.01222819,-0.03125064,0.00227731,-0.00132908,0.99826961,0.04736942,-0.00840114,0.03381337
1761618579587,0.04133943,0.06543344,0.01114580,-0.00780503,0.00115684,0.00675308,0.99827047,0.04732493,-0.00839455,0.03385186
1761618579598,-0.12635488,0.09126904,-0.02079638,0.00008133,-0.00907200,-0.01124279,0.99827218,0.04732540,-0.00844626,0.03378777
1761618579610,0.06009874,-0.07844368,-0.00931017,0.01702594,0.00143743,0.00234506,0.99826711,0.04742415,-0.00843792,0.03380138
1761618579621,-0.04273602,-0.25142261,-0.09215404,0.02494216,-0.01708133,0.00707146,0.99825839,0.04756258,-0.00853272,0.03384062
1761618579633,-0.04038914,-0.24401238,0.07150169,0.00569179,-0.03671258,0.00816421,0.99825336,0.04759559,-0.00874566,0.03388797
1761618579647,-0.02342679,-0.02632106,0.18879406,-0.00416850,-0.03046981,0.00143387,0.99825250,0.04756558,-0.00896504,0.03389830
1761618579655,0.55819001,0.04097428,-0.36882562,-0.02777703,-0.02222280,-0.00655364,0.99825781,0.04745586,-0.00905282,0.03387241
1761618579722,-0.10556937,0.07078157,0.13551615,0.00122523,-0.00383172,0.00003395,0.99825462,0.04749715,-0.00918195,0.03387356
1761618579734,1.45477087,0.69362746,-3.45109565,0.04536921,-0.01823423,-0.05201696,0.99825125,0.04776256,-0.00928862,0.03356926
1761618579770,-0.43852848,-0.11173022,1.03943767,0.00184976,0.00801203,-0.00725694,0.99825542,0.04779622,-0.00914280,0.03343718
1761618579794,-0.04759059,0.01003954,-0.08149723,0.02841626,0.01849483,0.00607277,0.99823888,0.04813153,-0.00892456,0.03350884
1761618579815,0.01558367,-0.02739339,0.05612285,0.04383075,0.00980550,-0.00357113,0.99821866,0.04859395,-0.00882111,0.03347116
1761618579830,-0.09747336,-0.19685669,0.10173017,0.02374858,0.00379924,0.00759198,0.99820818,0.04877444,-0.00879224,0.03352886
1761618579845,-0.06438088,0.02603288,0.08460620,0.02876620,0.00844938,0.00505173,0.99819705,0.04898731,-0.00872971,0.03356625
1761618579857,0.16206602,0.22884200,-0.18472419,0.06591161,0.01554270,0.00789853,0.99817661,0.04938607,-0.00863568,0.03361403
1761618579868,0.03443557,0.27568838,0.02693239,0.06161244,0.02610001,0.00348152,0.99816126,0.04970646,-0.00849996,0.03363214
1761618579880,-0.08679615,-0.04968574,0.02959739,0.04623188,0.00789637,-0.01913315,0.99815159,0.04998616,-0.00845219,0.03351638
1761618579895,-0.02717057,-0.12344492,0.02470986,0.05070087,-0.00310173,0.00189109,0.99813193,0.05036388,-0.00847529,0.03353047
1761618579904,0.09673548,0.36785732,0.00473885,0.04853884,0.03426061,-0.00135132,0.99812207,0.05058959,-0.00831598,0.03352418
1761618579919,-0.06151484,-0.24107917,0.04774883,0.02163069,0.00030948,0.00599999,0.99811228,0.05075290,-0.00831364,0.03356948
1761618579927,-0.07878411,0.25191512,-0.28471504,0.03290638,0.01654571,-0.00645403,0.99810693,0.05088617,-0.00824663,0.03354335
1761618579938,0.12082128,-0.24144590,0.09294181,0.01770820,0.01688784,0.01055316,0.99810060,0.05098622,-0.00815122,0.03360297
1761618579950,0.12400486,-0.02740212,-0.09665081,0.01759620,-0.00306798,0.00483508,0.99809440,0.05108652,-0.00816871,0.03363053
1761618579962,-0.01460278,-0.04105957,-0.05405897,0.01685923,-0.00562460,0.00469397,0.99808788,0.05118936,-0.00820302,0.03365916
1761618579973,-0.02679651,0.05368701,-0.01611003,0.03575687,0.00253527,0.00835531,0.99807592,0.05139318,-0.00818856,0.03370679
1761618579985,-0.07636140,-0.01469806,-0.04962590,0.05043438,0.00910095,0.01860781,0.99805712,0.05169326,-0.00813441,0.03381751
1761618579997,-0.02536540,0.16431610,0.05497934,0.01710091,0.01513269,0.01096289,0.99805076,0.05178903,-0.00804967,0.03387890
1761618580008,-0.02432053,-0.21426141,-0.08808137,0.04965897,0.01365586,0.01497060,0.99803301,0.05208450,-0.00796842,0.03396797
1761618580020,-0.01949791,0.10021345,0.08180643,-0.00322407,0.01430764,0.00953321,0.99803276,0.05206612,-0.00788687,0.03402231
1761618580031,0.02650104,-0.18682193,-0.09897581,0.03170521,0.00878904,0.01486026,0.99802124,0.05224050,-0.00783853,0.03410404
1761618580042,-0.03405833,-0.04269071,0.07081060,-0.00214455,-0.00000193,-0.02563459,0.99802691,0.05222817,-0.00783854,0.03395664
1761618580053,0.13097993,-0.01643909,0.01309491,0.00997574,0.01801639,-0.00015554,0.99802492,0.05228104,-0.00774305,0.03395582
1761618580058,-0.07326599,-0.13739204,-0.85042064,-0.02322968,-0.01681512,0.01253445,0.99802650,0.05222529,-0.00778341,0.03398590
1761618580066,0.11620307,-0.11690442,0.25276075,-0.01335133,-0.01023124,0.02883360,0.99802491,0.05216721,-0.00782791,0.03411133
1761618580076,0.07565159,0.13898555,-0.15770447,-0.01849916,0.00372076,0.01401318,0.99802746,0.05207564,-0.00780949,0.03418069
1761618580088,-0.01688274,-0.04279421,0.14135561,-0.00000289,-0.00103706,0.01794510,0.99802397,0.05207562,-0.00781530,0.03428119
1761618580102,-0.04608989,0.09497042,0.03897050,0.02720997,-0.00786875,0.01797931,0.99800852,0.05227561,-0.00787314,0.03441334
1761618580110,0.30980356,-0.00511091,-0.73608835,0.11436300,-0.00343210,0.01510011,0.99798291,0.05272163,-0.00788652,0.03447223
1761618580121,-0.18214455,0.05189244,0.28233835,0.00393175,-0.01266326,-0.07104463,0.99799496,0.05274384,-0.00795807,0.03407082
1761618580132,0.03805922,-0.04457578,0.00790658,-0.00627100,-0.00966929,-0.00548476,0.99799734,0.05270998,-0.00801028,0.03404121
1761618580144,-0.03032964,-0.00116134,0.05393599,-0.02467755,-0.00714114,0.00636245,0.99800340,0.05256438,-0.00805242,0.03407874
1761618580157,-0.01262406,-0.15746618,0.01530607,-0.01100480,0.00671327,0.00876725,0.99800548,0.05249560,-0.00801046,0.03413354
1761618580165,0.23930652,-0.23189375,-0.27925502,-0.02202058,0.00766314,0.01083548,0.99800926,0.05239761,-0.00797636,0.03418176
1761618580182,-0.06959072,0.05711929,0.30185235,-0.02095715,-0.00118676,0.00752357,0.99801628,0.05222052,-0.00798639,0.03424533
1761618580189,0.92156715,-0.84731171,-1.04539009,-0.02936948,0.00686439,0.03812180,0.99801723,0.05212067,-0.00796305,0.03437495
1761618580198,-0.54707925,0.28468132,0.42711889,-0.03093489,-0.01328919,0.01401954,0.99802199,0.05197682,-0.00802484,0.03444014
1761618580209,-0.25429636,0.15377279,0.12415732,-0.01885061,-0.01189352,-0.00166282,0.99802722,0.05187220,-0.00809085,0.03443091
1761618580221,0.02104376,0.16472187,0.00158735,-0.00670993,0.01042741,0.01704524,0.99802635,0.05183496,-0.00803298,0.03452551
1761618580232,-0.22050205,-0.04743780,0.04696946,0.00558512,0.00806195,0.01829041,0.99802154,0.05186624,-0.00798783,0.03462794
1761618580243,0.04350717,-0.27942206,0.09869188,0.01490648,0.03128568,0.02155649,0.99801452,0.05194822,-0.00781576,0.03474650
1761618580254,-0.05128322,-0.12256762,0.05083181,-0.01736911,0.03482148,0.03392080,0.99801445,0.05185096,-0.00762076,0.03493645
1761618580265,0.02769553,0.10871801,-0.07974666,-0.03893956,0.01926822,0.01366843,0.99802381,0.05163484,-0.00751382,0.03501231
1761618580276,0.04595764,0.18352822,-0.06087876,-0.02523878,0.01932118,0.00326543,0.99803121,0.05149477,-0.00740659,0.03503044
1761618580287,0.03819296,0.06875599,0.00708105,0.00210868,0.01623097,0.01358194,0.99802860,0.05150657,-0.00731570,0.03510649
1761618580299,-0.00975304,0.09522551,-0.07204490,0.00070440,0.01268733,-0.01651346,0.99803213,0.05151048,-0.00724528,0.03501484
1761618580310,-0.00759631,0.21180094,0.04283849,-0.00046742,0.00500845,-0.00176840,0.99803285,0.05150775,-0.00721598,0.03500450
1761618580325,0.06390288,0.06963696,0.09272461,0.01879660,0.01213176,-0.00376529,0.99802713,0.05165060,-0.00712378,0.03497588
1761618580332,0.59739210,0.63583010,-1.87727120,0.06792812,0.00418043,0.01334806,0.99801465,0.05186458,-0.00711061,0.03501793
1761618580343,-0.16949964,-0.27432855,0.78290938,0.00887485,-0.00044575,0.00770623,0.99801046,0.05191516,-0.00711315,0.03506186
1761618580354,0.16156748,-0.35782847,-0.03966053,0.00488573,0.01018819,0.01988881,0.99800566,0.05194179,-0.00705763,0.03517025
1761618580365,-0.21809836,-0.11674227,0.12622881,-0.02124056,-0.01297792,0.03082716,0.99800523,0.05182284,-0.00713030,0.03534288
1761618580376,0.08627104,-0.02681153,0.04088391,-0.00884247,-0.00170541,0.02169970,0.99800345,0.05177421,-0.00713968,0.03546223
1761618580387,-0.08957343,0.22341902,-0.03469623,-0.01508508,-0.01493951,0.01449822,0.99800433,0.05169049,-0.00722260,0.03554269
1761618580399,0.04715438,0.12724597,-0.11752666,0.01625739,-0.00133243,0.01358001,0.99799678,0.05178234,-0.00723013,0.03561942
1761618580410,-0.13459789,0.12074905,-0.11534443,0.04992089,-0.00021421,-0.00113794,0.99798258,0.05205940,-0.00723131,0.03561311
1761618580421,-0.01523859,0.01771788,-0.08595893,0.03287000,0.02482518,0.00300587,0.99797344,0.05224183,-0.00709353,0.03562979
1761618580432,-0.27719715,-0.20414869,-0.20469293,0.01931353,0.02910966,-0.00049755,0.99796906,0.05234902,-0.00693198,0.03562703
1761618580443,-0.05576459,-0.10982942,0.13270697,-0.01570410,0.01596233,-0.00237417,0.99797491,0.05225872,-0.00684019,0.03561338
1761618580454,0.03985685,-0.12032985,-0.01139130,-0.04145547,0.03251643,-0.01332844,0.99799036,0.05203486,-0.00666460,0.03554140
1761618580465,0.13341716,-0.24639027,0.08075596,-0.03669936,0.04759894,0.00350032,0.99800189,0.05183302,-0.00640281,0.03556065
1761618580476,-0.09725649,0.12001267,0.03686919,-0.02871684,0.05849048,-0.01064800,0.99801429,0.05167364,-0.00607819,0.03550156
1761618580487,-0.15988422,-0.07443929,-0.03957800,-0.00582540,0.07005215,0.00785187,0.99801671,0.05164131,-0.00568940,0.03554514
1761618580498,-0.35972031,-0.02185027,-0.12372632,-0.03987866,0.06734375,-0.00587225,0.99803123,0.05142197,-0.00531901,0.03551284
1761618580510,0.05239769,-0.00628621,0.04462092,-0.02225879,0.09151777,0.01102940,0.99803804,0.05129733,-0.00480651,0.03557460
1761618580521,0.21421159,0.13566293,-0.02878545,-0.04227442,0.08636284,0.02739529,0.99804699,0.05105848,-0.00431856,0.03572939
1761618580532,-0.06626565,-0.03930668,0.03284416,-0.06659282,0.07635549,0.00978478,0.99806546,0.05069221,-0.00389860,0.03578320
1761618580543,-0.14925791,-0.12395057,0.02347549,-0.10564595,0.07080632,0.03078999,0.99809016,0.05011116,-0.00350917,0.03595255
1761618580554,-0.44872815,-0.09965929,-0.04153613,-0.10223814,0.05288051,0.03237662,0.99811319,0.04953863,-0.00321304,0.03613386
1761618580565,-0.01705270,0.03002149,-0.03126100,-0.03364925,0.10318045,0.03827221,0.99811641,0.04935188,-0.00264039,0.03634627
1761618580576,-0.25083198,-0.01046141,-0.13840205,-0.01634836,0.08105229,0.06459735,0.99810886,0.04926114,-0.00219055,0.03670478
1761618580587,-0.05321411,-0.07951882,0.01475482,-0.03903564,0.12229153,0.05510194,0.99810950,0.04904449,-0.00151183,0.03701060
1761618580599,-0.07540580,-0.02194289,0.08789287,-0.07061016,0.10749276,0.04292345,0.99812073,0.04864555,-0.00090449,0.03725312
1761618580611,-0.54052740,-0.59364595,-0.24654540,-0.06253605,0.10410741,0.03741835,0.99813100,0.04826720,-0.00027464,0.03747950
1761618580621,-0.02847723,-0.24321220,-0.16285107,-0.08741623,0.13784170,0.06681660,0.99813939,0.04783012,0.00041457,0.03781358
1761618580632,0.06129782,0.44036795,0.01502286,-0.12961936,0.12315543,0.03098216,0.99816656,0.04711073,0.00109808,0.03798553
1761618580644,0.27074887,-0.19618613,0.12605225,-0.14335513,0.14900141,0.05594425,0.99819194,0.04627211,0.00196974,0.03831280
1761618580654,-0.30834721,-0.44538695,-0.19254243,-0.16515625,0.15239704,0.07386400,0.99821489,0.04540504,0.00276982,0.03870059
1761618580665,0.29510336,-0.14047835,0.25955529,-0.17665783,0.18165726,0.03452854,0.99824825,0.04442459,0.00377802,0.03889222
1761618580676,-0.34160749,-0.04886753,-0.28284192,-0.22277124,0.14088454,0.05721107,0.99828750,0.04316593,0.00457402,0.03921547
1761618580687,0.54683174,-1.04888154,-0.26429431,-0.24886948,0.16877648,0.07606781,0.99832486,0.04178470,0.00551073,0.03963764
1761618580699,-0.35895338,-0.41585620,0.10863540,-0.31517083,0.13648594,0.03587370,0.99838415,0.04003550,0.00626822,0.03983674
1761618580710,0.02690361,0.20589934,0.13214624,-0.41658875,0.12046870,-0.01110370,0.99847375,0.03768178,0.00694887,0.03977401
1761618580721,-0.01491500,-0.09015207,0.06149691,-0.42364297,0.09184581,-0.01208039,0.99855722,0.03537292,0.00744943,0.03970817
1761618580732,-0.08899797,-0.02916567,-0.43114297,-0.35194342,0.09257814,-0.01906098,0.99862415,0.03343724,0.00795861,0.03960333
1761618580744,0.31322542,0.25810335,0.51765660,-0.36994583,0.07642124,0.00840432,0.99869024,0.03121756,0.00841714,0.03965376
1761618580754,-0.16128229,-0.93278293,0.14115186,-0.44239537,0.09401704,-0.04051458,0.99876360,0.02891710,0.00890603,0.03944308
1761618580765,0.72209530,-0.43369318,0.21914529,-0.44372434,0.05671103,0.02249973,0.99882355,0.02647662,0.00921794,0.03956683
1761618580776,-0.13978910,0.20875276,-0.00211610,-0.49820453,0.00267762,-0.00679371,0.99889497,0.02368668,0.00923293,0.03952879
1761618580787,0.03745358,-0.11988817,0.10532852,-0.55007551,-0.02300936,-0.00887258,0.99896463,0.02068876,0.00910753,0.03948043
1761618580799,-0.27308231,0.06143900,0.00097471,-0.56024167,-0.04041868,-0.01855636,0.99903081,0.01755141,0.00888119,0.03937652
1761618580810,0.86389355,-0.89673232,0.07301378,-0.58875252,-0.02734155,0.03226269,0.99907714,0.01428383,0.00872944,0.03955557
1761618580821,-0.68549453,0.16804775,-0.30495315,-0.57837488,-0.03265314,0.02095570,0.99911483,0.01107385,0.00854822,0.03967188
1761618580832,-0.50324424,0.40785709,-0.78282602,-0.51083696,-0.02708687,0.01489576,0.99914041,0.00821317,0.00839653,0.03975529
1761618580843,-0.15727948,0.16797068,-0.22227308,-0.42092435,-0.01263799,0.07955787,0.99913977,0.00585599,0.00832576,0.04020082
1761618580854,-0.20277103,0.47292934,-0.10014796,-0.42799413,0.00087582,0.07975121,0.99913301,0.00350202,0.00833057,0.04063945
1761618580865,0.75589527,-0.34420451,0.83341825,-0.43936206,0.05766604,0.11283652,0.99911043,0.00108553,0.00864774,0.04126005
1761618580877,0.26029786,-0.45322423,-0.03277154,-0.44424548,0.07576855,0.08490437,0.99908579,-0.00146888,0.00908341,0.04174825
1761618580888,-0.78497268,-0.93791965,-0.31335503,-0.53636485,0.04674137,0.05689558,0.99906212,-0.00436525,0.00933581,0.04205549
1761618580899,0.51769588,0.08202083,0.44735862,-0.54288122,0.08590255,0.05492392,0.99902625,-0.00743253,0.00982116,0.04236581
1761618580910,-0.30924957,0.34268353,-0.50506873,-0.49686863,0.07063746,0.04350817,0.99898696,-0.01023984,0.01022026,0.04261163
1761618580922,-0.36939499,1.64361142,-0.27368938,-0.49927273,0.06130157,0.03493932,0.99894071,-0.01313562,0.01057581,0.04281428
1761618580932,0.00363002,-0.51221569,-0.59637259,-0.34685444,0.10638051,0.02351572,0.99890485,-0.01490458,0.01111835,0.04293421
1761618580943,0.00702796,1.23209830,0.42836151,-0.27658035,0.07146984,0.02586002,0.99886911,-0.01648108,0.01152573,0.04308161
1761618580954,0.19258337,-0.77320323,0.41468139,-0.24954562,0.06135690,0.04049870,0.99883125,-0.01787854,0.01186933,0.04330840
1761618580965,0.59828074,-0.67087992,0.85229788,-0.32421890,0.08419976,0.05185153,0.99877972,-0.01966174,0.01233243,0.04359358
1761618580977,-0.29822193,0.03619674,0.13757337,-0.38068470,0.03436329,0.03471158,0.99872458,-0.02179358,0.01252486,0.04378797
1761618580988,-0.08044747,0.47147294,0.06996109,-0.40599531,0.01473655,0.05588216,0.99865819,-0.02404685,0.01260665,0.04409811
1761618580999,0.26512107,1.21776803,-0.32623278,-0.29969014,0.04538826,-0.00272895,0.99861462,-0.02569515,0.01285628,0.04408311
1761618581010,0.11204381,1.16513163,-0.26816534,-0.15186207,0.02242356,0.02126332,0.99858549,-0.02654558,0.01298185,0.04420218
1761618581022,0.11989967,0.45289060,0.15557226,-0.03421103,0.02958459,0.02307756,0.99857201,-0.02674400,0.01315345,0.04433603
1761618581032,-0.02436804,0.37355262,-1.35379362,0.02029075,0.03690824,0.04993796,0.99856061,-0.02663747,0.01334721,0.04459820
1761618581055,0.09469264,-0.04715397,0.48061984,-0.01522783,0.03217996,0.03845549,0.99853080,-0.02681412,0.01372050,0.04504429
1761618581067,0.31798695,-0.24884750,1.23292921,-0.07618975,0.02008812,0.00176046,0.99851689,-0.02725221,0.01383601,0.04505441
1761618581078,0.15521719,-0.19062308,0.13795182,-0.06066534,-0.01332136,0.00608839,0.99850688,-0.02759800,0.01376008,0.04508911
1761618581089,-0.92686325,-0.43343368,-1.14542740,-0.09454914,-0.03493141,-0.00018815,0.99849559,-0.02809438,0.01357669,0.04508813
1761618581100,1.00820012,0.95819613,1.17357896,-0.06891599,-0.03891747,-0.01606217,0.99849169,-0.02847687,0.01336069,0.04499898
1761618581111,-0.03487824,0.20839598,-0.03105544,-0.01271394,-0.06183463,-0.02562869,0.99850093,-0.02854997,0.01300515,0.04485162
1761618581122,0.01668416,0.32168143,0.00813326,0.01139352,-0.05342046,-0.02489575,0.99851264,-0.02848731,0.01271133,0.04471469
1761618581133,0.07223285,0.15741077,-0.08668296,0.03374071,-0.07841437,-0.00002420,0.99852322,-0.02830342,0.01228397,0.04471456
1761618581144,0.16612212,0.02930826,-0.06762567,0.02552028,-0.07932789,-0.00903336,0.99853479,-0.02816178,0.01184370,0.04466442
1761618581156,0.17771100,-0.10993315,0.05540682,0.00440375,-0.08167630,0.01407120,0.99853730,-0.02813690,0.01138223,0.04474393
1761618581167,0.10133621,-0.04247624,0.08942687,0.02048048,-0.07650870,-0.00272363,0.99854600,-0.02802221,0.01095378,0.04472867
1761618581178,0.00410794,0.06655933,0.00447134,0.02695800,-0.11080440,-0.00839222,0.99855872,-0.02787394,0.01034436,0.04468252
1761618581189,0.06736643,0.06226656,0.06674633,0.05568911,-0.10701385,0.00145313,0.99857291,-0.02756487,0.00975043,0.04469058
1761618581200,0.10619513,0.06726743,0.11974235,0.02968624,-0.11853137,-0.00574163,0.99858529,-0.02739714,0.00908073,0.04465814
1761618581211,0.00475795,0.04863183,-0.41099818,0.00573406,-0.13013518,-0.00524606,0.99859385,-0.02736503,0.00835197,0.04462876
1761618581222,-0.02457429,-0.03344859,-0.57692427,-0.00689644,-0.14576928,0.00950817,0.99859680,-0.02740227,0.00756482,0.04468011
1761618581233,0.03557575,-0.27363320,0.10378496,0.01265504,-0.13730340,-0.00225077,0.99860484,-0.02733140,0.00679592,0.04466750
1761618581245,0.03381232,-0.07015779,0.54449574,-0.00512755,-0.13976457,-0.00918624,0.99861154,-0.02736089,0.00599227,0.04461468
1761618581256,0.23811874,0.09589644,0.62840614,0.02227721,-0.12248612,0.02650434,0.99861218,-0.02723836,0.00531860,0.04476046
1761618581267,-0.09287472,0.12074420,-0.07482349,0.05764152,-0.12687457,0.00574322,0.99862274,-0.02692421,0.00462713,0.04479176
1761618581278,-0.05655548,0.19402735,0.00119309,0.02920795,-0.12096678,0.00586322,0.99862857,-0.02676065,0.00394972,0.04482459
1761618581289,0.02447098,0.06527573,-0.00549409,0.05262129,-0.10481645,0.00066428,0.99863841,-0.02646597,0.00336275,0.04482831
1761618581300,0.04734603,-0.11080939,0.00367651,0.06350442,-0.09998343,0.01449993,0.99864591,-0.02610717,0.00279784,0.04491023
1761618581311,-0.14329190,-0.07888313,0.02252512,0.01424179,-0.13169007,-0.01154539,0.99865252,-0.02602955,0.00208013,0.04484731
1761618581322,-0.18827988,-0.09285064,0.04482756,-0.01908192,-0.12035037,-0.01259946,0.99865406,-0.02613546,0.00141219,0.04477739
1761618581334,-0.03386353,-0.02570000,0.10240693,-0.02542845,-0.12741501,-0.00052722,0.99865124,-0.02627659,0.00070503,0.04477446
1761618581345,0.17146878,-0.11920105,0.06768712,0.02358968,-0.12183856,0.01729162,0.99865059,-0.02614212,0.00001055,0.04487302
1761618581356,0.28217320,0.12668475,0.29517179,0.01420965,-0.14592818,0.01293413,0.99864914,-0.02606468,-0.00078475,0.04494351
1761618581367,0.05742153,0.01610126,0.03825444,0.03216049,-0.14038908,0.01691793,0.99864863,-0.02588619,-0.00156391,0.04503741
1761618581378,0.09326496,0.00173638,0.08777074,0.01894839,-0.12040802,0.04551986,0.99863857,-0.02578008,-0.00223820,0.04529232
1761618581389,0.02756163,-0.05653838,0.05411888,0.01854866,-0.13757131,0.04200496,0.99862861,-0.02567713,-0.00300172,0.04552545
1761618581400,-0.05148340,-0.10901224,0.04419702,0.00367352,-0.15100910,0.01972762,0.99862134,-0.02565693,-0.00383227,0.04563395
1761618581412,0.03711196,-0.08538348,-0.43763302,-0.01341458,-0.12262560,0.02204610,0.99861050,-0.02573474,-0.00454350,0.04576181
1761618581422,0.03797499,0.00511615,-0.88778098,-0.01142965,-0.15101063,0.02705903,0.99859840,-0.02579531,-0.00534385,0.04590523
1761618581434,-0.00551370,-0.00544422,0.03966728,0.00860966,-0.12055183,0.03464727,0.99858686,-0.02574710,-0.00601894,0.04609925
1761618581445,-0.04983597,-0.01302820,0.39539543,0.04542260,-0.12177905,0.02859420,0.99858154,-0.02548819,-0.00671309,0.04626224
1761618581456,-0.07104498,0.07121716,0.89136692,0.02450545,-0.14150005,0.03958208,0.99856944,-0.02535463,-0.00748426,0.04647796
1761618581467,0.10846394,0.08970802,0.10868354,-0.00623327,-0.11903302,0.03623322,0.99855387,-0.02538954,-0.00815085,0.04668087
1761618581478,-0.01849246,-0.00811259,0.01467112,-0.00181808,-0.12954393,0.03173602,0.99853897,-0.02539981,-0.00888277,0.04686018
1761618581489,0.06404404,-0.08380456,0.09605066,-0.00551934,-0.13928863,0.02734234,0.99852429,-0.02542962,-0.00963493,0.04700782
1761618581500,0.00655551,0.01736551,0.08375711,-0.02574182,-0.13611868,0.00043722,0.99851285,-0.02557377,-0.01039719,0.04701027
1761618581512,-0.01584078,-0.01784779,0.03230065,-0.00267303,-0.14652386,0.01035735,0.99850052,-0.02558914,-0.01123970,0.04706983
1761618581523,-0.34141312,-0.07574883,-0.43735731,0.01634994,-0.17161832,0.00561457,0.99849039,-0.02550003,-0.01217502,0.04710043
1761618581534,-0.09088477,0.27102680,-0.07594067,0.03067064,-0.17742137,0.01663447,0.99847799,-0.02533135,-0.01315084,0.04719192
1761618581545,0.06098953,0.23473778,-0.00767283,0.05266558,-0.17812527,0.03617004,0.99846220,-0.02503642,-0.01414834,0.04739447
1761618581556,0.45397370,0.25637099,0.50022628,0.08144568,-0.20202084,0.06096029,0.99844120,-0.02459254,-0.01524936,0.04772670
1761618581567,0.25661718,-0.08263167,0.26687250,0.06229626,-0.20805142,0.05949790,0.99841551,-0.02424680,-0.01640404,0.04805692
1761618581579,-0.08076404,-0.22888137,0.18475674,0.01233443,-0.22090313,0.05356807,0.99838068,-0.02417587,-0.01767424,0.04836493
1761618581589,0.16502634,-0.21301609,0.16382907,0.00399465,-0.23399544,0.06978856,0.99833971,-0.02415430,-0.01893781,0.04874179
1761618581601,-0.05283096,0.10501786,-0.29125743,0.00653765,-0.23367002,0.05264264,0.99829868,-0.02411606,-0.02030478,0.04904975
1761618581612,0.31311802,0.34784149,0.26258659,0.01426794,-0.26373244,0.04796556,0.99825818,-0.02403972,-0.02171575,0.04930637
1761618581623,0.53474247,0.20164806,-1.31522912,0.05587515,-0.28933370,0.06294512,0.99821335,-0.02373800,-0.02327815,0.04964627
1761618581634,0.03562854,0.05805367,-0.14699634,0.09911182,-0.32114186,0.03457245,0.99817318,-0.02318297,-0.02507655,0.04983988
1761618581647,0.08829894,-0.19681465,0.18064026,0.07866562,-0.30239813,0.03867202,0.99812186,-0.02267951,-0.02701189,0.05008738
1761618581656,0.73803793,0.36242797,1.92118772,0.05165962,-0.47336623,0.04269757,0.99805605,-0.02244188,-0.02918938,0.05028379
1761618581667,-0.00364138,-0.29075703,-0.12195586,0.00208607,-0.40192461,0.06371266,0.99797070,-0.02243030,-0.03142006,0.05063739
1761618581679,-0.30277577,0.07704286,0.08882384,-0.05074419,-0.43846142,0.06769657,0.99785975,-0.02272715,-0.03398506,0.05103342
1761618581689,0.71922724,0.19460804,-0.25193466,-0.00842506,-0.49484752,0.06460060,0.99774730,-0.02277223,-0.03663249,0.05137903
1761618581700,0.69785072,-0.00741316,0.43316102,0.01652260,-0.51064871,0.07855810,0.99762711,-0.02268631,-0.03928787,0.05178753
1761618581711,-0.83702186,0.10172475,-0.39363526,-0.00003990,-0.54480731,0.06738189,0.99747862,-0.02268654,-0.04242051,0.05217498
1761618581722,1.03135525,-0.50151001,-0.01727582,0.02484874,-0.54973224,0.08980245,0.99732258,-0.02254987,-0.04544404,0.05266889
1761618581734,-0.48188718,-0.08981703,-0.72900832,-0.03057933,-0.56032992,0.10153032,0.99713723,-0.02272417,-0.04863792,0.05324761
1761618581745,0.10365228,-0.21980245,-0.02865057,-0.01434130,-0.53205099,0.07486832,0.99695993,-0.02280592,-0.05167061,0.05367436
1761618581756,0.18381188,-0.52163129,-0.07612566,-0.07477081,-0.61657617,0.12634816,0.99673763,-0.02320594,-0.05496929,0.05435032
1761618581767,0.15242011,-0.00784936,0.85533595,-0.12312743,-0.55199262,0.09002721,0.99651442,-0.02390777,-0.05811565,0.05486348
1761618581778,-0.11236640,-0.70343663,-0.36223833,-0.15821118,-0.56744161,0.06440649,0.99627819,-0.02480957,-0.06135006,0.05523060
1761618581789,0.42643932,-0.24591800,0.16465265,-0.20995243,-0.55323927,0.07196472,0.99603696,-0.02595381,-0.06436522,0.05562280
1761618581801,0.15907751,-0.64675663,0.02850361,-0.24664085,-0.56014085,0.11055796,0.99575501,-0.02734733,-0.06753001,0.05624746
1761618581813,-0.16420511,-0.70536250,0.24669348,-0.34706423,-0.55936628,0.10752211,0.99543129,-0.02939501,-0.07083028,0.05688184
1761618581823,0.70600086,-1.05411555,0.44130222,-0.49077881,-0.64104757,0.11045772,0.99507334,-0.03197160,-0.07419578,0.05746174
1761618581834,-0.21503179,-0.15404904,-1.09774380,-0.52271170,-0.60922710,0.09098233,0.99469224,-0.03484652,-0.07754652,0.05796214
1761618581845,-0.58918772,-0.23384095,-0.92448938,-0.48937131,-0.61143153,0.09171067,0.99428211,-0.03763593,-0.08103168,0.05848489
1761618581857,0.37328167,0.13811384,0.19137019,-0.45434967,-0.55106244,0.09308738,0.99388480,-0.04024844,-0.08420029,0.05902015
1761618581868,-0.09852206,-0.49483646,0.49526525,-0.48328383,-0.60382605,0.13149603,0.99345568,-0.04283401,-0.08743076,0.05972365
1761618581879,-0.04627961,-0.00555188,-0.07111828,-0.45399988,-0.52762931,0.12675601,0.99302772,-0.04542181,-0.09043825,0.06044616
1761618581890,-0.33006608,-0.41644421,-0.40019805,-0.49472213,-0.55227144,0.11065652,0.99258506,-0.04811805,-0.09344813,0.06104924
1761618581902,-0.35366491,-0.09766141,-0.02818596,-0.44519555,-0.49418838,0.07479193,0.99215190,-0.05072244,-0.09633913,0.06148677
1761618581907,0.03961379,2.90250582,1.70689991,-0.50830240,-0.42071961,-0.01810707,0.99198956,-0.05196778,-0.09736989,0.06144241
1761618581918,-0.56578193,-1.38345461,-1.14666880,-0.39703549,-0.47687364,0.05730273,0.99157752,-0.05423088,-0.10008807,0.06176903
1761618581930,0.04222135,1.04914074,0.33021921,-0.40965443,-0.41973155,0.02156827,0.99118131,-0.05664784,-0.10256449,0.06189629
1761618581940,0.58192606,-0.09213194,-0.59416312,-0.44379583,-0.45529858,0.08071468,0.99079245,-0.05884463,-0.10481822,0.06229582
1761618581951,-0.96546925,0.56779977,-0.88650983,-0.35952052,-0.40027083,0.09105963,0.99039533,-0.06087592,-0.10707975,0.06281031
1761618581962,-0.26990215,-0.00026329,0.05965543,-0.40718986,-0.41557088,0.13787620,0.98995287,-0.06313583,-0.10938617,0.06357552
1761618581973,-0.29759239,-1.66058659,0.30980125,-0.33447832,-0.36563229,0.10960924,0.98956008,-0.06502563,-0.11145199,0.06419482
1761618581984,0.15177795,-0.56280828,1.22406174,-0.43458142,-0.33203399,0.13168648,0.98914161,-0.06743756,-0.11329478,0.06492568
1761618581996,-0.53802621,-0.00351106,0.14622740,-0.45844302,-0.29941344,0.12970514,0.98871416,-0.07005068,-0.11500143,0.06566500
1761618582007,-0.35623427,0.61010008,-0.15791263,-0.49600276,-0.24301556,0.11539071,0.98830008,-0.07290270,-0.11639877,0.06632849
1761618582018,-0.06076651,-0.09054031,-1.11832090,-0.47297770,-0.19658734,0.15026176,0.98793141,-0.07543313,-0.11745052,0.06713239
1761618582029,-0.33313229,1.27012522,-0.42515094,-0.39866930,-0.13054330,0.18541918,0.98759709,-0.07768561,-0.11818809,0.06818001
1761618582042,-0.06315220,0.99771703,-1.01460081,-0.34522526,-0.05976116,0.14936629,0.98731759,-0.07982601,-0.11855860,0.06910608
1761618582051,0.27132242,-1.19211817,-0.04116977,-0.41394342,-0.04589680,0.20024254,0.98705528,-0.08185433,-0.11878350,0.07008727
1761618582063,-0.62123277,1.14805977,0.06421897,-0.48229659,-0.04100509,0.17257339,0.98671905,-0.08465165,-0.11902133,0.07108820
1761618582074,0.33075657,1.05750167,0.36431780,-0.54308587,0.01997113,0.16926333,0.98640687,-0.08761147,-0.11891249,0.07201068
1761618582085,1.02879024,-0.85952221,-1.44338664,-0.06781112,0.08685933,0.19262932,0.98635422,-0.08797765,-0.11844345,0.07305088
1761618582096,0.64075943,1.45431159,-1.26496675,0.25629651,0.10151308,0.18545096,0.98647183,-0.08654239,-0.11787497,0.07408940
1761618582107,1.24445603,1.79766639,-3.42840153,0.56145764,0.06766258,0.24907915,0.98668209,-0.08339823,-0.11749606,0.07548425
1761618582118,-0.66890184,4.84280504,-0.48720812,0.65713424,0.01280118,0.30070302,0.98686297,-0.07975113,-0.11742502,0.07715315
1761618582130,-0.46337707,-3.27119440,-0.10702319,0.97120495,0.13944450,0.08064037,0.98734874,-0.07426382,-0.11663715,0.07760877
1761618582141,0.13988735,-4.04116873,2.14588827,0.68200445,0.31907705,-0.10662600,0.98790818,-0.07027410,-0.11477055,0.07698501
1761618582152,-1.20012613,5.38142887,4.51012637,-0.09869281,0.38599864,-0.12901973,0.98815706,-0.07079223,-0.11274406,0.07630765
1761618582163,2.30254613,-4.82398149,-2.87612836,0.39217429,0.39777576,-0.08940111,0.98860596,-0.06857645,-0.11049663,0.07580254
1761618582174,0.53922349,5.24105479,2.14066768,0.21878157,0.31344342,-0.07311465,0.98891608,-0.06735127,-0.10874134,0.07539309
1761618582185,0.76097607,-0.11902873,-0.45335156,0.42596684,0.16489171,-0.04821702,0.98919728,-0.06496586,-0.10781795,0.07512308
1761618582197,0.51032676,0.67295183,0.17472693,0.53405882,0.01409555,-0.05427488,0.98942078,-0.06197513,-0.10773902,0.07481914
1761618582208,0.50795093,2.62082963,1.87410849,0.36129546,-0.01312186,-0.03511426,0.98955228,-0.05995187,-0.10781250,0.07462250
1761618582219,0.47445183,1.12400181,1.08649351,0.38845172,-0.07073724,-0.04243288,0.98965633,-0.05777654,-0.10820863,0.07438488
1761618582230,-0.19965227,1.46440910,0.24007254,0.46977145,-0.13299165,-0.06630559,0.98975172,-0.05516931,-0.10894673,0.07401688
1761618582241,-0.22226439,1.22742273,-0.37102221,0.65273195,-0.10419790,-0.07757930,0.98991810,-0.05148138,-0.10953545,0.07357856
1761618582253,0.12395278,-0.20074442,-0.69502820,1.02657520,-0.00581361,-0.02232281,0.99020602,-0.04573256,-0.10956800,0.07345355
1761618582264,-0.64162097,-0.84277636,-0.14061908,1.23378299,0.07506475,0.04760913,0.99052492,-0.03888506,-0.10915139,0.07371778
1761618582275,-1.01506712,-0.60746688,0.92755764,1.13394614,0.11061141,-0.05990593,0.99084677,-0.03253496,-0.10853197,0.07338231
1761618582286,-0.02328306,-1.26316564,0.87427313,0.96136456,0.13060392,-0.18197816,0.99116366,-0.02715132,-0.10780059,0.07236323
1761618582297,-0.08333710,-0.05283455,-0.09425879,0.84888737,0.08017671,-0.17910015,0.99140186,-0.02244000,-0.10735561,0.07136922
1761618582310,-0.66843661,-0.62373756,0.34336414,0.76843291,0.08599093,-0.10736354,0.99160352,-0.01767571,-0.10682246,0.07070357
1761618582319,0.12792844,2.60657958,-0.23150650,0.98041063,0.10029476,-0.14817182,0.99178182,-0.01287170,-0.10633102,0.06997753
1761618582331,-1.18299487,-1.75374277,-0.83285025,0.96170563,0.13075268,-0.14061305,0.99196745,-0.00758232,-0.10561188,0.06920415
1761618582342,-0.86829640,-0.63306198,0.38130710,1.01193063,0.17513921,-0.11614409,0.99214508,-0.00186491,-0.10462234,0.06854794
1761618582353,-1.22921082,-0.35610536,0.97456360,1.03190165,0.19778463,-0.09993555,0.99229379,0.00391374,-0.10351475,0.06798830
1761618582364,-1.26118097,-1.13975064,1.18706887,1.04638713,0.24003459,-0.13994856,0.99244487,0.00972119,-0.10218256,0.06721159
1761618582378,-0.70280361,-1.33101324,0.05335023,0.77373906,0.17042294,-0.12879274,0.99256261,0.01529211,-0.10095551,0.06628428
1761618582386,-4.62114811,5.99651977,4.74475600,1.33278112,0.29615637,-0.25648724,0.99264912,0.02029004,-0.09984493,0.06532245
1761618582397,0.57933722,-2.60260312,-1.59375786,0.91837416,0.21276124,-0.20244516,0.99272322,0.02538701,-0.09866410,0.06419888
1761618582408,-1.28658515,0.55132040,0.23074511,0.87626453,0.21216309,-0.22032774,0.99278200,0.03029410,-0.09747599,0.06296505
1761618582420,-0.97935996,-0.41188520,0.24068230,0.73511443,0.19324544,-0.18744968,0.99282052,0.03455776,-0.09635516,0.06187784
1761618582431,-1.78808119,-0.92687984,0.81367267,0.67521681,0.21804500,-0.20715508,0.99286957,0.03820393,-0.09517772,0.06075920
1761618582442,-0.37305699,-0.79814890,0.73651280,0.49767614,0.21880371,-0.24914749,0.99295952,0.04099092,-0.09395242,0.05936397
1761618582453,-0.54453861,-0.54103427,0.55784322,0.36629013,0.21204301,-0.24752012,0.99306626,0.04304214,-0.09276498,0.05797786
1761618582464,-0.51780547,-0.82364840,-0.16184781,0.30818905,0.16674911,-0.15957468,0.99312905,0.04478341,-0.09182285,0.05707627
1761618582475,-0.82436496,0.31450536,0.32811258,0.26448269,0.19959002,-0.13794069,0.99320727,0.04625129,-0.09071512,0.05631069
1761618582487,-0.37028232,0.08585060,-0.40237655,0.26634598,0.23842480,-0.11144301,0.99329442,0.04776946,-0.08935610,0.05567547
1761618582498,-0.78582478,-0.16182406,-0.12215495,0.27221533,0.27124966,-0.07328748,0.99337761,0.04928026,-0.08785067,0.05526872
1761618582509,-0.15248074,-0.52766224,-0.32531611,0.24387605,0.26014938,-0.07485311,0.99345992,0.05064596,-0.08639383,0.05484955
1761618582520,-0.59719673,-0.19574101,-0.11884352,0.29464191,0.23745164,-0.13346716,0.99352835,0.05225176,-0.08509972,0.05412215
1761618582531,0.47171238,-0.42826006,-1.14855782,0.29201723,0.22538214,-0.14393539,0.99359243,0.05390166,-0.08382631,0.05330892
1761618582543,-0.10597185,-0.24754753,-0.13780644,0.19764241,0.22111060,-0.08608223,0.99366241,0.05502822,-0.08256598,0.05281825
1761618582553,-1.30687965,-0.58734233,0.12750187,0.18381971,0.27943025,-0.08690932,0.99375516,0.05601165,-0.08107103,0.05235328
1761618582565,0.07911941,-0.26836668,0.07505502,0.11942707,0.30721508,-0.05864252,0.99387542,0.05669239,-0.07931990,0.05201902
1761618582576,0.08311599,-0.73219442,-0.46383503,0.08868560,0.31871681,-0.02009545,0.99399680,0.05720233,-0.07748728,0.05190347
1761618582587,-0.77786070,-0.46505029,0.14585812,0.06116707,0.34099670,-0.04141638,0.99413122,0.05753263,-0.07564590,0.05167982
1761618582598,0.56598261,-0.41457890,-0.64527542,0.00246760,0.30435409,-0.03588356,0.99426907,0.05754645,-0.07394151,0.05147887
1761618582612,1.82747134,0.17251204,-0.86406518,-0.02767971,0.23560168,-0.00940261,0.99440014,0.05735961,-0.07235120,0.05141541
1761618582622,-3.34026607,-0.81445874,0.54783416,0.01178152,0.30795132,0.01755562,0.99450709,0.05742088,-0.07074986,0.05150670
1761618582631,-4.65219425,-0.75204745,0.44021815,0.07343982,0.39620506,0.02960830,0.99459978,0.05772932,-0.06908579,0.05163105
1761618582642,4.63036903,0.41023011,-1.26757096,0.09787095,0.31269628,0.03760564,0.99467762,0.05828230,-0.06731906,0.05184352
1761618582654,0.50520473,-0.11689293,-0.10630751,0.11075908,0.29958776,-0.01061719,0.99475975,0.05893024,-0.06556647,0.05178141
1761618582665,-0.72870987,0.32601068,0.26700746,0.03231974,0.26367595,-0.05529457,0.99486220,0.05911284,-0.06407670,0.05146900
1761618582676,0.14024924,0.13263084,-0.05814229,-0.02254351,0.22705798,-0.05868280,0.99496771,0.05898660,-0.06280518,0.05114037
1761618582688,0.80662723,0.11523760,-0.11062675,-0.03406911,0.20223761,-0.06673009,0.99507347,0.05878730,-0.06162209,0.05075000
1761618582698,-1.62558957,-0.68288570,-0.15408861,-0.02214656,0.19571861,-0.06381531,0.99515964,0.05867213,-0.06060435,0.05041816
1761618582709,0.85668508,-0.19999064,-0.11127601,-0.06122288,0.18685209,-0.04703162,0.99525284,0.05834153,-0.05959535,0.05016419
1761618582720,0.79107863,0.43483938,-0.59053072,-0.10078237,0.16235611,-0.06768773,0.99535882,0.05777715,-0.05868616,0.04978514
1761618582732,0.59088756,0.60985775,-0.60266198,-0.09111323,0.15456711,-0.05505911,0.99545518,0.05726236,-0.05781285,0.04947406
1761618582743,0.22989496,0.36748184,-0.32468287,0.00090816,0.12448578,-0.05163355,0.99550994,0.05726749,-0.05710951,0.04918233
1761618582754,-0.35560342,-0.00219781,-0.01169795,0.05665355,0.08956243,-0.01773886,0.99552505,0.05758192,-0.05661244,0.04908388
1761618582765,-0.13213856,-0.32661625,0.34807651,0.07482823,0.08639234,-0.01576871,0.99553247,0.05800095,-0.05612864,0.04899557
1761618582778,0.93798675,0.39895401,-0.00053666,0.04258559,0.05566275,-0.00572815,0.99553815,0.05826286,-0.05578631,0.04896034
1761618582787,-2.44906036,-0.45101514,0.41165075,0.03876685,0.06957428,0.02067312,0.99554113,0.05845669,-0.05543844,0.04906371
1761618582799,1.48370140,0.15765010,-0.27055322,0.00071811,0.03313282,0.03720329,0.99554092,0.05846071,-0.05525290,0.04927205
1761618582810,-0.20789571,0.45721376,-0.04384843,0.00676928,0.00272451,0.00629808,0.99553782,0.05849828,-0.05523778,0.04930700
1761618582821,0.31659418,-0.02556211,-0.50154269,0.04987709,-0.00811100,0.04448898,0.99550620,0.05878009,-0.05528360,0.04955837
1761618582832,-0.22124378,0.38435874,-0.01234876,0.08685546,-0.00742759,0.05900754,0.99545854,0.05926648,-0.05532520,0.04988881
1761618582843,-0.06872467,0.56663002,-0.01568051,0.14927782,0.02315828,0.06336144,0.99539723,0.06010990,-0.05519435,0.05024680
1761618582855,-0.27654429,0.52468934,0.33012581,0.18050277,0.04566867,0.11035051,0.99531914,0.06111169,-0.05494089,0.05085924
1761618582866,-0.24690373,0.39876333,0.12363368,0.22104677,0.09849115,0.11397025,0.99524128,0.06232744,-0.05439919,0.05148608
1761618582877,0.06441504,-0.89039039,-0.51114129,0.25052121,0.09753261,0.11120409,0.99514972,0.06373036,-0.05385301,0.05210882
1761618582888,-0.25110842,0.69402575,0.78830330,0.13672009,0.11591500,0.10307637,0.99510532,0.06448916,-0.05320968,0.05268090
1761618582899,-0.01318689,0.32575635,-0.22854453,0.14198588,0.14523876,0.11069869,0.99506362,0.06528428,-0.05239634,0.05330081
1761618582910,0.06908310,0.01642836,-0.19101891,0.18075367,0.13993252,0.09682388,0.99500796,0.06630554,-0.05160572,0.05384787
1761618582922,-0.18401038,0.72751410,-0.40193151,0.19972895,0.15055434,0.05580996,0.99495964,0.06741403,-0.05077015,0.05415761
1761618582934,0.75971440,0.02385431,-0.18239986,0.18870756,0.13233791,0.05428066,0.99490424,0.06855572,-0.04996950,0.05448601
1761618582944,-2.34760945,-0.27177587,0.67633248,0.20778277,0.17155288,0.08937753,0.99484969,0.06960502,-0.04910316,0.05493737
1761618582955,1.37350608,-0.30293128,0.32674262,0.12906560,0.16301062,0.08003271,0.99481893,0.07032133,-0.04819845,0.05538155
1761618582966,0.13433511,-0.11205632,0.07407455,0.10282732,0.15866766,0.07365861,0.99479747,0.07090231,-0.04730198,0.05579772
1761618582977,0.12766756,-0.45074583,-0.27725245,0.11482803,0.16084327,0.08723331,0.99476604,0.07155109,-0.04639322,0.05629059
1761618582988,-0.16589516,-0.07280623,0.05863736,0.06069804,0.16164632,0.09615260,0.99475298,0.07188492,-0.04550416,0.05681943
1761618583000,0.22283923,-0.24193221,-0.15403054,0.01311055,0.14826378,0.09525449,0.99475469,0.07195834,-0.04467388,0.05735285
1761618583011,0.41138320,-0.40253499,0.03577912,-0.00474334,0.15538221,0.06028507,0.99477597,0.07193154,-0.04379597,0.05769346
1761618583022,-0.12781927,-0.11589863,-0.62803485,-0.01950170,0.13424538,0.01891532,0.99481052,0.07182233,-0.04304420,0.05779939
1761618583034,0.77722565,-0.13851945,-0.24650205,0.00580097,0.13345637,0.02900715,0.99483221,0.07185714,-0.04224346,0.05797343
1761618583044,-2.25447039,-0.35668245,-0.39451444,0.06915402,0.18296014,0.04788176,0.99483164,0.07219599,-0.04134696,0.05820805
1761618583055,1.51339918,0.36078568,-0.04276481,0.08848613,0.16220722,0.01251285,0.99482879,0.07269152,-0.04043860,0.05827812
1761618583066,-0.03041053,-0.01924417,-0.04612809,0.10194795,0.15561134,0.00950353,0.99481883,0.07326243,-0.03956717,0.05833134
1761618583078,0.51412807,-0.39236715,-0.29316912,0.10832952,0.16477457,0.04168951,0.99479653,0.07386907,-0.03864444,0.05856480
1761618583089,-0.16486441,-0.56162594,0.04601352,0.07971309,0.16214747,0.01486190,0.99479327,0.07431148,-0.03774452,0.05864729
1761618583100,0.15671349,-0.04533532,-0.03691244,0.00611441,0.16100391,-0.00325425,0.99482502,0.07434511,-0.03685900,0.05862939
1761618583111,0.42001957,-0.20248491,0.05845807,-0.05895159,0.13516228,-0.00209896,0.99487808,0.07401498,-0.03610209,0.05861763
1761618583122,-0.07955049,-0.07565570,-1.21865435,-0.05706314,0.10690509,0.01265048,0.99491953,0.07369257,-0.03549807,0.05868911
1761618583133,0.22919477,-0.34180829,-0.20650432,-0.05684059,0.10313446,0.03201120,0.99495320,0.07337142,-0.03491536,0.05886997
1761618583144,0.14048382,-0.42321956,-0.04827099,-0.07508542,0.10852006,0.05501770,0.99498609,0.07296221,-0.03432393,0.05916982
1761618583156,0.98096214,-0.18474380,0.90600932,-0.10073835,0.09251618,0.06343140,0.99502485,0.07238296,-0.03379196,0.05953455
1761618583167,-0.69717193,-0.41650922,-0.41126230,-0.11462525,0.07826914,0.06783880,0.99506128,0.07177545,-0.03337714,0.05989410
1761618583178,0.88249814,0.08032878,-0.09486878,-0.08341840,0.06827900,0.04962947,0.99509137,0.07129996,-0.03298794,0.06017698
1761618583189,-0.04562028,0.36328817,-0.03776865,-0.10652979,0.07348819,0.05020155,0.99513011,0.07070872,-0.03258009,0.06045560
1761618583200,0.23526212,0.01662969,-0.21452029,-0.07654968,0.07481199,0.06890548,0.99515059,0.07028004,-0.03216114,0.06084147
1761618583211,0.19695572,0.10174462,0.01476722,-0.08695904,0.09585910,0.08349697,0.99517337,0.06979307,-0.03162433,0.06130906
1761618583223,0.38019984,-0.19324086,-0.17102488,-0.07885320,0.09570976,0.09428127,0.99518859,0.06934755,-0.03108357,0.06184175
1761618583234,0.23055574,-0.16877226,-0.00674107,-0.11965492,0.11170113,0.07462695,0.99522834,0.06867749,-0.03045804,0.06225966
1761618583245,-0.02261563,0.24126752,0.09909638,-0.14969227,0.11235985,0.05866858,0.99528329,0.06785418,-0.02984006,0.06258233
1761618583256,0.09918845,0.17447395,0.09934679,-0.12940573,0.12215052,0.05384795,0.99533370,0.06712951,-0.02915602,0.06288388
1761618583267,0.04208321,0.16320903,-0.05685402,-0.08320150,0.15404776,0.02831293,0.99537947,0.06666774,-0.02830105,0.06304102
1761618583278,0.33046546,-0.00581124,0.08854904,-0.06864707,0.17171454,-0.00281030,0.99543349,0.06627988,-0.02733087,0.06302514
1761618583289,-0.13417475,0.00364819,0.05777585,-0.04774480,0.16811712,-0.01674909,0.99548172,0.06601729,-0.02640622,0.06293302
1761618583301,0.51002870,0.17831091,0.29043139,-0.05627998,0.15999996,-0.02991289,0.99553651,0.06570212,-0.02551022,0.06276551
1761618583312,0.11617479,0.28214117,0.12469520,-0.05941605,0.14727644,-0.03840001,0.99559224,0.06537236,-0.02469284,0.06255239
1761618583323,0.25276704,0.40406444,-0.52871699,-0.06422467,0.13450522,-0.04135679,0.99564821,0.06501591,-0.02394633,0.06232286
1761618583334,0.35303872,0.21768531,-0.02701836,-0.03025492,0.12622724,-0.01905442,0.99568269,0.06484648,-0.02323946,0.06221615
1761618583345,0.27847999,0.38106834,0.18078902,-0.00297410,0.12378826,-0.01957210,0.99570634,0.06482998,-0.02255244,0.06210753
1761618583356,0.26972366,0.21303368,0.58069498,0.01747913,0.10044605,-0.01880849,0.99571922,0.06492873,-0.02198492,0.06200126
1761618583368,0.32285120,-0.05334931,0.14773657,0.03090947,0.09496856,-0.01294719,0.99572403,0.06510183,-0.02145309,0.06192876
1761618583379,0.06676494,0.19196351,0.12087690,0.01208675,0.06834681,-0.01699012,0.99573352,0.06516831,-0.02107719,0.06183531
1761618583390,0.32383681,0.19667371,0.06326269,0.01656868,0.05661430,-0.03438475,0.99574615,0.06526192,-0.02075731,0.06164104
1761618583401,0.18671672,0.09604241,0.10302970,0.01822292,0.04451063,-0.02762584,0.99575426,0.06536488,-0.02050583,0.06148495
1761618583412,-0.02522426,0.18782324,0.06712034,0.03488710,0.04295097,-0.02757165,0.99575585,0.06555850,-0.02026745,0.06133193
1761618583433,0.07265394,0.14866642,0.03324968,0.07773236,0.04662219,-0.01892282,0.99572477,0.06635137,-0.01979191,0.06113891
1761618583443,-0.52351435,0.37208281,0.07948056,0.10813134,0.06651808,-0.00831556,0.99569633,0.06691906,-0.01944269,0.06109526
1761618583455,0.95041213,-0.30604455,0.04231586,0.08536450,0.03146729,-0.00221225,0.99566752,0.06740991,-0.01926175,0.06108254
1761618583466,0.04790299,-0.27366836,-0.02386391,0.06743854,0.01849405,-0.02424115,0.99565206,0.06779093,-0.01915726,0.06094558
1761618583478,0.14173347,0.25328914,0.11184612,0.04825437,-0.00032503,-0.01595926,0.99563882,0.06806598,-0.01915911,0.06085461
1761618583489,0.00848627,0.25203313,-0.11954831,0.08949565,0.00917000,-0.01935463,0.99561204,0.06856716,-0.01910776,0.06074622
1761618583500,0.03133483,0.15576097,-0.11353079,0.13062977,0.00787404,-0.00948757,0.99556464,0.06931175,-0.01906288,0.06069214
1761618583511,0.03054620,0.00766521,0.02555519,0.15857536,0.02454026,-0.01299644,0.99550898,0.07020770,-0.01892422,0.06061871
1761618583522,-0.57311707,0.34101305,-0.55526709,0.13870109,0.03128277,-0.00619225,0.99546200,0.07094282,-0.01875842,0.06058589
1761618583533,0.13330608,0.05539926,-0.15018731,0.13242388,0.03171142,-0.01274477,0.99541654,0.07168439,-0.01858084,0.06051452
1761618583545,0.01460272,-0.05014924,0.17964036,0.15838649,0.05420097,-0.02983331,0.99536716,0.07258719,-0.01827190,0.06034447
1761618583556,0.01179216,-0.42561860,0.51471567,0.16315918,0.05836999,-0.01816035,0.99531320,0.07348457,-0.01795086,0.06024459
1761618583567,-0.10408608,0.05493026,0.05416224,0.17035943,0.05998486,-0.06311401,0.99526925,0.07444710,-0.01761195,0.05988800
1761618583578,-0.16150996,0.30084731,0.19890436,0.16944148,0.09193997,-0.05025033,0.99522328,0.07540444,-0.01709249,0.05960408
1761618583589,-0.30884307,0.26610963,-0.22179761,0.23861533,0.11993002,-0.02733499,0.99514234,0.07672876,-0.01642687,0.05945237
1761618583600,0.02587721,-0.10604892,-0.00528407,0.29061966,0.17250581,-0.01791699,0.99503698,0.07835623,-0.01546084,0.05935204
1761618583612,-0.64266009,-0.09930940,-0.07657574,0.29774284,0.18993123,-0.02023209,0.99492699,0.08002359,-0.01439723,0.05923874
1761618583623,-0.22715127,-0.42894215,0.12298407,0.25949348,0.20037257,-0.01592792,0.99483084,0.08146378,-0.01328516,0.05915034
1761618583634,0.04927387,-0.15896521,0.22670259,0.20395553,0.20125720,-0.05007060,0.99476712,0.08261613,-0.01214806,0.05886744
1761618583645,-0.04102815,0.07071542,0.24454576,0.15024815,0.20023148,-0.08671468,0.99473857,0.08345752,-0.01102676,0.05838184
1761618583656,0.05797008,-0.11576197,-0.05990786,0.16919932,0.19409072,-0.07039998,0.99469313,0.08440503,-0.00993985,0.05798760
1761618583668,-0.11901907,0.02574913,-0.07539960,0.18519762,0.21617638,-0.05899856,0.99463568,0.08543288,-0.00874007,0.05766016
1761618583679,0.06687620,0.03381695,0.24148688,0.17818709,0.23887430,-0.03964322,0.99457317,0.08643073,-0.00740238,0.05743815
1761618583690,-0.20645901,-0.09527050,-0.09725283,0.17298934,0.23644684,-0.03020203,0.99450724,0.08739947,-0.00607827,0.05726902
1761618583701,0.19295589,-0.23797108,0.25361714,0.15278482,0.24076847,-0.02232509,0.99444564,0.08826270,-0.00471793,0.05714289
1761618583712,-0.26354868,-0.19795841,0.08128838,0.13623020,0.23211303,-0.03319738,0.99439504,0.08900516,-0.00345292,0.05696196
1761618583724,0.38554868,-0.09280485,-0.42018456,0.10308096,0.20661240,-0.07322385,0.99436949,0.08959272,-0.00227522,0.05654458
1761618583735,0.03218945,-0.34828192,-0.85143934,0.12195414,0.17923011,-0.06948669,0.99433191,0.09026956,-0.00128050,0.05615893
1761618583746,0.26486116,0.24121716,0.49525408,0.11114198,0.16109499,-0.05237860,0.99429284,0.09088640,-0.00038642,0.05586823
1761618583757,0.13975618,0.11949158,0.50982524,0.10010354,0.13735612,-0.04219296,0.99425469,0.09144698,0.00038277,0.05563195
1761618583768,0.27512029,0.22861356,0.67177135,0.10089578,0.12627936,-0.02466073,0.99420976,0.09201200,0.00108994,0.05549385
1761618583779,0.11888822,-0.25239172,-0.01567813,0.10417233,0.10927495,-0.00774136,0.99415810,0.09258494,0.00169095,0.05545127
1761618583790,0.25718931,-0.15576759,0.11016380,0.07957008,0.09592956,0.00322403,0.99411443,0.09303054,0.00222816,0.05546933
1761618583802,0.02589647,-0.07893672,0.06149669,0.03822444,0.06494113,-0.00170747,0.99409403,0.09324459,0.00259183,0.05545977
1761618583813,0.20375563,-0.27459746,0.21762189,0.03505509,0.06856149,-0.00369777,0.99407584,0.09343915,0.00297234,0.05543924
1761618583824,0.21430775,-0.15728399,0.08084161,0.01519030,0.03186031,-0.01052314,0.99407063,0.09352346,0.00314917,0.05538084
1761618583835,0.02849953,0.11212938,0.07078940,0.01595830,0.00812112,-0.03781626,0.99407387,0.09361362,0.00319505,0.05516718
1761618583846,0.23331212,0.12138405,-0.07400642,0.02114292,-0.00619266,-0.01192139,0.99406653,0.09373202,0.00316037,0.05510042
1761618583857,-0.04480409,-0.08361097,-0.08144320,0.01316167,-0.01440835,0.00434834,0.99405870,0.09380375,0.00308185,0.05512412
1761618583869,0.26231998,0.06039233,0.06793930,-0.00216761,-0.00137086,0.00312429,0.99405890,0.09379129,0.00307396,0.05514208
1761618583880,-0.17231375,0.03269367,-0.02378972,-0.02419062,-0.03022500,0.01000238,0.99406889,0.09365824,0.00290773,0.05519709
1761618583891,0.22424471,-0.12715864,-0.05352808,-0.02013898,-0.02948889,0.01882323,0.99407407,0.09354647,0.00274406,0.05530156
1761618583902,0.05624279,-0.06402094,0.08201980,-0.01953373,-0.03691563,0.00553145,0.99408319,0.09343708,0.00253734,0.05533254
1761618583913,0.21667505,0.33493163,-0.35286910,-0.03396962,-0.03879558,-0.00205241,0.99410222,0.09324685,0.00232008,0.05532105
1761618583924,-0.02806503,0.38775016,-0.03820704,-0.03917631,-0.05276636,-0.00905098,0.99412581,0.09303138,0.00202987,0.05527127
1761618583935,0.12806117,-0.11865399,-0.15399625,0.00083589,-0.04716816,-0.01044191,0.99412913,0.09303606,0.00176572,0.05521279
1761618583947,-0.30838181,0.04145811,0.27190551,0.01093524,-0.03524457,-0.03041023,0.99413317,0.09309730,0.00156835,0.05504249
1761618583958,0.14730102,-0.32507197,0.17809020,0.02350973,-0.02767358,-0.00761394,0.99412342,0.09322895,0.00141338,0.05499986
1761618583969,-0.01662526,-0.05992791,-0.05491175,0.03282850,-0.01224537,-0.01095716,0.99410990,0.09340951,0.00134603,0.05493959
1761618583980,0.01029064,-0.06380938,-0.04855364,0.02310671,-0.00716773,-0.02288092,0.99410481,0.09354006,0.00130554,0.05481031
1761618583991,-0.05223374,0.12237427,0.09192418,-0.00331033,-0.00957366,0.00667876,0.99410457,0.09352169,0.00125240,0.05484738
1761618584002,0.11362596,0.09498267,-0.04175086,0.00744434,-0.00465102,-0.00915621,0.99410349,0.09356375,0.00122612,0.05479565
1761618584013,-0.33147088,-0.26614477,-0.17543163,0.02149470,-0.00831592,-0.00350773,0.99409357,0.09368090,0.00118080,0.05477653
1761618584025,-0.13950181,-0.48877966,-0.25249726,0.04025183,0.00319982,0.01677503,0.99406663,0.09391033,0.00119904,0.05487215
1761618584036,-0.11656912,-0.31519942,0.07199959,0.02119986,0.01137976,0.02700145,0.99404732,0.09402693,0.00126163,0.05502066
1761618584047,0.25713739,0.14500923,0.00364062,-0.00633388,0.01505016,0.02748060,0.99404213,0.09399209,0.00134441,0.05517180
1761618584058,0.45786318,0.29446747,0.05735207,-0.00801839,0.00407341,0.03146006,0.99403635,0.09394559,0.00136803,0.05535427
1761618584069,-0.23621170,0.33591886,0.28680620,-0.03802542,0.00728570,0.01672388,0.99405064,0.09374025,0.00140737,0.05544458
1761618584080,0.23108887,0.09314138,-0.13059241,-0.00463218,-0.00420889,0.01448165,0.99404863,0.09371477,0.00138422,0.05552423
1761618584092,0.16932095,0.07368547,-0.07287959,0.02051575,-0.01141443,0.03318467,0.99402711,0.09383171,0.00131916,0.05571338
1761618584103,0.01860647,-0.02390300,-0.02049652,0.02709935,-0.01186133,0.03103073,0.99400353,0.09398076,0.00125393,0.05588405
1761618584114,0.08583877,-0.08209807,-0.07639267,0.03173548,-0.01983833,0.02315216,0.99397933,0.09416007,0.00114184,0.05601486
1761618584125,0.07175557,0.61005400,-1.51833909,-0.00895280,-0.01799146,0.05305699,0.99396751,0.09411038,0.00104199,0.05630932
1761618584136,0.21672657,-0.12656493,0.15626355,-0.01193166,-0.00924006,0.06425892,0.99395356,0.09404416,0.00099070,0.05666596
1761618584147,-0.06328140,0.45326945,-0.14796317,-0.01090223,-0.00557303,0.02632358,0.99395100,0.09398419,0.00096005,0.05681074
1761618584158,0.26579345,-0.66328805,1.28345783,0.04265526,-0.00777736,0.03151205,0.99391774,0.09422733,0.00091572,0.05699036
1761618584170,0.17481472,-0.10451432,0.09344395,0.04740713,-0.00107767,0.03897661,0.99388000,0.09449281,0.00090969,0.05720863
1761618584181,-0.07636625,-0.08540789,0.04207679,0.02699167,-0.02431802,-0.00806815,0.99386854,0.09464126,0.00077594,0.05716425
1761618584192,0.14603967,0.16970935,0.11692666,0.00959095,-0.02891359,-0.03014327,0.99387323,0.09469497,0.00061402,0.05699545
1761618584203,0.15205267,0.24417520,0.00363798,0.01017316,-0.03472503,0.00910329,0.99386498,0.09475194,0.00041956,0.05704643
1761618584214,-0.03559126,-0.37155664,0.18324517,0.04781682,-0.01629932,0.01639543,0.99383445,0.09501733,0.00032910,0.05713742
1761618584225,0.05142907,-0.16228208,0.30104679,0.04208767,0.00293300,0.01676055,0.99380648,0.09525302,0.00034552,0.05723128
1761618584236,-0.10365522,-0.14997731,-0.08134812,0.02620138,-0.00878498,0.00678227,0.99379038,0.09539843,0.00029677,0.05726893
1761618584248,0.39590627,-0.01945125,-0.19927984,0.01588594,-0.00474974,0.00025573,0.99378176,0.09548740,0.00027017,0.05727036
1761618584259,0.04775404,0.31830087,-0.14784300,0.01795603,-0.02441130,-0.03087939,0.99378207,0.09558795,0.00013347,0.05709743
1761618584270,0.09889526,0.16761264,-0.22133655,0.03656767,-0.03203420,-0.02705323,0.99377096,0.09579456,-0.00004753,0.05694458
1761618584281,-0.06869813,0.02299801,-0.01186008,0.05944935,-0.03322282,-0.02594141,0.99374752,0.09612153,-0.00023025,0.05680190
1761618584292,0.21121498,-0.13954720,-0.10083181,0.07075620,-0.02118626,0.00745448,0.99370670,0.09651776,-0.00034890,0.05684365
1761618584303,-0.20323284,0.03260399,0.18041131,0.04880524,-0.01780485,0.01189769,0.99367680,0.09678619,-0.00044682,0.05690909
1761618584315,0.20934455,0.28188383,-0.97259291,0.01759428,-0.00329024,0.03661523,0.99365543,0.09688472,-0.00046525,0.05711413
1761618584326,-0.01964214,-0.04780578,-0.54924506,0.02494545,-0.00420119,0.03362634,0.99363116,0.09702317,-0.00048856,0.05730076
1761618584337,0.04274983,-0.09998148,-0.06679480,-0.01197185,-0.00615138,0.02325358,0.99363017,0.09695612,-0.00052301,0.05743098
1761618584348,0.12069180,-0.22665350,0.74555550,-0.01649594,0.00655785,0.01022938,0.99363589,0.09686375,-0.00048629,0.05748826
1761618584359,-0.06912868,-0.04630751,0.17754825,0.03231289,-0.01915806,0.01866348,0.99361233,0.09704308,-0.00059262,0.05759185
1761618584370,0.11032594,0.17270360,-0.03664326,0.03216313,0.01036162,0.02696692,0.99358599,0.09722320,-0.00053459,0.05774286
1761618584381,-0.07866575,0.00576144,-0.10591106,0.01870036,0.01206056,0.01634004,0.99357059,0.09732698,-0.00046765,0.05783355
1761618584393,0.01500407,-0.07300518,-0.06587109,0.00064066,0.02261384,0.04482565,0.99355565,0.09733057,-0.00034102,0.05808457
1761618584404,0.00276005,-0.08029522,-0.00297838,-0.01360171,0.03641119,0.04475395,0.99354854,0.09725508,-0.00013893,0.05833296
1761618584415,-0.31468892,-0.39027715,0.21370304,-0.03658998,0.02778798,0.01493980,0.99356353,0.09705201,0.00001529,0.05841587
1761618584426,-0.03606328,-0.26259104,0.13102570,-0.04737294,0.00793354,-0.00128209,0.99358983,0.09678672,0.00005972,0.05840869
1761618584437,0.22118628,0.07979579,-0.11913690,-0.03065754,-0.00640213,0.02987880,0.99359663,0.09661657,0.00002418,0.05857452
1761618584448,0.43877455,0.40394350,-0.27801351,-0.01433849,-0.00899909,0.01504007,0.99359944,0.09653699,-0.00002576,0.05865799
1761618584460,0.18079584,0.30222554,-0.15458701,-0.01836168,-0.00363948,0.00862620,0.99360657,0.09643417,-0.00004614,0.05870630
1761618584471,0.04537822,-0.00332615,-0.05019668,-0.00729180,0.00237221,0.01547221,0.99360541,0.09639333,-0.00003286,0.05879294
1761618584482,0.04825985,-0.13547948,0.02525463,-0.02142981,-0.00444081,0.01489358,0.99361205,0.09627440,-0.00005750,0.05887560
1761618584493,0.06613725,-0.03348022,0.09658681,-0.04893163,-0.00810992,0.00710334,0.99363641,0.09599793,-0.00010332,0.05891574
1761618584504,0.02425294,0.01077291,0.02122888,-0.05415773,-0.01484562,0.01133918,0.99366143,0.09570007,-0.00018498,0.05897810
1761618584515,0.03030346,0.23118454,-0.41608633,-0.02210940,-0.00909374,0.01494926,0.99366831,0.09557736,-0.00023545,0.05906107
1761618584526,-0.00827899,0.21659478,-0.30088707,-0.02047637,-0.00321440,0.01889767,0.99367303,0.09546269,-0.00025345,0.05916690
1761618584538,-0.05695465,0.01892189,-0.13782994,-0.00430222,-0.00403875,0.02276458,0.99366779,0.09543881,-0.00027586,0.05929324
1761618584549,-0.00675076,-0.20590840,0.29472518,0.01378813,0.00990262,0.01104833,0.99365669,0.09551603,-0.00022041,0.05935511
1761618584572,0.14779543,-0.02748112,0.17714095,0.01330848,0.00095216,0.00433892,0.99363852,0.09567307,-0.00020917,0.05940631
1761618584580,-1.72246474,1.25416009,-1.40128538,0.19345528,0.01235233,0.02507231,0.99355670,0.09645656,-0.00015914,0.05950785
1761618584590,1.05121865,-0.41784032,0.80194107,0.04512880,-0.00228861,0.01737017,0.99352984,0.09667995,-0.00017047,0.05959383
1761618584604,0.20981667,-0.20319394,0.11533395,0.02309776,-0.00700741,0.01793042,0.99350737,0.09683586,-0.00021777,0.05971487
1761618584614,-0.28443557,-0.36166222,0.09293013,0.00538904,-0.01856461,0.01801134,0.99349931,0.09686280,-0.00031060,0.05980492
1761618584626,-0.04429817,-0.32112598,0.22726953,-0.00709513,-0.01243830,0.01856519,0.99349661,0.09681846,-0.00038834,0.05992095
1761618584636,-0.17887354,-0.23829937,-0.16932935,0.00723720,-0.02324507,0.02086964,0.99348673,0.09685464,-0.00050456,0.06002530
1761618584652,0.34102387,0.22238514,-0.03533861,0.01384088,-0.01228315,0.01238334,0.99346999,0.09696468,-0.00060221,0.06012375
1761618584656,-1.12236671,0.06820327,-4.04847827,0.07593489,-0.05680694,0.05428590,0.99344850,0.09711655,-0.00071583,0.06023232
1761618584669,0.50201416,0.07190704,1.05384886,0.01105754,-0.01219511,0.00492136,0.99343982,0.09718566,-0.00079205,0.06026308
1761618584680,0.00340408,0.00500301,-0.09211232,-0.01575275,-0.01902294,0.03353837,0.99343695,0.09709744,-0.00089857,0.06045090
1761618584759,0.02612358,0.01238995,0.07367594,0.00148690,-0.00006568,0.00320298,0.99342343,0.09715647,-0.00090118,0.06057805
1761618584764,-5.00895696,14.29485117,-56.30273412,0.47484598,-0.03010361,-0.18638978,0.99334378,0.09822488,-0.00096891,0.06015868
1761618584796,0.81872807,-1.96618180,7.44767470,0.00816506,-0.00770904,0.01335231,0.99331760,0.09835633,-0.00109303,0.06037365
1761618584825,-0.11353827,-0.12773989,0.16014603,0.01560448,0.00959255,-0.00706150,0.99330170,0.09858026,-0.00095538,0.06027232
1761618584843,-0.23201287,-0.22393556,0.18302490,0.00443087,0.04902275,0.01138835,0.99329190,0.09861992,-0.00051662,0.06037424
1761618584859,0.17205005,0.37708615,-0.19458754,0.03441695,0.05094994,0.00485299,0.99326211,0.09889697,-0.00010648,0.06041331
1761618584874,0.04969051,0.02910735,0.13343014,0.03103870,0.05118501,-0.00023502,0.99323820,0.09913752,0.00029021,0.06041149
1761618584953,0.00403494,0.00270811,0.08377835,0.00268133,0.00658976,0.00251503,0.99322144,0.09924357,0.00055083,0.06051096
1761618584958,5.79872295,19.75368401,-28.48101172,0.63635583,0.51424419,0.01230298,0.99307764,0.10064355,0.00168217,0.06053802
1761618585012,-0.43497863,-1.53779161,2.29030316,0.04211187,0.01006601,0.00588518,0.99295155,0.10178057,0.00195395,0.06069692
1761618585024,0.60733345,-0.08474130,-0.12024894,-0.02009834,0.02140486,0.01520531,0.99295844,0.10165295,0.00208987,0.06079348
1761618585067,-0.15533377,-0.17803206,0.11400617,-0.00547760,-0.02294356,-0.01029930,0.99298451,0.10153710,0.00160462,0.06057565
1761618585078,1.07767986,0.57394610,-0.09676879,0.04157931,-0.09263033,0.00766616,0.99295829,0.10177410,0.00107662,0.06061934
1761618585126,-0.26274921,-0.01375233,0.00992186,0.00994428,-0.00778016,0.00361659,0.99292844,0.10201475,0.00088834,0.06070687
1761618585136,1.55427236,0.67433630,-0.18734248,-0.09540589,-0.07296655,-0.03260209,0.99298401,0.10156634,0.00054540,0.06055364
1761618585158,-0.55026838,-0.11484861,-0.04131235,0.00044429,-0.02449412,-0.00059343,0.99298402,0.10157132,0.00027107,0.06054699
1761618585189,-0.08495512,-0.10306731,0.10992992,0.02172485,-0.00751523,-0.00204266,0.99295147,0.10190805,0.00015458,0.06051533
1761618585233,-0.03169876,-0.01447910,0.00075977,0.01418132,0.00054209,-0.00052628,0.99292046,0.10221650,0.00016637,0.06050388
1761618585242,1.16392303,-0.75082843,0.67020115,-0.04770146,-0.05434743,0.02095864,0.99293824,0.10198276,-0.00009993,0.06060658
1761618585277,-0.30858496,0.05988390,-0.23021102,-0.00850632,-0.00395226,0.02044000,0.99293171,0.10183603,-0.00016811,0.06095917
1761618585289,0.65518318,0.66745909,-0.08130823,0.13618145,-0.03678103,0.00723919,0.99284484,0.10265311,-0.00038879,0.06100260
1761618585310,-0.02955844,-0.12415975,0.08194498,-0.02319919,-0.06730311,-0.04343610,0.99289763,0.10240836,-0.00109884,0.06054435
1761618585325,0.10243881,0.29499510,-0.15637289,-0.04206653,-0.07480694,0.03065620,0.99291460,0.10210548,-0.00163745,0.06076508
1761618585373,-0.16054075,-0.06539309,0.02591016,0.00024523,-0.02245827,0.00312161,0.99290831,0.10211142,-0.00218094,0.06084062
1761618585376,67.38642985,27.69691191,10.95412286,0.15930411,-1.35868494,-0.00636413,0.99288098,0.10232648,-0.00401517,0.06083203
1761618585403,-6.32129540,-2.73637716,-0.86608265,-0.01830605,-0.10590359,-0.00346299,0.99290254,0.10207843,-0.00545016,0.06078511
1761618585425,0.13484777,-0.01043517,-0.04595030,0.00509197,-0.11035942,0.03515637,0.99286580,0.10213419,-0.00665860,0.06117007
1761618585438,0.29036571,-0.43248679,-0.14012519,0.00202378,-0.12792307,0.04133079,0.99284156,0.10214755,-0.00750289,0.06144285
1761618585454,-0.31233438,-0.03648936,-0.06494812,0.01038752,-0.11638230,0.02003696,0.99281610,0.10222909,-0.00841649,0.06160014
1761618585463,0.92258770,0.41990100,0.16910572,0.06092750,-0.18598955,0.00804421,0.99277770,0.10250631,-0.00926274,0.06163674
1761618585479,-0.67817451,0.02045646,-0.09427529,0.04875453,-0.07702213,0.00837683,0.99272630,0.10290366,-0.00989047,0.06170501
1761618585492,0.11171927,0.01513554,-0.03271046,0.01468043,-0.09902860,0.03669815,0.99269371,0.10300275,-0.01055891,0.06195273
1761618585495,14.94126555,2.94656665,1.35618963,0.00038437,-0.38010400,-0.05288803,0.99269237,0.10300333,-0.01112907,0.06187339
1761618585506,-3.83361415,-0.66830214,-0.37195987,0.01226675,-0.12353907,0.02721430,0.99266906,0.10306834,-0.01178383,0.06201763
1761618585519,0.03782487,-0.31268415,-0.42175212,-0.00512710,-0.14355759,0.04464001,0.99264407,0.10303655,-0.01267388,0.06229440
1761618585533,-0.40811236,-0.05722099,0.03423735,0.00428046,-0.08542412,0.01760762,0.99262405,0.10306866,-0.01331457,0.06242645
1761618585537,11.73357208,-2.76138797,-4.03517273,-0.06385578,-0.42672265,0.13248366,0.99260918,0.10294414,-0.01414667,0.06268480
1761618585547,-2.82384449,0.42951080,1.33877995,-0.02566804,-0.17396633,0.07048317,0.99258761,0.10281708,-0.01500781,0.06303369
1761618585559,-0.71898196,0.98481694,0.72808367,-0.02214240,-0.13875351,0.03431862,0.99257607,0.10269198,-0.01579177,0.06322759
1761618585571,-0.09225686,-0.06672960,-0.07543525,0.00055235,-0.13545565,0.03231557,0.99255031,0.10269526,-0.01659773,0.06341987
1761618585581,0.33486541,0.21089316,0.05334288,0.00041726,-0.16297517,0.04196867,0.99252186,0.10269741,-0.01743705,0.06363601
1761618585595,-0.38365457,-0.05806252,0.06270869,-0.01534305,-0.11873259,0.03342270,0.99250313,0.10259078,-0.01826224,0.06386829
1761618585608,0.21857579,-0.24191676,-0.13310402,0.00945711,-0.11568598,0.03510867,0.99246849,0.10265130,-0.01900263,0.06409299
1761618585614,2.90479511,0.43939551,0.50410194,-0.02592766,-0.22937492,0.04338179,0.99245353,0.10256704,-0.01974810,0.06423398
1761618585634,-1.29491463,-0.04668548,0.02899850,-0.02190884,-0.06085955,0.01731375,0.99245265,0.10235233,-0.02034452,0.06440365
1761618585648,0.30617022,-0.27562157,-0.14102986,-0.00064641,-0.09988747,0.01381618,0.99243182,0.10234771,-0.02105872,0.06450244
1761618585649,129.34300542,-4.02854687,18.49608659,0.05595507,-0.84729378,0.06175435,0.99241079,0.10238968,-0.02169419,0.06454876
1761618585659,-19.24000853,0.98593562,-2.14111677,-0.02582903,-0.09537412,0.01639325,0.99240831,0.10226440,-0.02215675,0.06462826
1761618585670,-0.20203159,0.10898529,-0.42375193,-0.02025828,-0.09752439,-0.00452255,0.99240926,0.10215602,-0.02267851,0.06460407
1761618585684,-0.43380074,-0.09078820,-0.14300566,-0.00017271,-0.07178675,-0.00519067,0.99239968,0.10215475,-0.02320614,0.06456592
1761618585698,0.10925691,-0.06213927,-0.03369008,-0.01043089,-0.06925853,-0.00800349,0.99239939,0.10208278,-0.02368402,0.06451069
1761618585703,7.25132481,0.74929007,2.23721637,-0.05353246,-0.19654322,-0.06203232,0.99241089,0.10195430,-0.02415573,0.06436181
1761618585724,-2.01763596,-0.11685733,-0.49167893,-0.01414017,-0.05402410,-0.00694182,0.99241683,0.10180724,-0.02471758,0.06428962
1761618585727,33.22423646,-0.93204664,8.05619742,-0.04996845,-0.30822330,-0.03131183,0.99241597,0.10173479,-0.02516450,0.06424422
1761618585738,-7.60067692,0.01923799,-2.13017718,0.02531737,-0.11265081,-0.00734260,0.99238814,0.10187530,-0.02578971,0.06420347
1761618585748,0.35935361,0.32946867,0.75126372,0.00964736,-0.09116926,-0.01419542,0.99237571,0.10192402,-0.02625012,0.06413178
1761618585763,-0.84329743,-0.04138573,-0.42079077,0.01694669,-0.08120857,0.00048900,0.99234690,0.10204773,-0.02684294,0.06413535
1761618585776,0.30201509,-0.16428505,0.17287386,0.00329995,-0.06905167,0.01140330,0.99232632,0.10207067,-0.02732285,0.06421460
1761618585782,4.89442304,0.85005561,2.24809769,-0.05921986,-0.24776305,0.03503655,0.99231846,0.10191966,-0.02795465,0.06430395
1761618585802,-1.55873830,-0.29349115,-0.60472527,0.00329614,-0.04884359,0.00814158,0.99229580,0.10195278,-0.02844552,0.06438577
1761618585804,42.29442882,-4.16763501,14.03308802,0.03460172,-0.49710194,0.07955007,0.99227038,0.10199084,-0.02899234,0.06447327
1761618585816,-7.47458802,0.92928119,-2.27678266,-0.01912439,-0.09029173,-0.00753626,0.99226913,0.10187610,-0.02953409,0.06442806
1761618585826,0.35863722,0.30090426,-0.26129328,-0.00644713,-0.10486587,0.05910097,0.99223842,0.10184483,-0.03004269,0.06471470
1761618585839,-0.27977302,0.06736740,-0.14986481,0.00085901,-0.05837792,0.03510659,0.99221116,0.10185046,-0.03042506,0.06494464
1761618585851,-0.14756447,0.17951776,0.13106020,0.02327561,-0.06724577,0.01320908,0.99217917,0.10199011,-0.03082854,0.06502390
1761618585859,1.09353051,0.59575985,0.01649665,0.09842778,-0.08105818,0.02640450,0.99211940,0.10239858,-0.03116493,0.06513348
1761618585875,-0.90896929,-0.58965419,-0.32861160,0.06780835,-0.04028373,0.02466819,0.99203961,0.10294444,-0.03148921,0.06533206
1761618585890,0.41688460,-0.10365343,0.47151906,0.03518799,-0.03590849,-0.00631408,0.99200760,0.10320131,-0.03175134,0.06528596
1761618585893,11.77790502,1.32071464,4.85023158,-0.09133398,-0.20408887,-0.09681769,0.99202155,0.10306431,-0.03205748,0.06514074
1761618585904,-3.44302571,-0.32534988,-1.37515549,-0.05359790,-0.03461319,0.03949520,0.99203176,0.10276684,-0.03224958,0.06535993
1761618585914,-0.03307132,-0.04386549,0.07911391,-0.01948745,-0.01507692,0.04819549,0.99202299,0.10266356,-0.03232949,0.06561537
1761618585926,-0.04496820,-0.09855209,-0.27090304,0.00202711,-0.00472820,0.03713073,0.99200690,0.10267512,-0.03235644,0.06582702
1761618585937,0.04917794,0.09856328,0.07318937,-0.00859807,0.02686750,0.06071133,0.99199439,0.10262783,-0.03220867,0.06616093
1761618585950,-0.25170511,0.08073173,-0.12856250,0.00408622,0.01431368,0.03800679,0.99197790,0.10265480,-0.03211420,0.06641177
1761618585961,0.00348454,0.03793037,0.24507648,0.03942645,0.02625835,0.02617075,0.99194995,0.10287558,-0.03196715,0.06655833
1761618585970,0.08472067,0.01179272,0.26357865,-0.00465708,-0.00912681,-0.01563975,0.99195540,0.10285509,-0.03200731,0.06648951
1761618585981,-0.17431467,-0.10849742,-0.13219576,-0.00731718,-0.00180863,0.00137052,0.99195892,0.10281265,-0.03201780,0.06649746
1761618585993,0.17855792,-0.05469059,0.07147775,0.00339264,0.00747419,0.02576737,0.99194853,0.10283182,-0.03197557,0.06664305
1761618586005,-0.00925846,-0.06895641,-0.01776064,-0.01131282,-0.02087574,0.03962997,0.99193573,0.10276508,-0.03209874,0.06687687
1761618586016,0.02505510,-0.11086790,-0.14796410,-0.01300878,0.00103168,0.01394073,0.99193831,0.10268897,-0.03209270,0.06695842
1761618586027,0.04911533,-0.11674235,-0.17277065,-0.02619895,-0.02786886,0.02913567,0.99193744,0.10254881,-0.03224180,0.06711429
1761618586038,-0.03687967,0.09683646,-0.01815426,0.02011365,-0.02973425,0.01807857,0.99191308,0.10266346,-0.03241128,0.06721734
1761618586050,0.12683143,0.17381020,0.16961096,-0.00773953,-0.01983287,0.00930996,0.99191039,0.10262012,-0.03252235,0.06726948
1761618586060,0.26149361,0.08993526,0.19412736,0.01811305,-0.01711908,0.02947418,0.99188776,0.10271249,-0.03260966,0.06741980
1761618586072,-0.24583214,-0.04795327,-0.14642476,0.00952992,-0.01280438,0.00015708,0.99187910,0.10277063,-0.03268776,0.06742076
1761618586083,-0.01262348,-0.06260490,0.15663480,-0.02695685,-0.01369034,-0.03068151,0.99190364,0.10262101,-0.03276374,0.06725047
1761618586107,-0.24940805,-0.00181135,-0.19847531,-0.00728771,-0.00714712,-0.00533219,0.99191427,0.10253283,-0.03285022,0.06718595
1761618586117,1.57513929,-0.13382903,0.86250687,-0.02221210,-0.01998184,-0.00890291,0.99192511,0.10242510,-0.03294714,0.06714277
1761618586128,-1.08881831,0.09256576,-1.08605445,-0.00108956,-0.00561739,-0.00947784,0.99192809,0.10241938,-0.03297663,0.06709302
1761618586138,1.24894511,0.04562437,0.17577453,-0.02516308,-0.01528055,0.00018381,0.99193909,0.10228602,-0.03305761,0.06709399
1761618586150,-0.89384514,0.23488695,0.23247223,-0.00584310,-0.01578447,0.00274909,0.99193844,0.10225155,-0.03315074,0.06711021
1761618586161,0.02475385,-0.13628477,0.10268007,0.01410167,-0.00596670,0.01407613,0.99192436,0.10232770,-0.03318296,0.06718622
1761618586172,-0.17906232,-0.12829833,0.12557905,-0.04074261,0.00031327,-0.00166449,0.99194943,0.10209139,-0.03318115,0.06717657
1761618586183,-0.01125762,-0.04621313,0.02236700,-0.04695493,0.00180801,-0.01790353,0.99198297,0.10183314,-0.03317120,0.06707810
1761618586195,-0.00112674,0.09873332,-0.01742513,-0.00444705,-0.00537607,0.01006151,0.99198065,0.10180757,-0.03320211,0.06713595
1761618586205,0.07729168,0.22187505,0.03036557,0.01022547,0.00550737,-0.00552217,0.99197819,0.10185869,-0.03317458,0.06710834
1761618586216,-0.12042112,-0.06870728,0.07136383,0.00762882,-0.00027868,0.01262999,0.99196904,0.10190103,-0.03317612,0.06717844
1761618586227,0.03420244,-0.08886056,0.03319068,0.00315341,0.01115495,0.01172300,0.99196494,0.10191838,-0.03311477,0.06724291
1761618586239,-0.07621793,-0.10723380,-0.12461143,0.01259072,0.00832524,0.01701372,0.99195192,0.10199392,-0.03306482,0.06734499
1761618586249,-0.05707043,0.03705017,-0.02866193,-0.00648438,0.01382836,-0.00116245,0.99195825,0.10195988,-0.03299222,0.06733889
1761618586260,-0.01877746,-0.03531476,-0.01057368,-0.01673846,0.02034292,-0.00117474,0.99197186,0.10186782,-0.03288034,0.06733243
1761618586271,-0.02281444,0.07352094,-0.05387900,-0.00171706,0.02454553,0.00089133,0.99197687,0.10185854,-0.03274779,0.06733724
1761618586284,-0.11364569,0.19746958,-0.07519249,0.01632332,0.03469509,-0.00712881,0.99197656,0.10195893,-0.03253441,0.06729340
1761618586294,0.08151965,0.10618061,-0.01798547,0.04861019,0.04310788,0.01675717,0.99195243,0.10220684,-0.03231456,0.06737886
1761618586305,-0.08456113,-0.09689536,-0.05760251,0.00381161,0.04053507,0.00694223,0.99195507,0.10222914,-0.03207743,0.06741948
1761618586316,0.10135392,-0.12598325,-0.18876223,-0.01119204,0.04060243,0.01498874,0.99196235,0.10217262,-0.03187239,0.06749517
1761618586327,-0.04897774,-0.16167203,-0.15436848,-0.01729301,0.02592439,0.01349800,0.99197217,0.10207232,-0.03172203,0.06757346
1761618586338,0.01362412,0.09837545,0.08312359,-0.00036091,0.02504670,-0.01778850,0.99198363,0.10207030,-0.03158177,0.06747384
1761618586349,0.04450556,0.10050367,0.26110431,0.03132706,0.02189110,0.01777578,0.99196306,0.10224260,-0.03146137,0.06757161
1761618586360,0.00331694,0.14467380,0.12268468,0.01772081,0.03360211,0.00514929,0.99195704,0.10233829,-0.03127992,0.06759941
1761618586372,-0.06575489,-0.03113637,-0.10299426,0.01747887,0.00762478,0.01196302,0.99194323,0.10243967,-0.03123569,0.06766880
1761618586383,0.10027976,0.01707915,0.02586123,0.00692535,0.01277729,0.02450533,0.99193201,0.10247880,-0.03116350,0.06780726
1761618586394,0.11673100,-0.07350737,-0.02457639,0.00885482,0.02784749,0.02906152,0.99192134,0.10252529,-0.03101730,0.06795983
1761618586405,-0.15113364,-0.15239184,-0.07458662,-0.00784054,0.01113285,-0.01355052,0.99193334,0.10248020,-0.03095329,0.06788191
1761618586416,-0.04798570,-0.02294340,0.14313688,-0.01025880,0.02176003,-0.00086202,0.99194322,0.10242378,-0.03083361,0.06787717
1761618586427,0.04235444,0.01432729,0.07597868,-0.01054525,-0.00052719,0.01487853,0.99194352,0.10236473,-0.03083656,0.06796049
1761618586448,-0.13347832,0.03261765,-0.19510508,-0.00017260,-0.00418669,0.00293188,0.99194032,0.10236297,-0.03087926,0.06799040
1761618586458,0.96892841,0.27168210,0.03341827,0.04025867,-0.00774194,0.00175453,0.99191704,0.10257030,-0.03091914,0.06799943
1761618586468,-0.29805132,-0.04480602,-0.36612942,0.08854319,-0.00683859,0.01292778,0.99186412,0.10302630,-0.03095435,0.06806601
1761618586473,3.57691527,0.39058349,0.00358936,0.04151279,0.00738596,-0.02199429,0.99185807,0.10312385,-0.03093700,0.06801432
1761618586501,-0.85277509,-0.16889312,0.00767175,-0.00642664,0.00018833,-0.01090740,0.99187782,0.10303452,-0.03093438,0.06786271
1761618586502,80.97943341,-19.55281736,-4.23200342,-0.66077230,-0.23115361,-0.16035548,0.99193917,0.10247286,-0.03113086,0.06772641
1761618586512,-13.77245105,3.35980029,0.85581883,-0.08402082,-0.01972623,-0.02916513,0.99198682,0.10207377,-0.03122456,0.06758787
1761618586522,-0.10715959,-0.01295905,-0.11446729,-0.01236712,-0.02427791,-0.01902934,0.99199637,0.10200822,-0.03135323,0.06748702
1761618586534,0.96853794,0.00153799,0.00675981,0.01502506,-0.00865345,-0.00788007,0.99198912,0.10209311,-0.03140212,0.06744250
1761618586546,-0.54209201,0.01276562,-0.07333908,0.01635535,-0.01278189,0.00541373,0.99197438,0.10219124,-0.03147882,0.06747498
1761618586558,-0.15172754,0.02574421,0.04939721,0.00060320,-0.01518670,-0.00129983,0.99197171,0.10219477,-0.03156766,0.06746737
1761618586569,-0.05812857,-0.05464521,-0.00163963,-0.01429687,-0.01354624,-0.00288431,0.99197894,0.10211114,-0.03164690,0.06745050
1761618586582,-0.04823061,-0.00052805,0.07314357,-0.02390121,-0.01033934,0.00168088,0.99199143,0.10196295,-0.03171101,0.06746092
1761618586600,-0.19228022,-0.01220025,-0.03001297,-0.00433583,-0.00633793,0.00072074,0.99199320,0.10192328,-0.03176900,0.06746752
1761618586603,14.53962482,-3.13364091,0.02022785,-0.06384460,-0.09606344,0.01629819,0.99199675,0.10182751,-0.03191309,0.06749196
1761618586614,-3.26114825,0.74174440,0.19970692,0.00161601,-0.03882597,-0.00644035,0.99199115,0.10183672,-0.03213440,0.06745525
1761618586634,-0.30174125,0.11366148,0.00312285,0.00024180,-0.01517359,-0.01394422,0.99199537,0.10183909,-0.03228310,0.06731860
1761618586636,32.76602989,-1.59283021,5.20728935,0.00246543,-0.13469972,-0.11009929,0.99199847,0.10184180,-0.03243127,0.06719749
1761618586648,-5.71573920,0.41037191,-1.20214594,0.00638095,-0.03022701,-0.01139966,0.99199348,0.10187817,-0.03260357,0.06713251
1761618586668,-0.33099235,-0.00568176,-0.03294419,0.00287020,-0.00860141,-0.00051436,0.99198789,0.10190774,-0.03269216,0.06712722
1761618586688,-0.01311679,-0.01485961,-0.01220678,-0.00462356,-0.01115779,-0.02164878,0.99200366,0.10186127,-0.03280430,0.06690965
1761618586691,51.38966575,-1.92874107,-6.99307417,-0.08757612,-0.22254423,-0.11009905,0.99201493,0.10175180,-0.03308248,0.06677202
1761618586702,-11.12991032,0.42984178,1.58037392,0.00228470,-0.02975467,-0.00581983,0.99201041,0.10176414,-0.03324315,0.06674060
1761618586713,0.06580285,0.12261155,0.05703322,-0.01320629,-0.02612003,-0.02170792,0.99202173,0.10168688,-0.03339596,0.06661360
1761618586724,0.21165420,-0.23316344,0.08955434,0.02131294,-0.03062355,0.00456772,0.99200357,0.10179664,-0.03355367,0.06663713
1761618586736,-0.27597489,0.11652784,0.02812654,-0.00387302,-0.04163366,0.00429487,0.99199575,0.10177340,-0.03380347,0.06666290
1761618586750,-0.17468317,0.00686771,-0.09371196,0.02156233,-0.02631042,0.00019750,0.99197386,0.10192434,-0.03398764,0.06666428
1761618586759,0.78146073,0.34740435,-0.16284143,0.01745734,-0.03860605,0.00956897,0.99195674,0.10200377,-0.03416330,0.06670782
1761618586774,-0.60266478,-0.14800216,0.01082442,0.02485405,-0.02879714,0.00029980,0.99192976,0.10219142,-0.03438072,0.06671008
1761618586787,0.23680953,-0.05322863,0.04722442,0.00176667,-0.02017325,-0.00069923,0.99192441,0.10220272,-0.03450983,0.06670561
1761618586792,3.15352753,-0.26786727,-0.08045462,-0.04214149,-0.04818580,0.01257407,0.99192976,0.10207841,-0.03465197,0.06674270
1761618586812,-1.22639380,0.02793840,0.07349015,-0.01411004,-0.01684521,-0.00279698,0.99194010,0.10193942,-0.03481790,0.06671515
1761618586814,35.00813223,1.87017060,-2.93179064,0.01235243,-0.12061627,0.01853092,0.99193300,0.10195239,-0.03494455,0.06673461
1761618586826,-5.90890336,-0.05587541,0.50321628,0.01743693,-0.01922609,0.00976802,0.99191438,0.10205614,-0.03505894,0.06679273
1761618586840,-0.18675645,0.03426552,-0.04569043,0.01765370,-0.03030968,-0.00984606,0.99189878,0.10217972,-0.03527111,0.06672380
1761618586848,1.43317459,-0.04290244,-0.42964992,0.00330325,-0.07667514,-0.00031755,0.99188640,0.10219310,-0.03558164,0.06672252
1761618586864,-0.52930166,-0.17720532,0.16353514,-0.01363052,-0.01876081,0.00144315,0.99189145,0.10208405,-0.03573173,0.06673406
1761618586878,0.19643043,-0.13563772,-0.09994083,-0.02146725,-0.03363286,-0.00369609,0.99189977,0.10194022,-0.03595707,0.06670930
1761618586882,9.22887850,-1.18811740,-1.79559861,-0.10136864,-0.12033307,0.00228502,0.99191152,0.10173749,-0.03619774,0.06671387
1761618586894,-2.87248815,0.38039809,0.58433483,-0.02483038,-0.02969269,0.00277924,0.99191928,0.10158602,-0.03637886,0.06673082
1761618586905,0.08619195,0.10144501,-0.05125839,-0.01545853,-0.04324875,0.00461945,0.99191742,0.10149636,-0.03662971,0.06675762
1761618586916,0.59174424,0.37003492,-0.14011199,-0.00715878,-0.02249341,-0.01109739,0.99192079,0.10145913,-0.03674667,0.06669991
1761618586929,-0.70899549,-0.16230362,-0.01840740,-0.01319336,-0.05089488,0.00210673,0.99191632,0.10137338,-0.03707749,0.06671360
1761618586943,0.04994440,0.03562198,0.04064454,-0.01437487,-0.03204318,-0.00617959,0.99192113,0.10127203,-0.03730339,0.06667004
1761618586950,2.43594254,-0.32867923,-0.80022228,-0.02415611,-0.08933350,0.00531854,0.99191683,0.10118990,-0.03760713,0.06668812
1761618586983,-0.78439060,0.02240968,0.30182300,-0.01156965,-0.01809029,-0.00468395,0.99193008,0.10099958,-0.03790471,0.06661107
1761618586984,148.05292531,1.92892006,-31.51945735,-0.27150491,-0.69018556,0.01461311,0.99193012,0.10075523,-0.03852588,0.06662422
1761618586996,-22.74685659,-0.31418500,4.71200141,0.00452592,-0.03718465,-0.01778304,0.99192615,0.10078035,-0.03873225,0.06652553
1761618587002,1.31345646,-0.54818702,-0.96395079,0.02241925,-0.10158646,-0.03370956,0.99191314,0.10085321,-0.03906241,0.06641597
1761618587019,-0.80756004,0.16488887,0.45683418,-0.00458435,-0.02245019,0.00404037,0.99190713,0.10081333,-0.03925773,0.06645112
1761618587033,0.25870274,0.14958739,0.07489623,-0.00624928,-0.03947006,0.00598496,0.99189793,0.10077021,-0.03953007,0.06649242
1761618587045,1.74824818,0.04911671,-0.55519284,0.02029157,-0.10036862,-0.00047979,0.99186095,0.10089399,-0.04014232,0.06648949
1761618587075,-1.08514177,-0.06251106,0.25750318,0.01118014,-0.01184328,0.00322543,0.99183361,0.10106057,-0.04031878,0.06653755
1761618587078,49.34803103,-5.14555853,-17.26164836,0.00467983,-0.30882142,-0.22252992,0.99183621,0.10106735,-0.04076657,0.06621488
1761618587109,-4.59696878,0.49949011,1.62156765,-0.01985335,-0.01797174,-0.00658722,0.99186293,0.10075864,-0.04104603,0.06611245
1761618587112,218.75764095,-23.84557310,-45.04294329,-0.41054850,-0.54705846,0.13589981,0.99187078,0.10043020,-0.04148368,0.06622117
1761618587142,-11.28222862,1.13817146,2.27707582,-0.01306637,-0.02036049,-0.00156173,0.99187960,0.10022832,-0.04179825,0.06619704
1761618587144,148.22511714,-29.08552885,-22.97626821,-0.59368802,-0.57046162,0.08039944,0.99190685,0.09969400,-0.04231167,0.06626940
1761618587176,-8.18960223,1.67281139,1.32371472,-0.02256563,-0.02078338,-0.01258878,0.99194304,0.09932505,-0.04265147,0.06606357
1761618587211,0.11457408,-0.02380602,-0.01795224,-0.01003831,-0.01284072,-0.01513519,0.99196824,0.09915139,-0.04287362,0.06580173
1761618587244,0.34458313,-0.11154523,0.00602363,-0.01165628,-0.01431549,-0.02248264,0.99200235,0.09895557,-0.04311412,0.06542403
1761618587276,-0.14659124,0.08723714,0.13261507,-0.01275635,-0.02767526,-0.05004233,0.99205450,0.09875657,-0.04354585,0.06464337
1761618587298,0.55473272,0.18854557,-0.06666138,-0.01244364,-0.03966594,-0.05905020,0.99209082,0.09862031,-0.04398020,0.06399677
1761618587330,-0.40427470,-0.11837500,0.05491130,-0.01405608,-0.03774718,-0.03693508,0.99212424,0.09839471,-0.04458604,0.06340396
1761618587359,0.03462689,0.11354592,-0.04033065,-0.00187172,-0.02717984,-0.02562174,0.99213296,0.09836710,-0.04498694,0.06302604
1761618587371,2.52726185,0.49023939,0.44800129,0.07569259,0.01114350,-0.07078703,0.99211813,0.09880990,-0.04492175,0.06261193
1761618587393,-1.59984985,-0.19433725,-0.12043931,0.04011841,0.01761086,-0.04054767,0.99211098,0.09924519,-0.04473067,0.06217199
1761618587415,-0.20139259,-0.05804353,0.02768996,0.02116489,-0.00030097,-0.03581645,0.99211217,0.09948753,-0.04473412,0.06176189
1761618587449,-0.09877935,-0.00517880,-0.00141816,0.02467741,-0.00125798,-0.01685654,0.99208745,0.09989717,-0.04475500,0.06148207
1761618587450,95.81738380,48.88521308,72.65350490,0.33636979,0.00376031,-0.26818697,0.99207372,0.10016627,-0.04475199,0.06126752
1761618587494,-3.58222812,-1.79736595,-2.73065292,0.00273358,0.00372307,-0.00455566,0.99207748,0.10022572,-0.04467102,0.06116844
1761618587504,1.37727631,0.15839583,0.61092855,0.07022012,0.00494407,-0.02235374,0.99204939,0.10058384,-0.04464580,0.06105443
1761618587516,-0.42626476,0.01253626,-0.26931127,0.05856268,0.02645209,-0.02585223,0.99202989,0.10094400,-0.04448312,0.06089544
1761618587538,-0.24960948,-0.06410019,-0.19215457,0.02636062,0.01526185,-0.00366074,0.99201042,0.10123265,-0.04431600,0.06085536
1761618587560,-0.21912000,-0.05617127,-0.04095231,0.02069433,0.00779195,-0.00194223,0.99199230,0.10146029,-0.04423029,0.06083399
1761618587571,0.11866527,-0.15165280,0.12893229,0.00882847,0.02891062,-0.05267475,0.99201231,0.10150929,-0.04406984,0.06054165
1761618587582,-0.12587795,-0.13374599,-0.04929445,-0.02250135,0.01710341,-0.00763973,0.99203206,0.10138328,-0.04397406,0.06049887
1761618587604,-0.07166916,0.02806803,-0.03375722,-0.00348300,0.01356401,0.01672678,0.99203136,0.10134636,-0.04383028,0.06067617
1761618587626,-0.01714636,0.04880021,-0.03008847,0.00857271,0.01708536,-0.00410075,0.99203277,0.10144109,-0.04364149,0.06063086
1761618587649,0.00211249,0.11915697,0.05245491,0.05478964,0.02660982,0.01272982,0.99197286,0.10206843,-0.04333681,0.06077661
1761618587689,-0.02571044,-0.03884716,0.00465830,-0.00131781,-0.00521879,-0.02781623,0.99200478,0.10204221,-0.04344066,0.06022307
1761618587716,0.04183502,0.02586077,-0.00220406,-0.01065969,0.01085641,0.02375208,0.99200651,0.10189404,-0.04328975,0.06055322
1761618587726,-0.08558390,-0.09814769,0.42255786,-0.00380152,0.02916904,0.06001426,0.99199696,0.10187598,-0.04315120,0.06083829
1761618587749,-0.03206775,-0.04932840,-0.06382426,-0.01006282,0.00453131,-0.00117659,0.99201212,0.10175875,-0.04309841,0.06082459
1761618587771,-0.10195969,0.02641597,-0.01035199,0.01880368,0.01246923,0.00350181,0.99199471,0.10196277,-0.04296312,0.06086258
1761618587792,-0.00645051,0.04650202,0.08175988,0.03051549,0.02990709,0.00743005,0.99197014,0.10228776,-0.04264461,0.06094171
1761618587803,-0.13051426,-0.12860219,0.25299987,0.02015793,0.02519113,-0.00406039,0.99196598,0.10239963,-0.04250480,0.06091917
1761618587815,0.06264164,-0.04519101,-0.07775759,0.03757930,0.00423522,-0.00132625,0.99194480,0.10261947,-0.04248002,0.06091142
1761618587826,0.03584376,0.02267139,0.04739904,-0.01184424,0.00810074,0.00310332,0.99195281,0.10255078,-0.04243304,0.06092942
1761618587838,0.02476827,0.02422118,-0.08487546,-0.00223365,-0.00013638,-0.02169632,0.99196192,0.10253771,-0.04243384,0.06080249
1761618587850,0.06939552,0.03562238,0.10421308,-0.00896463,-0.00166314,0.00143236,0.99196629,0.10248661,-0.04244332,0.06081066
1761618587873,0.03220103,0.01654250,-0.19450990,0.00434485,-0.00381120,0.00231537,0.99195754,0.10253701,-0.04248753,0.06083751
1761618587883,-0.33606229,0.37254444,0.99489851,0.04540851,0.00101767,0.01352814,0.99193012,0.10276405,-0.04248244,0.06090516
1761618587916,0.10178492,-0.08401368,-0.30582205,0.00651296,0.00188441,0.00334428,0.99191692,0.10287152,-0.04245135,0.06096034
1761618587927,-0.82374024,0.14504429,2.59201465,0.04273504,-0.01186465,0.01957929,0.99188371,0.10310229,-0.04251542,0.06106606
1761618587939,0.47536544,-0.20015387,-1.45008578,-0.01773100,-0.01404813,-0.00308260,0.99189228,0.10299590,-0.04259970,0.06104757
1761618587960,0.07746323,0.01099197,-0.22227252,0.01308152,-0.00220460,0.00446733,0.99187396,0.10313457,-0.04262307,0.06109492
1761618587971,-0.16223877,0.23055662,0.57744131,0.00863455,-0.00578301,0.00977596,0.99186407,0.10318335,-0.04265575,0.06115016
1761618587981,-0.01981688,0.10811867,-0.16635627,0.02824996,-0.01526769,-0.00938812,0.99184837,0.10333025,-0.04273514,0.06110134
1761618587992,0.19538743,-0.05962865,-0.08965353,0.02460482,-0.00874758,-0.00340485,0.99183321,0.10346681,-0.04278369,0.06108244
1761618588004,-0.01993518,-0.07590577,-0.03396938,0.01317484,-0.02752222,-0.02998914,0.99182899,0.10354388,-0.04294469,0.06090700
1761618588015,0.06648663,-0.07195379,0.19032302,-0.01190137,-0.01326582,0.00604536,0.99183064,0.10347783,-0.04301832,0.06094056
1761618588027,-0.02003095,-0.03738320,-0.08318612,-0.00757725,-0.02292231,-0.01012221,0.99183305,0.10343388,-0.04315127,0.06088185
1761618588050,0.05738911,-0.02595261,-0.24127690,-0.00134538,-0.01171323,-0.00359603,0.99183135,0.10341854,-0.04328480,0.06084085
1761618588060,-0.58635884,0.68018623,2.03192364,0.04631265,-0.05460168,-0.00571053,0.99179801,0.10364316,-0.04354962,0.06081316
1761618588070,0.19050571,-0.17650157,-1.39752971,0.04913878,-0.01059653,-0.00050371,0.99176817,0.10390605,-0.04360631,0.06081046
1761618588082,0.04983836,-0.16890120,-0.08830017,0.03888795,0.00672056,0.00173876,0.99174464,0.10414132,-0.04356565,0.06082098
1761618588093,-0.11059420,-0.05929466,0.11557903,0.01208632,-0.01048932,-0.00996818,0.99173842,0.10420840,-0.04362386,0.06076566
1761618588095,-29.18972175,18.06858138,79.22888588,0.14017449,-0.18164534,-0.11965609,0.99172841,0.10429952,-0.04374193,0.06068788
1761618588106,3.61657520,-2.08726530,-9.36074790,0.02406877,-0.02193067,0.00461183,0.99170779,0.10443069,-0.04386146,0.06071302
1761618588117,0.13979986,0.08624781,0.06534871,0.05683908,-0.01875698,-0.00629108,0.99167140,0.10475183,-0.04396743,0.06067747
1761618588127,0.06886606,-0.04869964,-0.12174879,0.06344723,-0.02588039,0.00196504,0.99162909,0.10508810,-0.04410460,0.06068789
1761618588139,-0.03126900,0.01044087,-0.11076671,0.05320961,-0.02510469,-0.01595152,0.99159696,0.10538341,-0.04424393,0.06059936
1761618588150,-0.04159830,0.04897620,0.30880668,0.03749852,-0.02153519,-0.00913780,0.99157236,0.10559341,-0.04436453,0.06054818
1761618588160,-0.21931063,0.01023821,0.04890183,0.05096711,-0.03363169,0.03324063,0.99152524,0.10586098,-0.04454109,0.06072270
1761618588171,-0.01330021,0.07147983,-0.09678351,0.05271635,-0.01292351,0.01082023,0.99148740,0.10615092,-0.04461217,0.06078221
1761618588182,-0.08746638,0.06472690,-0.12804563,0.08534801,0.00170059,-0.00580882,0.99144116,0.10660327,-0.04460316,0.06075142
1761618588193,-0.03401909,-0.08350681,-0.21427961,0.06794304,-0.00576905,0.02036626,0.99139172,0.10698375,-0.04463547,0.06086547
1761618588204,0.03763964,-0.24734265,0.04930892,0.07725546,0.01469400,0.00977164,0.99134736,0.10739707,-0.04455685,0.06091775
1761618588215,0.01415904,-0.02520111,0.01835536,-0.01135760,-0.00741481,-0.03646851,0.99136538,0.10733176,-0.04459949,0.06070806
1761618588227,-0.06571823,-0.27064871,-0.29106648,0.00079879,-0.01372708,-0.04331665,0.99137693,0.10733651,-0.04468116,0.06045032
1761618588239,0.02127694,0.12615290,0.04520186,-0.00769087,0.00293279,0.01492945,0.99137726,0.10729037,-0.04466357,0.06053990
1761618588260,0.07550749,0.00680938,-0.23373057,0.01979553,0.00613907,0.01148483,0.99135091,0.10749327,-0.04460064,0.06065762
1761618588261,-79.10410104,25.49594984,82.18549466,0.14692774,0.73817148,0.33619890,0.99134844,0.10759612,-0.04408392,0.06089296
1761618588271,10.64879067,-3.65627086,-11.20032172,0.01775985,0.06087260,0.03370920,0.99134199,0.10768403,-0.04378260,0.06105982
1761618588282,0.15465810,-0.08695120,-0.09180809,0.00886895,0.04351701,0.00630983,0.99134512,0.10773325,-0.04354108,0.06109484
1761618588293,-0.13518330,0.00845353,0.15696811,0.00463148,0.04134466,0.00942359,0.99134911,0.10775873,-0.04331369,0.06114667
1761618588303,-0.37833539,-0.05343958,0.44737895,0.01429518,0.09029599,-0.00617318,0.99136341,0.10783306,-0.04284415,0.06111457
1761618588316,0.09886606,0.08079341,-0.25200257,0.01633690,0.04610649,-0.00279583,0.99136590,0.10794007,-0.04254215,0.06109625
1761618588328,0.13036350,0.09624794,0.26639473,0.03306954,0.08516026,0.03263807,0.99135489,0.10812361,-0.04206951,0.06127740
1761618588338,-0.26141734,0.06587122,-0.03121737,0.03830979,0.07167616,0.02678852,0.99134013,0.10832473,-0.04169321,0.06141804
1761618588350,-0.00451186,-0.10592008,-0.16939105,0.03938684,0.07993579,0.03221694,0.99132294,0.10855318,-0.04122958,0.06160489
1761618588360,-0.34702030,-0.24493963,0.02555989,0.01489946,0.09657846,0.05765035,0.99131641,0.10863214,-0.04071772,0.06191044
1761618588371,0.02758492,-0.07983712,0.16013841,-0.02378626,0.06621552,0.01779387,0.99133867,0.10850608,-0.04036678,0.06200475
1761618588383,0.34171893,0.02637519,-0.06299149,0.01706575,0.05313799,0.01302270,0.99133553,0.10860762,-0.04005061,0.06208223
1761618588393,-0.04387711,0.33377833,0.21123958,0.03065662,0.02327013,0.01169567,0.99131928,0.10876550,-0.03993076,0.06214247
1761618588407,0.27276969,0.05890190,-0.31506984,0.05293734,-0.00088936,-0.00592640,0.99128255,0.10912018,-0.03993672,0.06210276
1761618588417,-0.06158965,0.25102508,0.33991550,0.02666859,0.01574228,0.00852699,0.99126765,0.10926019,-0.03985408,0.06214753
1761618588439,0.23227035,-0.07857156,-0.41943405,0.01279678,0.00719923,0.01513556,0.99124527,0.10939839,-0.03977632,0.06231099
1761618588440,-56.48950492,21.88818844,39.08589337,0.25713376,0.00236436,0.16954903,0.99121018,0.10962981,-0.03977420,0.06246358
1761618588462,4.83566531,-1.91670424,-3.33174840,0.00435508,0.00197601,0.00892371,0.99119990,0.10967620,-0.03975315,0.06255862
1761618588472,-0.49947276,-0.07115237,0.85363049,0.01091699,0.01280290,0.01402729,0.99119136,0.10973515,-0.03968402,0.06263437
1761618588483,0.03091633,0.00619604,-0.17992475,-0.00370695,0.00590839,0.00624413,0.99119272,0.10971513,-0.03965211,0.06266809
1761618588494,-0.07623219,-0.00019974,-0.13541262,0.00580486,0.00343606,0.00519094,0.99118818,0.10974677,-0.03963338,0.06269638
1761618588496,-33.06126848,1.75139851,30.72955913,0.04341221,0.17035751,0.10659939,0.99118414,0.10978367,-0.03948858,0.06278699
1761618588506,5.35971848,-0.27116192,-5.07722699,0.00026664,0.03714188,0.01445499,0.99118687,0.10978504,-0.03929730,0.06286143
1761618588527,0.26379202,-0.03179485,-0.22410100,0.00861267,0.01912826,0.01034920,0.99117798,0.10987461,-0.03909837,0.06296906
1761618588528,-50.39770973,6.24340671,66.27507829,-0.20513057,0.37217978,0.23037944,0.99119387,0.10973102,-0.03883784,0.06313033
1761618588539,6.52347293,-1.04249588,-8.63830692,-0.00837875,0.04484817,0.01648166,0.99120202,0.10968913,-0.03861360,0.06321274
1761618588561,0.25408796,0.03631556,-0.28864350,-0.01173918,0.02083995,0.00123096,0.99122515,0.10955530,-0.03837602,0.06322677
1761618588563,-93.88678554,-20.38145938,80.02117468,-0.13783970,0.31694532,0.09910729,0.99123994,0.10945881,-0.03815416,0.06329614
1761618588573,12.19997278,2.72470806,-10.45545527,0.01620177,0.02104827,0.00022290,0.99123487,0.10954144,-0.03804682,0.06329728
1761618588584,0.06826997,0.05173121,-0.01104204,0.00840124,0.02652980,0.01713409,0.99122923,0.10958849,-0.03789825,0.06339323
1761618588628,0.18790794,0.02190768,-0.17694162,0.00201410,0.00395193,0.00132646,0.99122577,0.10963300,-0.03781091,0.06342255
1761618588639,-5.11491081,-0.44889752,4.51913716,-0.03589019,0.08277237,0.06492706,0.99124091,0.10944817,-0.03738463,0.06375692
1761618588662,1.84156400,0.15414489,-1.55938228,-0.00470532,0.00968553,0.00045633,0.99125091,0.10939311,-0.03727131,0.06376226
1761618588683,-0.06293010,-0.03982881,0.06096305,0.00406752,0.01672126,0.00790251,0.99124748,0.10943542,-0.03709741,0.06384445
1761618588693,-0.19103883,0.21801867,0.24994242,0.03981445,0.04416710,0.03808807,0.99121987,0.10964643,-0.03686333,0.06404631
1761618588705,0.29268235,-0.02605075,-0.28019752,0.04518756,0.02237209,0.01991667,0.99118791,0.10991078,-0.03673245,0.06416283
1761618588717,0.70777522,-0.23686848,-0.27850552,0.02704328,-0.00041740,-0.00082606,0.99117058,0.11006898,-0.03673489,0.06415799
1761618588727,0.03143288,0.00476518,0.10039115,-0.00177713,-0.03088312,0.01084559,0.99116191,0.11005965,-0.03689703,0.06421493
1761618588739,-0.01684797,-0.06032662,-0.18262425,0.03026283,-0.00915201,-0.00106505,0.99113973,0.11024426,-0.03695285,0.06420844
1761618588750,-0.30218224,0.23201895,0.18323914,0.01647525,0.00654401,-0.01365268,0.99113589,0.11033405,-0.03691719,0.06413403
1761618588761,-0.17936449,0.12719542,0.11275715,0.01474596,0.02931603,0.00810140,0.99113013,0.11041294,-0.03676035,0.06417737
1761618588771,-0.23384008,0.22881916,0.05456516,0.03585511,-0.00957433,0.03597100,0.99109603,0.11059580,-0.03680918,0.06436082
1761618588783,0.26518776,-0.02144725,-0.29759003,0.04637333,0.00447964,0.01445007,0.99105971,0.11087868,-0.03678185,0.06444897
1761618588795,-0.08741442,0.06090150,0.04799359,0.00716542,-0.01473622,-0.03040912,0.99106324,0.11091916,-0.03686511,0.06427716
1761618588806,0.04446975,0.02172209,0.00702283,-0.01194165,-0.00028108,-0.01082409,0.99107429,0.11085408,-0.03686664,0.06421817
1761618588817,0.16576919,0.13785387,0.01062984,-0.03225797,-0.00883601,0.00575354,0.99109128,0.11066537,-0.03691833,0.06425182
1761618588829,-0.18721266,0.01689906,0.11560664,-0.01590014,-0.02009423,0.01591137,0.99109123,0.11057474,-0.03703287,0.06434252
1761618588839,-0.01419116,0.22287809,0.06247890,-0.00810360,-0.03429852,0.01668464,0.99108369,0.11053300,-0.03720951,0.06442844
1761618588850,0.09017695,-0.12710584,-0.19899994,0.01630595,-0.02276017,0.02383916,0.99106044,0.11062269,-0.03733469,0.06455956
1761618588861,0.22221476,0.10231486,-0.11673774,-0.01590347,-0.01629277,0.04438345,0.99105098,0.11053601,-0.03742349,0.06480145
1761618588872,0.09021767,-0.31596157,0.00102814,-0.00925103,-0.01868188,0.02285045,0.99104448,0.11048467,-0.03752717,0.06492827
1761618588883,0.13729777,-0.21804434,0.01442363,-0.03582587,-0.02211182,-0.00065394,0.99106253,0.11028225,-0.03765210,0.06492457
1761618588894,0.06529392,-0.04411513,-0.02261585,-0.03315727,-0.02504689,0.00180310,0.99107679,0.11010155,-0.03778861,0.06493440
1761618588906,0.10525980,0.16193018,-0.10015548,-0.00291439,-0.03068257,0.00462649,0.99107010,0.11008464,-0.03796657,0.06496124
1761618588918,0.08140741,0.08942097,-0.15082612,0.05949240,-0.02872327,0.00541027,0.99102205,0.11043862,-0.03813747,0.06499343
1761618588939,0.05434889,-0.12482719,-0.16001679,0.02193936,-0.01484076,0.00868527,0.99098328,0.11067557,-0.03829775,0.06508723
1761618588950,0.92310670,-0.20959556,0.34628424,0.04326405,-0.16207003,-0.06726324,0.99094708,0.11090703,-0.03916482,0.06472737
1761618588952,39.57896960,-3.56290942,17.67295512,0.13957890,-1.13755276,-0.34400139,0.99091809,0.11101171,-0.04001799,0.06446937
1761618588962,-5.38810579,0.61817237,-2.32331888,0.00974565,-0.15155178,-0.01832703,0.99088555,0.11106385,-0.04082879,0.06437132
1761618588974,-0.09309810,0.00040984,-0.16653185,-0.00177093,-0.15921639,-0.01688222,0.99085457,0.11105358,-0.04175225,0.06427340
1761618588984,0.40082015,-0.00002330,0.09150745,0.00358135,-0.18453079,-0.01588641,0.99081657,0.11107238,-0.04272103,0.06419000
1761618588995,0.41484936,0.05547906,0.01626240,0.01740244,-0.21800475,0.00561655,0.99075321,0.11116549,-0.04388736,0.06422005
1761618589007,0.24059624,0.01094940,-0.06041271,-0.00273201,-0.23364017,0.02532075,0.99068510,0.11114978,-0.04523079,0.06436564
1761618589018,0.19801967,-0.10039711,-0.13351763,0.02086812,-0.24166439,0.01444315,0.99060401,0.11126664,-0.04658411,0.06444652
1761618589028,1.54157750,-0.20573570,-0.42574324,-0.00553249,-0.29353832,0.00303463,0.99053256,0.11123759,-0.04812519,0.06446245
1761618589040,-1.20727474,-0.05219177,0.39219652,-0.00654124,-0.29537104,-0.03061946,0.99046547,0.11120064,-0.04979403,0.06428945
1761618589051,-0.63216698,0.15571651,-0.14773034,-0.03349425,-0.30429404,-0.05434818,0.99041608,0.11100135,-0.05160458,0.06396608
1761618589063,0.33561275,0.57193789,0.48860435,-0.06911470,-0.26767714,-0.03105089,0.99039159,0.11061776,-0.05309019,0.06379375
1761618589074,0.65492772,-0.55448496,-0.51280947,-0.01470888,-0.24455376,0.04091663,0.99031308,0.11053686,-0.05443524,0.06401879
1761618589084,-0.02779338,-0.19033308,0.20393181,-0.02275717,-0.24152038,0.02067231,0.99024888,0.11041739,-0.05570322,0.06412732
1761618589095,-0.63436896,0.16077732,0.18626820,-0.07151619,-0.21585391,-0.00203243,0.99022502,0.11000974,-0.05693358,0.06411574
1761618589106,0.47556130,-0.42591097,-0.37106239,-0.02677674,-0.20633486,0.00882975,0.99017378,0.10986649,-0.05803748,0.06416298
1761618589118,-0.23549471,-0.09465636,0.15729507,-0.04063698,-0.17135966,-0.00282205,0.99014083,0.10962063,-0.05907420,0.06414590
1761618589128,0.25846313,0.50355840,0.02679144,-0.09188908,-0.19292834,-0.01187437,0.99013729,0.10914740,-0.06006778,0.06408475
1761618589140,-0.34384941,-0.25779798,-0.35036231,-0.03995651,-0.14647045,-0.01493893,0.99011760,0.10892764,-0.06087337,0.06400258
1761618589197,-0.35583369,0.06103181,-0.01035934,-0.00854348,-0.02257311,-0.00064710,0.99010566,0.10868159,-0.06152348,0.06398395
1761618589207,11.37858906,-3.44253285,1.17252466,-0.42527012,-0.22319094,-0.13188022,0.99029916,0.10666156,-0.06258363,0.06335752
1761618589240,-3.22269539,0.88115325,-0.32728820,-0.01676321,0.08209821,-0.03836463,0.99045667,0.10637994,-0.06120438,0.06271299
1761618589272,0.02000729,0.05433014,0.02747151,-0.03620902,0.04158231,-0.03499031,0.99059360,0.10580602,-0.06054530,0.06215840
1761618589283,0.45489983,0.21673160,0.02571915,0.01457404,0.06409665,0.00641527,0.99060469,0.10588910,-0.06017995,0.06219496
1761618589296,-0.17017252,0.22237826,-0.12573553,0.06010568,0.02909348,-0.03244564,0.99058807,0.10626776,-0.05999666,0.06199055
1761618589317,-0.15495070,-0.05171806,0.00416998,0.01296376,0.00008515,0.00324079,0.99057107,0.10640647,-0.05999575,0.06202523
1761618589328,0.45351038,-0.04717564,-0.12880039,-0.01344774,0.02310683,0.01373837,0.99058177,0.10633386,-0.05987098,0.06209942
1761618589339,-0.12567223,-0.09128000,-0.03539261,0.00566078,-0.01493300,-0.00934723,0.99057659,0.10636556,-0.05995460,0.06204707
1761618589351,0.01009409,0.04183850,-0.01956514,0.00923962,-0.00371146,0.00171332,0.99056857,0.10642146,-0.05997705,0.06205744
1761618589363,0.07033379,0.12304364,0.12372106,0.03334268,-0.01700161,0.00883014,0.99053989,0.10660651,-0.06007141,0.06210645
1761618589374,0.00300594,0.00399449,-0.04652817,0.05817406,-0.01255921,0.01051946,0.99049604,0.10693810,-0.06014300,0.06216641
1761618589385,-0.01177409,-0.15893256,-0.09522204,-0.00558663,-0.01657882,-0.01598023,0.99049930,0.10690765,-0.06023336,0.06207932
1761618589396,0.02177829,-0.10237281,0.00446220,-0.01692401,-0.00270381,0.01248421,0.99050417,0.10681372,-0.06024836,0.06214860
1761618589436,-0.15417332,0.01140178,0.04339075,-0.00155302,0.00090689,0.00459760,0.99050285,0.10678266,-0.06023022,0.06224055
1761618589470,0.20708438,-0.08419370,0.00459201,-0.02387289,0.02356878,0.01704583,0.99055269,0.10637563,-0.05982838,0.06253119
1761618589499,0.03586568,-0.01980403,0.00916863,-0.04905453,0.03097786,-0.00422058,0.99065787,0.10567660,-0.05938694,0.06247104
1761618589519,0.00715909,0.03813554,0.00378305,-0.01297933,0.03195983,-0.00650155,0.99069491,0.10554681,-0.05906734,0.06240603
1761618589541,-0.00092740,-0.11115439,0.03375135,-0.02088231,0.03590542,0.00298069,0.99074222,0.10530980,-0.05865982,0.06243986
1761618589552,1.50991509,-0.11208479,0.30737689,0.03668090,0.05453379,-0.03459863,0.99075029,0.10550787,-0.05836533,0.06225303
1761618589574,-0.55303752,0.28293199,-0.04245559,0.01296656,0.00306879,-0.05457680,0.99077451,0.10564986,-0.05833173,0.06165541
1761618589596,0.05729894,-0.08755081,0.07106104,-0.02402334,0.00464895,-0.01590378,0.99081615,0.10538800,-0.05828106,0.06148206
1761618589607,0.06408967,0.15326335,0.11201582,-0.02053375,0.01848432,-0.03637320,0.99084625,0.10527609,-0.05818032,0.06128382
1761618589618,-0.63987361,-0.06157231,0.37995881,0.01573197,0.01442233,-0.02545570,0.99085054,0.10536655,-0.05809739,0.06113745
1761618589630,-0.09203738,0.00504878,-0.14743634,-0.00678281,-0.00565076,-0.01955276,0.99085979,0.10532721,-0.05813016,0.06102405
1761618589640,0.16305376,-0.05675899,-0.00628601,-0.03079946,0.01486416,-0.04281439,0.99089570,0.10516398,-0.05805138,0.06079713
1761618589652,0.36003299,-0.01719533,-0.25259601,-0.02613452,0.02156081,-0.03339334,0.99093004,0.10501632,-0.05792957,0.06060846
1761618589663,-0.11323052,-0.03455831,-0.02679918,-0.02713659,0.00595322,-0.03659208,0.99096005,0.10486706,-0.05789682,0.06040720
1761618589674,0.20366371,-0.05391972,0.21647976,-0.03426278,0.01739624,-0.05157622,0.99100475,0.10467005,-0.05779679,0.06011064
1761618589685,0.17377013,-0.03593038,0.04510305,-0.02216290,0.00212260,-0.05332100,0.99103605,0.10454816,-0.05778512,0.05981737
1761618589707,-0.36633299,0.12778369,-0.14011282,-0.00580321,-0.00640429,-0.03239241,0.99106033,0.10448374,-0.05785621,0.05945782
1761618589718,2.04225179,0.15216987,1.07136356,0.02307869,-0.07610216,-0.06914974,0.99104572,0.10460606,-0.05825955,0.05909133
1761618589730,-1.24478190,0.02635247,-0.51118525,-0.02784393,-0.03886114,-0.02999195,0.99105971,0.10444596,-0.05848300,0.05891887
1761618589731,45.71157953,-1.92905250,40.82385694,-0.15070902,-0.40578866,-0.11329331,0.99105828,0.10429525,-0.05888879,0.05880558
1761618589773,-2.53049008,0.06890593,-2.16921523,-0.00513889,-0.01816178,-0.00297201,0.99105074,0.10418939,-0.05926292,0.05874435
1761618589803,0.64128288,0.08354066,0.49478624,-0.00524866,-0.07622751,-0.02763507,0.99101422,0.10411013,-0.06041396,0.05832707
1761618589843,-0.25378622,0.01838184,-0.19563284,0.03244634,-0.03506565,-0.02167219,0.99092695,0.10476879,-0.06112579,0.05788712
1761618589863,1.07035445,-0.23019413,0.94852243,0.02944110,-0.05755165,-0.06220934,0.99089626,0.10506320,-0.06170131,0.05726503
1761618589885,-0.90316702,-0.06710006,-0.57946540,0.01339447,-0.03498933,-0.01180478,0.99086437,0.10520920,-0.06208269,0.05713635
1761618589907,-0.00204744,0.19578716,-0.04987140,0.00647636,-0.04531935,-0.00111887,0.99082633,0.10528012,-0.06257894,0.05712410
1761618589918,0.77291472,0.73110189,0.42911123,0.14543204,-0.08641283,-0.00084699,0.99071114,0.10608000,-0.06305421,0.05711944
1761618589940,-0.52534058,-0.42847672,-0.54574128,0.01604319,-0.02911743,-0.01895886,0.99068342,0.10625888,-0.06337887,0.05690805
1761618589951,0.64839574,0.61401099,1.14963208,-0.01976315,-0.06644787,-0.06706802,0.99069216,0.10615710,-0.06372107,0.05656265
1761618589963,-0.15783154,0.11706399,-0.38059147,-0.01572620,-0.07206707,-0.02481256,0.99068301,0.10606431,-0.06414627,0.05641626
1761618589975,0.02859242,-0.13970264,-0.57087977,0.06223816,-0.09644951,-0.00329401,0.99060580,0.10644085,-0.06472979,0.05639633
1761618589986,0.48206625,0.45067102,0.25420397,0.06488810,-0.12161223,0.00493678,0.99052038,0.10680423,-0.06541082,0.05642398
1761618589997,0.24262320,0.43140512,0.11148411,0.08223053,-0.18605314,0.01171574,0.99040413,0.10724005,-0.06639690,0.05648607
1761618590009,-0.26483929,-0.55661901,-0.29695101,0.10483024,-0.19285417,0.01746883,0.99024775,0.10788475,-0.06758295,0.05659350
1761618590020,0.33884175,0.54403024,0.70178066,0.10062458,-0.27485000,-0.00110678,0.99008180,0.10844322,-0.06910837,0.05658736
1761618590031,0.58269454,-0.49301667,-0.24351504,0.13339585,-0.33062562,-0.00587410,0.98987249,0.10918357,-0.07094334,0.05655476
1761618590041,0.75815544,-0.44014760,0.70720372,0.10252398,-0.44000457,-0.00707603,0.98966204,0.10968593,-0.07309936,0.05652009
1761618590052,-0.27362692,0.34310277,0.04837557,0.03081912,-0.41679811,-0.04575308,0.98948233,0.10985852,-0.07543343,0.05626387
1761618590064,0.50027431,-0.15882664,-0.09836976,0.04894217,-0.44520913,0.01245687,0.98924022,0.11014973,-0.07808243,0.05633799
1761618590075,1.35650417,0.20873783,0.38771313,0.05803246,-0.58545242,0.08701729,0.98892674,0.11046020,-0.08121460,0.05680353
1761618590085,0.36414745,-0.00107695,-0.07925235,0.11346597,-0.66558321,0.07294557,0.98853363,0.11107292,-0.08480875,0.05719744
1761618590097,5.10621688,1.26472556,2.02503086,0.16043526,-1.39076770,0.22923952,0.98762544,0.11200344,-0.09287520,0.05852702
1761618590107,-5.61331135,-0.76974244,-1.99797042,0.10211563,-0.69837638,0.13294041,0.98717119,0.11253955,-0.09654168,0.05922496
1761618590119,-0.79196537,-0.65178553,-0.84781032,0.12310318,-0.60440168,0.12315571,0.98669726,0.11325355,-0.10004721,0.05993926
1761618590130,1.44059681,1.09464062,1.35692201,0.10572373,-0.75730659,0.11826284,0.98616432,0.11382974,-0.10417453,0.06058380
1761618590141,0.09858580,-0.60543644,-0.75373269,0.23008962,-0.80320333,0.09730009,0.98551978,0.11507223,-0.10851183,0.06110922
1761618590153,-0.01189094,0.19330079,0.20552745,0.25090104,-0.71491830,0.08251424,0.98482431,0.11659018,-0.11283708,0.06160843
1761618590164,0.24670663,0.43518350,0.52181170,0.28365246,-0.79949609,0.02559715,0.98410258,0.11817863,-0.11731426,0.06175177
1761618590186,-1.46334197,-0.38974860,-0.59340587,0.12615629,-0.43079836,0.01221272,0.98334991,0.11956635,-0.12205304,0.06188611
1761618590197,6.78704790,1.24738729,3.53853318,0.31579457,-1.28955980,0.18214418,0.98216702,0.12130322,-0.12914562,0.06288791
1761618590208,-4.33537586,-1.42675540,-2.43646301,0.15217066,-0.78246964,0.12312496,0.98144413,0.12214016,-0.13344920,0.06356509
1761618590219,-0.89787827,-0.15858350,0.25969710,0.02044331,-0.60095817,0.11888272,0.98091831,0.12225566,-0.13684462,0.06423678
1761618590231,0.10653195,0.72475078,0.15344704,0.06707831,-0.68543357,0.07933814,0.98028223,0.12264136,-0.14078586,0.06469297
1761618590252,-1.28711946,-0.56894495,-0.86312629,0.06251053,-0.28884943,0.01455590,0.97973657,0.12331335,-0.14389099,0.06484945
1761618590263,8.89860998,2.90827767,4.96996849,0.41998546,-1.31433075,0.04026149,0.97839098,0.12553927,-0.15085694,0.06506284
1761618590275,-5.10814409,-1.48926062,-2.80793421,0.21004946,-0.62132638,0.06688021,0.97761297,0.12681007,-0.15461597,0.06546746
1761618590286,-0.05947400,-0.60202785,0.23618132,0.18050511,-0.64787694,0.04443905,0.97690355,0.12779383,-0.15814690,0.06570965
1761618590298,-0.60883302,-0.16953867,-0.06754003,0.09690369,-0.57517187,0.04546390,0.97626059,0.12836071,-0.16151165,0.06597562
1761618590309,-0.14839791,0.04854082,0.20778003,0.04211605,-0.56253997,0.03892334,0.97569353,0.12859446,-0.16463375,0.06619164
1761618590320,-0.32865714,-0.23185768,-0.20475282,0.06274607,-0.50730646,0.03359453,0.97516538,0.12893642,-0.16739857,0.06637473
1761618590331,0.17978293,0.54629957,0.48243321,0.06762058,-0.44638706,0.00357575,0.97468578,0.12931172,-0.16987602,0.06639458
1761618590342,-0.34269909,-0.34097364,-0.30596961,0.12662487,-0.40424151,-0.02579134,0.97418667,0.13004614,-0.17222062,0.06624499
1761618590353,0.52037169,0.42407884,0.77737696,0.09363487,-0.44969672,-0.01971125,0.97371678,0.13052836,-0.17453656,0.06614348
1761618590364,-1.25226536,-0.41317307,-1.07180062,0.08615829,-0.38747048,-0.05206345,0.97327245,0.13101946,-0.17674514,0.06584671
1761618590366,123.70831309,20.49454674,107.64354426,0.56792622,-2.38378151,-0.21029968,0.97284927,0.13150220,-0.17877135,0.06566796
1761618590376,-20.62702261,-3.71512130,-17.94641772,0.08017641,-0.32742154,-0.02399557,0.97249381,0.13191110,-0.18044120,0.06554558
1761618590399,-1.03259421,-0.22302175,-0.91259097,0.03060431,-0.12656279,-0.00937917,0.97217935,0.13226611,-0.18190933,0.06543678
1761618590430,-0.04785359,0.02470496,-0.00708492,0.01232673,-0.09735472,-0.00587629,0.97187589,0.13245718,-0.18341833,0.06534570
1761618590453,0.68117725,-0.60119811,1.58560068,0.02021348,-0.25870584,-0.10937531,0.97136177,0.13268963,-0.18639345,0.06408789
1761618590465,-1.44874562,0.81004023,-2.46771594,0.00005910,-0.09278030,-0.07874364,0.97128834,0.13268997,-0.18693157,0.06363117
1761618590485,-0.31507221,0.08674749,-0.65876251,0.01500293,-0.02941154,-0.01122073,0.97121608,0.13284525,-0.18723598,0.06351504
1761618590497,0.99245353,-0.18194385,1.10648299,0.08320627,-0.04264655,-0.05345031,0.97112568,0.13331121,-0.18747480,0.06321572
1761618590509,-0.96429907,0.29735372,-0.96486952,0.09162032,-0.02358475,-0.01165171,0.97101989,0.13390216,-0.18762692,0.06314056
1761618590543,-0.04076900,0.00410720,-0.12259837,0.01579067,-0.01628201,0.01431481,0.97091470,0.13416744,-0.18790046,0.06338105
1761618590553,2.50526855,-0.20676988,2.78974824,0.06673350,-0.23394562,0.02138649,0.97062599,0.13451112,-0.18910528,0.06349119
1761618590576,-1.06173006,0.10480743,-1.09350246,0.06445761,-0.07718748,0.03483881,0.97032726,0.13524271,-0.18998136,0.06388661
1761618590586,0.19044641,0.29141289,-0.00984015,0.19575643,-0.14106347,0.01134379,0.97004542,0.13623128,-0.19069373,0.06394390
1761618590609,-0.17029408,-0.14285187,-0.20530072,0.06829890,-0.06832448,-0.00579161,0.96978892,0.13700306,-0.19146580,0.06387845
1761618590620,0.07878935,0.07321370,0.31939697,0.07929262,-0.14947821,0.03150263,0.96955524,0.13743521,-0.19228045,0.06405014
1761618590632,-0.50929959,-0.07337702,0.29883730,0.07253959,-0.10863543,0.08940733,0.96932835,0.13787044,-0.19293227,0.06458659
1761618590642,-0.48529565,-0.15362457,0.28135844,0.02999775,-0.08166774,0.11510517,0.96917863,0.13802943,-0.19336511,0.06519664
1761618590653,-0.06550676,-0.14523836,-0.12723638,-0.00273499,-0.04083311,0.10013492,0.96909800,0.13801425,-0.19359173,0.06575239
1761618590664,0.34788189,-0.13447300,-0.45992963,-0.01155706,-0.03611165,0.07483249,0.96904201,0.13795358,-0.19378132,0.06614526
1761618590676,0.06373408,-0.11815765,-0.01868221,-0.01746149,-0.02075117,0.02987659,0.96901920,0.13784619,-0.19390893,0.06632900
1761618590699,0.10915383,0.07056253,-0.08096071,-0.02617438,-0.01722852,0.01178165,0.96901324,0.13755565,-0.19410017,0.06645978
1761618590710,-0.64969595,-0.87138111,1.16225973,-0.13710117,-0.01083391,0.07854403,0.96907891,0.13679474,-0.19416030,0.06689570
1761618590720,0.56697113,1.09909017,-1.00856624,0.01476353,0.04072382,0.06262815,0.96908837,0.13687520,-0.19393835,0.06723702
1761618590731,0.41464402,0.38567361,-0.33799367,0.06399905,0.05819881,0.05362768,0.96908203,0.13723040,-0.19361535,0.06753466
1761618590743,0.12211918,0.01347635,-0.20594579,0.07941349,0.05844517,0.05554952,0.96906186,0.13769100,-0.19327637,0.06785684
1761618590754,-0.02845955,-0.05867498,0.27806770,0.06062243,0.06810423,0.00058682,0.96908859,0.13802139,-0.19290520,0.06786004
1761618590787,-0.04942926,-0.06130656,-0.03047818,0.02215133,0.01107619,0.00342069,0.96906881,0.13838799,-0.19272189,0.06791665
1761618590810,0.18162729,0.22882527,0.26140346,0.12553236,0.01802509,-0.00747456,0.96890669,0.13985045,-0.19251190,0.06782958
1761618590832,0.00545086,-0.15811324,-0.14080626,0.05190846,0.04370892,0.02583771,0.96889988,0.14039808,-0.19205077,0.06810216
1761618590843,-1.58459617,-0.81870940,1.87685848,0.05672964,0.02105728,-0.06131309,0.96890121,0.14071009,-0.19193495,0.06776494
1761618590854,0.28261714,0.18105688,-0.72714510,0.03332569,0.02557332,0.06703792,0.96887567,0.14090005,-0.19178919,0.06814706
1761618590876,0.48211605,0.19745873,-0.80602355,0.05209470,0.03107536,0.04611491,0.96882348,0.14147830,-0.19144425,0.06865893
1761618590888,-0.01137502,-0.16571505,-0.20190351,0.07002579,0.06144629,0.07885860,0.96880211,0.14188095,-0.19109093,0.06911237
1761618590909,-0.04633236,-0.01175759,0.07178065,0.01929036,0.01993676,0.01401094,0.96880323,0.14209121,-0.19087362,0.06926509
1761618590921,0.20582189,-0.90478861,-0.10183857,0.00083154,0.03354795,-0.01169174,0.96884385,0.14209583,-0.19068743,0.06920020
1761618590931,0.39721652,-0.31233817,0.15331276,-0.00241537,0.01920979,-0.00712263,0.96886892,0.14208279,-0.19058370,0.06916174
1761618590942,-0.04829080,-0.09549570,-0.03206611,-0.00473556,0.02315790,-0.01140920,0.96890166,0.14205721,-0.19045865,0.06910013
1761618590953,-0.42862305,0.24147948,-0.05163822,-0.05708377,0.02036132,0.00053238,0.96897190,0.14173184,-0.19034259,0.06910316
1761618590965,-0.32717768,0.09420044,-0.07110386,-0.03334056,0.04602118,-0.01005067,0.96905306,0.14154680,-0.19008717,0.06904738
