UnixTime(ms),Ax,Ay,Az,Gx,Gy,Gz,QuatW,QuatX,QuatY,QuatZ
1761617627456,0.00000000,0.00000000,0.00000000,0.00000000,0.00000000,0.00000000,0.93910637,0.12532643,0.31842022,0.03132205
1761617627460,2.25767797,-2.98266508,-5.44956752,-0.12645444,0.13676885,0.04068724,0.93905231,0.12510514,0.31865957,0.03139325
1761617627471,-0.54243874,0.73618401,1.14644066,-0.01434375,0.02185518,0.00213250,0.93902079,0.12502410,0.31878305,0.03140530
1761617627482,-0.08221609,0.27247955,-0.06189755,0.01962511,0.00705845,-0.02232963,0.93899691,0.12513400,0.31882258,0.03128025
1761617627494,0.08362897,0.16725793,-0.04181448,0.00548725,0.00182627,-0.03512542,0.93899587,0.12516473,0.31883280,0.03108355
1761617627505,0.31228371,0.03094580,-0.10259417,-0.01297631,-0.00969059,-0.02254765,0.93902844,0.12509141,0.31877805,0.03095616
1761617627516,0.19387139,-0.04443152,-0.09179855,-0.01020718,-0.00158962,-0.00915986,0.93904109,0.12503272,0.31876891,0.03090349
1761617627528,0.05606116,-0.05972612,-0.03791400,-0.01526629,-0.04450777,-0.02520403,0.93914168,0.12494723,0.31851967,0.03076235
1761617627539,0.03878770,-0.06128555,-0.03243229,-0.01551766,-0.03260906,-0.02205363,0.93922057,0.12485878,0.31833380,0.03063664
1761617627550,0.21764294,-0.08100251,-0.16406185,0.00590113,-0.03932225,0.00105803,0.93928934,0.12489123,0.31811752,0.03064246
1761617627561,0.01014008,-0.00989825,0.00420280,0.00603246,-0.05880447,-0.01514394,0.93940103,0.12492562,0.31778234,0.03055614
1761617627573,0.10580614,0.01701743,0.10259592,0.00521996,-0.04688344,-0.02789498,0.93949179,0.12495511,0.31751745,0.03039853
1761617627584,0.00222024,0.01890146,-0.02768570,-0.00709809,-0.05295783,-0.01472955,0.93959992,0.12491536,0.31722088,0.03031605
1761617627595,0.06082107,0.01710592,0.02280790,-0.01197535,-0.05061046,-0.01844715,0.93970779,0.12484830,0.31693746,0.03021274
1761617627606,-0.21287373,0.17913705,0.09123160,0.00676833,-0.05806075,-0.03570752,0.93981876,0.12488620,0.31661232,0.03001278
1761617627618,0.06842370,0.03183603,0.04941712,0.01639926,-0.05647008,-0.02955952,0.93991830,0.12497804,0.31629609,0.02984725
1761617627629,0.05570205,-0.08397204,-0.02695260,0.01363226,-0.04485980,-0.00339946,0.93999258,0.12505370,0.31604712,0.02982838
1761617627640,0.07740235,-0.10159058,0.06192188,-0.01101887,-0.04499896,-0.00252247,0.94008509,0.12499254,0.31579738,0.02981438
1761617627651,-0.16232649,-0.15013488,0.11739562,-0.00264604,-0.02795254,-0.01578080,0.94014243,0.12497772,0.31564084,0.02972601
1761617627662,-0.00120032,-0.02574023,0.11056297,0.00187616,-0.01929828,-0.01460428,0.94018023,0.12498833,0.31553181,0.02964349
1761617627673,-0.17364953,-0.38932378,-0.00131196,-0.01420517,-0.00499688,0.00440685,0.94019941,0.12490878,0.31550382,0.02966817
1761617627685,-0.16289047,0.00355049,0.15345706,-0.00070455,-0.00313286,0.00191446,0.94020543,0.12490487,0.31548644,0.02967880
1761617627696,-0.12746397,0.04257218,0.18242895,0.00461885,0.02852936,0.00074962,0.94014824,0.12493073,0.31564620,0.02968300
1761617627707,-0.07263381,0.34647485,0.22228987,0.01618954,0.04495249,-0.00799074,0.94005389,0.12502058,0.31589569,0.02963865
1761617627718,-0.11996970,0.15389411,0.17585014,0.01081469,0.07896054,-0.00455562,0.93989654,0.12508169,0.31634181,0.02961291
1761617627729,-0.14877690,0.08134524,0.05318843,0.03649491,0.06751274,-0.00076486,0.93974350,0.12528423,0.31671651,0.02960866
1761617627740,-0.18576563,0.03918494,0.07740235,0.03404890,0.06695399,-0.01753253,0.93959602,0.12547320,0.31708810,0.02951136
1761617627752,0.00746867,0.02490818,0.06964029,0.00670785,0.07477162,-0.00259005,0.93944875,0.12551110,0.31751056,0.02949672
1761617627763,0.04657840,-0.10130803,0.08003951,0.01624810,0.07472953,-0.00221083,0.93929680,0.12560128,0.31792531,0.02948445
1761617627774,0.02232845,-0.04153195,0.03791043,0.01496597,0.06573202,-0.01117071,0.93916288,0.12568509,0.31829341,0.02942190
1761617627785,0.03667650,-0.02736567,-0.01910512,0.02759743,0.06664632,0.00306594,0.93901375,0.12584102,0.31866996,0.02943922
1761617627796,-0.00568531,0.09153427,0.03150892,0.03115684,0.06839222,-0.00785188,0.93886302,0.12601394,0.31904954,0.02939564
1761617627807,-0.06192188,0.07933741,0.02709082,0.02667196,0.05321505,-0.00827078,0.93874416,0.12616197,0.31934488,0.02934974
1761617627819,0.03870117,0.06724329,-0.02322070,0.04684012,0.05145769,-0.01021732,0.93861375,0.12642193,0.31963047,0.02929303
1761617627830,0.08287555,0.10427936,-0.06140325,0.04477325,0.04609356,-0.00150944,0.93849227,0.12667266,0.31988860,0.02928458
1761617627841,0.00152040,0.00749835,-0.13154944,0.05564030,0.03120099,-0.01367126,0.93839385,0.12698146,0.32006176,0.02920870
1761617627852,0.09732740,0.04768769,0.01253407,0.03615295,0.03107755,0.00031615,0.93830700,0.12718392,0.32023580,0.02921048
1761617627863,-0.10689532,0.00768539,-0.09982676,0.04368567,0.02074074,-0.00705955,0.93823475,0.12743074,0.32035298,0.02917059
1761617627874,-0.06654028,0.22070676,-0.00596352,0.01421418,0.00983174,-0.02129694,0.93820930,0.12750892,0.32040706,0.02905346
1761617627885,0.06107749,-0.18661442,-0.06378657,0.01919901,0.00173309,-0.02389802,0.93819562,0.12761548,0.32041668,0.02892082
1761617627897,0.04212060,-0.17577445,-0.06223891,0.00811801,-0.01643056,-0.00926156,0.93822270,0.12766134,0.32032384,0.02886849
1761617627908,0.19941774,-0.18486425,0.02731566,0.00464516,-0.00210369,-0.01464806,0.93822570,0.12768736,0.32031206,0.02878646
1761617627919,-0.02736726,0.00893669,-0.11513599,0.00891120,-0.01886936,-0.01373222,0.93825705,0.12773681,0.32020734,0.02871025
1761617627930,-0.02322070,-0.00193506,0.00000000,0.00937556,-0.04137440,-0.00305073,0.93832882,0.12778885,0.31997771,0.02869332
1761617627941,-0.20075061,-0.28871171,-0.18239471,0.01168507,-0.02092353,-0.02039514,0.93836334,0.12785428,0.31986054,0.02857911
1761617627953,-0.04561580,-0.10738719,-0.01900658,0.01304518,-0.03505233,-0.01820558,0.93842337,0.12792734,0.31966425,0.02847716
1761617627964,0.01520527,0.06842370,0.03801317,-0.01818366,-0.03049197,-0.03191492,0.93850080,0.12782551,0.31949349,0.02829843
1761617627975,0.19454251,0.20436466,-0.00155496,-0.01095518,-0.02409051,-0.02512000,0.93855878,0.12776471,0.31935979,0.02815902
1761617627986,-0.13958709,-0.07234488,0.01674634,-0.01288402,-0.02835978,-0.02659323,0.93862707,0.12769256,0.31920097,0.02801009
1761617627997,0.00926064,-0.01069465,-0.05946850,-0.01930529,-0.01565469,-0.01780391,0.93867413,0.12758541,0.31911409,0.02791128
1761617628008,-0.27864845,-0.14512940,-0.15867481,0.00346485,-0.01915139,-0.03584758,0.93871354,0.12760464,0.31900780,0.02771233
1761617628019,-0.03870117,0.08707764,0.01935059,-0.01477652,-0.01586013,-0.02318968,0.93875838,0.12752263,0.31891978,0.02758363
1761617628031,0.07710896,-0.05892090,0.01739325,-0.00206055,-0.01159010,-0.02397804,0.93878618,0.12751099,0.31885429,0.02744815
1761617628042,0.00664427,0.06191760,0.18740958,-0.02326390,-0.00721563,-0.02484498,0.93882133,0.12738187,0.31881425,0.02731026
1761617628053,-0.07554689,-0.02786776,0.03554745,-0.03288214,-0.01125259,-0.02892797,0.93887239,0.12719773,0.31875123,0.02714826
1761617628064,-0.04761627,-0.08411458,0.00283348,-0.04565939,-0.00374828,-0.01420176,0.93891602,0.12694433,0.31873043,0.02706944
1761617628075,-0.08514258,-0.18963575,-0.05805176,-0.02714888,-0.01111390,-0.01884918,0.93896033,0.12679365,0.31866875,0.02696483
1761617628086,-0.05418164,-0.00483765,-0.04257129,-0.02927099,-0.00448971,-0.02270418,0.93899432,0.12663119,0.31864383,0.02683882
1761617628097,0.04082135,0.13117539,0.04749933,-0.04207041,-0.00697947,-0.01195305,0.93904123,0.12639560,0.31860474,0.02677188
1761617628109,-0.02189098,0.00171023,-0.02829732,-0.03369751,-0.00589327,-0.00935172,0.93908032,0.12620184,0.31857086,0.02671811
1761617628120,0.02915000,-0.02041833,-0.00067543,-0.02588517,0.00352946,-0.01577957,0.93909505,0.12606206,0.31858992,0.02663290
1761617628131,-0.10879330,0.09182122,0.07879989,-0.03741152,-0.01539024,-0.01246801,0.93915383,0.12585443,0.31850450,0.02656371
1761617628142,0.07938245,0.05997776,0.12647083,-0.01795923,0.00651789,-0.00989141,0.93915649,0.12575385,0.31854100,0.02650831
1761617628153,-0.06082107,0.13542190,0.12164213,-0.02483485,-0.00112919,-0.00988274,0.93917880,0.12561478,0.31853468,0.02645297
1761617628164,-0.00324813,-0.02929368,0.01668988,-0.02189704,0.00079117,-0.00302816,0.93919404,0.12549325,0.31853907,0.02643616
1761617628176,0.01082177,-0.14630360,-0.16099090,-0.01808620,0.01107509,-0.00058298,0.93918662,0.12539197,0.31860109,0.02643290
1761617628187,-0.03801317,-0.03041053,0.04941712,-0.03609140,0.01040148,0.00288623,0.93919336,0.12518986,0.31865934,0.02644906
1761617628198,-0.07023074,-0.08809630,0.06769737,-0.04128572,0.00799239,-0.00651655,0.93920970,0.12496278,0.31870329,0.02641322
1761617628209,-0.07325077,-0.09044200,-0.01256029,-0.02194352,0.01726411,0.00620481,0.93919241,0.12484100,0.31879911,0.02644766
1761617628220,0.03169138,0.01375143,0.01705682,-0.01514191,0.02111073,0.00069306,0.93916317,0.12475545,0.31891839,0.02645157
1761617628231,0.03734334,0.02614034,0.01120300,-0.01385517,0.02100716,0.00416821,0.93913259,0.12467716,0.31903708,0.02647512
1761617628242,0.05817044,0.11185952,-0.00453367,-0.03204846,0.01925765,0.03593185,0.93911439,0.12450090,0.31914299,0.02667275
1761617628254,-0.04603049,0.01892019,-0.05909319,-0.00305944,0.01836146,0.00559027,0.93908082,0.12448377,0.31924582,0.02670405
1761617628265,-0.06328363,0.11322202,-0.06771815,-0.00403462,0.00828780,-0.00849951,0.93906929,0.12446097,0.31929264,0.02665603
1761617628276,0.11713571,-0.11720674,0.14004430,-0.02200197,0.01256578,-0.02834983,0.93906626,0.12434106,0.31936113,0.02650153
1761617628287,0.04868475,-0.09329791,-0.02235453,-0.03833158,-0.00130849,-0.00885949,0.93909855,0.12412640,0.31935380,0.02645191
1761617628298,0.12924477,0.13637223,0.09883423,-0.04094838,0.00099632,0.00139374,0.93912671,0.12389709,0.31935938,0.02645972
1761617628309,-0.13806885,0.08448976,-0.19725126,-0.00314909,0.00162374,0.00676499,0.93912491,0.12387977,0.31936831,0.02649692
1761617628321,0.05418180,0.04926775,0.11182634,-0.01657994,0.00160334,0.00279198,0.93913374,0.12378609,0.31937737,0.02651270
1761617628332,0.06721802,-0.10409457,0.23152873,-0.01967596,-0.00857365,0.00874675,0.93916346,0.12367493,0.31932893,0.02656212
1761617628343,0.09597425,-0.20426350,0.20293392,-0.00337185,-0.00553264,0.01126729,0.93917449,0.12365638,0.31929850,0.02662409
1761617628355,-0.01292010,0.02261413,-0.07349890,-0.00619972,-0.01381833,0.00542156,0.93920585,0.12362011,0.31921766,0.02665581
1761617628365,0.05056986,0.08295231,-0.14949160,-0.01814547,-0.01441592,0.00835125,0.93924285,0.12352485,0.31914198,0.02669965
1761617628376,0.03608276,0.08194591,-0.23342949,-0.02177769,-0.01336481,0.00031441,0.93928315,0.12340616,0.31906914,0.02670136
1761617628387,0.09311482,-0.02387157,-0.00292946,-0.02395552,-0.02030402,-0.01391605,0.93934160,0.12327201,0.31895544,0.02662343
1761617628398,-0.00020005,0.01262005,-0.04201126,-0.00983158,-0.03573802,-0.01512150,0.93941984,0.12321646,0.31875352,0.02653800
1761617628409,-0.01520136,0.06161345,-0.15410911,-0.00466129,-0.04135593,-0.00393062,0.93950022,0.12319106,0.31852813,0.02651657
1761617628421,0.14642767,0.11894723,0.02571741,-0.01136886,-0.03874477,0.00905134,0.93958211,0.12312625,0.31830728,0.02656817
1761617628432,-0.06512695,-0.07220484,-0.00221238,-0.01562038,-0.05396626,-0.00298508,0.93969432,0.12304034,0.31801047,0.02655175
1761617628443,0.19920977,-0.03212376,0.08378488,-0.02705383,-0.04802082,0.00566636,0.93980519,0.12288749,0.31773915,0.02658376
1761617628454,0.05584235,-0.05005207,0.00780447,-0.03676910,-0.06044347,0.01700219,0.93994376,0.12268158,0.31740067,0.02667898
1761617628465,-0.01230144,0.04340492,0.06219831,-0.03605608,-0.06395296,0.00778654,0.94008841,0.12248147,0.31704573,0.02672219
1761617628476,0.10836329,0.05176282,0.08127246,-0.00765938,-0.06297557,0.00862130,0.94021039,0.12243896,0.31669621,0.02677004
1761617628488,0.00363009,0.03540190,0.08588921,-0.03144208,-0.07377524,-0.00709922,0.94037349,0.12226288,0.31628307,0.02673028
1761617628499,0.04561580,0.11546499,-0.07982765,-0.01575022,-0.07548297,-0.00999235,0.94052860,0.12217468,0.31586037,0.02667433
1761617628510,0.02491150,0.03727050,-0.17402867,0.02006286,-0.08266522,0.01050641,0.94066519,0.12228503,0.31540571,0.02673211
1761617628521,-0.04352197,0.15214866,0.04087399,0.00464460,-0.08157610,-0.00081075,0.94081633,0.12231127,0.31494480,0.02672753
1761617628532,-0.15391422,0.07972699,0.02024106,0.01223882,-0.06798488,-0.00110342,0.94093390,0.12237920,0.31456749,0.02672141
1761617628543,-0.14732670,0.02499965,0.05640332,0.00731921,-0.07288193,0.00577359,0.94106399,0.12242018,0.31415935,0.02675374
1761617628555,-0.05259213,-0.00345546,-0.03369075,0.03534659,-0.05774679,-0.01304222,0.94114744,0.12261636,0.31383885,0.02668136
1761617628566,0.24979102,0.09180522,0.08660838,0.05395443,-0.06532766,-0.02498513,0.94123390,0.12291850,0.31347302,0.02654144
1761617628577,0.07304846,0.14054227,0.09063677,0.05890876,-0.07134942,-0.03002727,0.94132763,0.12324545,0.31307703,0.02637479
1761617628588,0.10246432,0.06075685,0.03181462,0.06782163,-0.05354572,-0.02947690,0.94138212,0.12362525,0.31277717,0.02620972
1761617628599,-0.05708197,0.03768093,0.03097497,0.04495706,-0.06134723,-0.03196907,0.94146883,0.12387925,0.31243056,0.02602909
1761617628610,-0.06642274,-0.10478043,-0.09446067,0.05883516,-0.06087868,-0.02987607,0.94154046,0.12419696,0.31210182,0.02586776
1761617628621,-0.06842370,-0.03723882,0.03322632,0.04789680,-0.05194882,-0.02765247,0.94160566,0.12446519,0.31181090,0.02571291
1761617628633,0.09908890,-0.16142992,0.01828541,0.05355475,-0.04628688,-0.01505257,0.94165536,0.12477313,0.31154475,0.02562635
1761617628644,0.13588375,0.04957566,0.21030835,0.02909134,-0.04904160,-0.01802961,0.94172411,0.12492876,0.31128238,0.02552990
1761617628655,-0.00858548,-0.04948429,-0.08571519,0.02977251,-0.04493721,-0.01011379,0.94178722,0.12509698,0.31102849,0.02547275
1761617628666,-0.01267207,-0.04089738,-0.00034249,0.01618201,-0.05135634,-0.00500730,0.94187012,0.12518679,0.31074346,0.02544496
1761617628677,-0.06588949,-0.10190782,-0.14808012,0.03299088,-0.04777793,-0.00405779,0.94193439,0.12537154,0.31047590,0.02542224
1761617628688,-0.08832161,0.00123533,-0.00926064,0.01769012,-0.05258227,-0.00592365,0.94201835,0.12546972,0.31018407,0.02538936
1761617628699,0.06192188,-0.01161035,0.02322070,0.01686045,-0.04602048,0.00739745,0.94208884,0.12556329,0.30992866,0.02543042
1761617628711,-0.01945178,0.02786348,0.08880013,0.01777645,-0.04251858,0.00154582,0.94215363,0.12566284,0.30969055,0.02543908
1761617628722,-0.01520527,-0.00475165,0.00760263,0.01633519,-0.04370325,0.01135626,0.94222012,0.12575432,0.30944581,0.02550267
1761617628733,-0.01921237,-0.01799864,-0.02760914,0.00458754,-0.03078160,0.00667745,0.94227181,0.12577978,0.30927498,0.02553973
1761617628744,0.01966851,-0.04361510,-0.01654427,-0.00262130,-0.03123560,0.00605346,0.94232920,0.12576536,0.30910318,0.02557302
1761617628755,0.04813897,-0.03125808,0.01758532,-0.00664735,-0.02389169,0.00921876,0.94237706,0.12572781,0.30896819,0.02562511
1761617628766,-0.14590000,-0.07976123,0.01397352,0.01571762,-0.02656384,0.00656595,0.94241275,0.12581504,0.30882076,0.02566155
1761617628777,-0.03096094,-0.07208094,0.05031153,-0.00201002,-0.01406159,0.01003587,0.94243829,0.12580388,0.30874272,0.02571725
1761617628789,0.06561552,-0.06140753,0.07999888,-0.00764607,-0.01347203,0.01469250,0.94246647,0.12576106,0.30866728,0.02579953
1761617628800,-0.08362897,-0.01948175,0.00380132,0.00077844,-0.01088024,0.01136702,0.94248410,0.12576542,0.30860635,0.02586318
1761617628811,-0.02052544,0.11306271,0.00058743,-0.00223868,-0.00910618,0.01076206,0.94250066,0.12575300,0.30855581,0.02592291
1761617628822,-0.03287625,0.02241835,-0.02719140,0.00941303,-0.01215768,0.00698912,0.94251484,0.12580571,0.30848773,0.02596205
1761617628833,0.06082107,0.03753800,-0.00380132,0.00798816,-0.00909487,0.00676674,0.94252449,0.12585045,0.30843679,0.02599995
1761617628844,0.16530930,-0.00873368,0.12802486,0.00390924,-0.01407415,0.00553089,0.94254630,0.12587214,0.30835868,0.02603064
1761617628856,-0.01938329,-0.04076142,-0.04705414,0.00550478,-0.00953809,0.00211134,0.94255933,0.12590297,0.30830527,0.02604247
1761617628867,0.03983026,-0.11278789,-0.02547448,-0.00131509,-0.01202606,0.01183474,0.94258013,0.12589574,0.30823913,0.02610756
1761617628878,-0.09994007,-0.01609512,-0.03200017,-0.00515462,-0.00792500,0.00388996,0.94259789,0.12586687,0.30819475,0.02612934
1761617628889,0.04561580,0.01045362,0.02660922,-0.00884409,-0.00454858,0.00653227,0.94261182,0.12581734,0.30816927,0.02616592
1761617628900,0.06842370,0.09598324,0.09883423,0.00198732,-0.00409322,-0.00122499,0.94261802,0.12582847,0.30814635,0.02615906
1761617628911,-0.02639973,0.04094290,-0.04865290,0.01450455,-0.00341372,0.00227246,0.94261311,0.12590897,0.30812741,0.02617167
1761617628922,0.02322070,0.03241223,0.05418164,0.01048314,0.00064702,0.00426650,0.94260351,0.12596715,0.30813100,0.02619535
1761617628934,-0.06966211,-0.01306165,-0.06579199,0.00625438,0.00945870,0.01735359,0.94257902,0.12600187,0.30818349,0.02629166
1761617628945,-0.16349086,-0.04835121,-0.08092352,0.00762485,0.01105611,0.02196745,0.94254963,0.12604456,0.30824541,0.02641468
1761617628956,-0.06842370,-0.08790545,-0.10263555,0.02164608,0.02183980,0.01223217,0.94249148,0.12616578,0.30836771,0.02648318
1761617628967,0.08693942,0.09152655,0.12716100,0.00564904,0.01837547,0.01514281,0.94245154,0.12619714,0.30846969,0.02656723
1761617628978,0.00774023,0.10546070,0.00774023,0.01839452,0.01073483,-0.00090342,0.94241851,0.12629922,0.30852927,0.02656221
1761617628989,-0.04061587,-0.02036787,-0.07667701,0.03163101,0.01947923,-0.01864298,0.94236197,0.12647636,0.30863836,0.02645781
1761617629000,0.00760263,-0.04941712,0.12544345,0.01768460,0.00490697,-0.01936684,0.94234271,0.12657539,0.30866584,0.02634936
1761617629012,0.03331065,0.03509885,0.07850809,-0.00699628,0.01829596,-0.01981284,0.94231773,0.12653656,0.30876738,0.02623940
1761617629023,0.02020520,0.00988000,-0.01318475,0.00757559,0.02007391,0.00557238,0.94227432,0.12657899,0.30887979,0.02627060
1761617629034,-0.06682863,0.00938158,-0.03700800,0.00767420,0.01616459,-0.00043995,0.94223925,0.12662158,0.30896951,0.02626816
1761617629045,0.02061615,-0.05586394,-0.04695140,-0.00309938,0.03649307,0.00609028,0.94217359,0.12660422,0.30917387,0.02630226
1761617629056,-0.08272376,-0.07957065,-0.03389808,-0.01727728,0.02390096,0.01407556,0.94214075,0.12650833,0.30930652,0.02638038
1761617629067,0.10836329,-0.21624281,-0.02709082,-0.01999218,0.01162467,0.00538985,0.94213362,0.12639738,0.30937103,0.02641030
1761617629078,0.01260256,-0.25041601,-0.05359514,-0.03013129,0.00638288,-0.00247650,0.94214490,0.12622864,0.30940678,0.02639643
1761617629090,0.05694601,-0.10918396,-0.00397378,-0.03525101,0.00428837,-0.00637410,0.94216426,0.12603300,0.30943058,0.02636105
1761617629101,0.08801247,0.11058492,0.01534225,-0.03702265,-0.00466977,0.01135928,0.94219878,0.12582567,0.30940443,0.02642466
1761617629112,-0.00366279,0.22850538,0.00774023,-0.02548049,-0.01412418,0.00232944,0.94224303,0.12568425,0.30932604,0.02643759
1761617629123,0.11766959,0.13038345,-0.01147244,-0.00950763,-0.00616833,0.00993852,0.94225990,0.12563101,0.30929150,0.02649325
1761617629134,0.02617819,-0.07580768,0.01175204,-0.00338647,-0.01535058,0.00565434,0.94228922,0.12561239,0.30920707,0.02652435
1761617629145,0.04426884,0.03829390,-0.01514103,-0.01727664,-0.01435633,0.00077377,0.94232872,0.12551477,0.30912595,0.02652872
1761617629156,0.04910310,-0.02603807,0.05496200,-0.01160645,-0.00851764,-0.00131127,0.94235279,0.12545094,0.30907911,0.02652151
1761617629167,-0.07585430,0.13114860,0.08472039,-0.01121247,-0.01265185,-0.00903899,0.94238551,0.12538871,0.30900889,0.02647134
1761617629179,0.07740235,0.05950305,0.11997364,-0.01398568,-0.00869919,-0.00430859,0.94241233,0.12531109,0.30896061,0.02644743
1761617629190,-0.01197678,0.04579185,0.05164147,-0.01495378,-0.00773779,-0.00753430,0.94243909,0.12522660,0.30891689,0.02640486
1761617629201,-0.05746953,-0.19271386,0.12545345,0.00742881,-0.00924737,-0.00842927,0.94245174,0.12526783,0.30886557,0.02635808
1761617629212,-0.02068464,0.02056050,0.06842370,-0.00339517,0.00237389,-0.00477832,0.94245066,0.12524882,0.30887886,0.02633132
1761617629223,-0.03631168,-0.04027888,0.08402355,0.00695398,0.00352048,-0.00949420,0.94244069,0.12528706,0.30889822,0.02627910
1761617629234,0.02481651,0.32449083,-0.00887257,0.01682036,0.00901982,-0.01515926,0.94241349,0.12538294,0.30894964,0.02619269
1761617629246,-0.07300856,0.11542404,0.01707681,0.05251966,0.00460548,-0.00428817,0.94236736,0.12567180,0.30897497,0.02616911
1761617629257,-0.02432843,0.10338717,0.09219921,0.04883148,0.01457298,-0.00845536,0.94230541,0.12594525,0.30905658,0.02612176
1761617629268,-0.03427818,0.02740613,0.04098178,0.05294716,0.02033757,-0.00492418,0.94222981,0.12623911,0.30916945,0.02609443
1761617629279,-0.01164367,-0.07942954,-0.05582114,0.04394900,0.02936301,0.00631880,0.94214185,0.12648522,0.30933388,0.02612981
1761617629290,-0.00373190,-0.10320169,0.05632403,0.03509919,0.02488810,0.00712900,0.94206922,0.12668002,0.30947201,0.02616938
1761617629301,0.01473548,-0.07725194,0.07330734,0.03022819,0.02566940,0.00745498,0.94199741,0.12685081,0.30961704,0.02621150
1761617629313,0.16302441,0.00366034,0.15370873,0.02479769,0.01751628,0.00876148,0.94194555,0.12698844,0.30971426,0.02626013
1761617629324,0.04773906,0.08061103,-0.04643771,0.03276338,0.01611875,0.00694026,0.94189003,0.12717192,0.30980452,0.02629899
1761617629335,0.07567462,0.10781473,0.00041466,0.04727121,0.01359288,0.00520683,0.94182894,0.12743427,0.30987996,0.02632789
1761617629346,-0.04644141,0.35363197,-0.06966211,0.04450837,0.00779333,0.00448391,0.94178056,0.12768129,0.30992322,0.02635278
1761617629357,-0.03870117,0.04160376,-0.04257129,0.04465451,0.01089400,-0.00141638,0.94172724,0.12792913,0.30998368,0.02634491
1761617629368,0.07020450,-0.12412925,-0.01082177,0.04218674,0.00631269,0.00427751,0.94168281,0.12816537,0.31001903,0.02636887
1761617629379,0.11492866,-0.23467338,0.05736067,0.03556525,0.01270186,0.00351697,0.94163217,0.12836276,0.31008952,0.02638839
1761617629390,0.02350281,0.00568044,0.00376329,0.02479421,0.00571396,0.00057459,0.94160313,0.12849913,0.31012095,0.02639155
1761617629402,-0.01534350,-0.02626364,-0.12896831,0.03490714,0.00399369,-0.01654344,0.94157166,0.12869461,0.31014332,0.02629890
1761617629413,0.06842370,-0.04466547,-0.08362897,0.04025320,0.00786858,-0.01563643,0.94152875,0.12892002,0.31018738,0.02621134
1761617629424,0.03151381,0.09689979,-0.04464457,0.04517343,-0.01090586,-0.00768818,0.94151551,0.12917074,0.31012685,0.02616867
1761617629435,0.05999916,0.10400967,0.05184859,0.05428173,-0.01022005,-0.01541023,0.94149500,0.12947471,0.31006962,0.02608237
1761617629446,0.09123160,0.04846679,0.01520527,0.05538857,-0.00421196,-0.00534557,0.94146089,0.12978489,0.31004603,0.02605244
1761617629457,0.00995173,-0.03968166,0.03296511,0.05579562,-0.02248157,-0.01413960,0.94146140,0.13009456,0.30992126,0.02597396
1761617629468,-0.00986288,-0.04667743,-0.05167736,0.03149350,-0.01913441,-0.00663013,0.94147331,0.13027092,0.30981411,0.02593684
1761617629493,-0.26098981,-0.14659503,-0.27338839,0.01953515,-0.00895876,-0.00089280,0.94147641,0.13049850,0.30970974,0.02592643
1761617629501,1.98732119,0.89741605,1.96821977,0.08050498,-0.04875304,-0.02038789,0.94150134,0.13086883,0.30948547,0.02583265
1761617629509,-1.01193619,-0.20939402,-0.92652902,0.08146707,-0.02620165,-0.02854643,0.94149336,0.13120284,0.30937805,0.02571561
1761617629521,-0.31733302,-0.09820455,-0.42901706,0.06793609,-0.02031291,-0.00598401,0.94147829,0.13159008,0.30926226,0.02568150
1761617629533,-0.20035690,-0.06223497,-0.17584841,0.06674586,-0.01965964,-0.01051750,0.94146164,0.13201725,0.30913644,0.02561419
1761617629544,0.10347158,0.03776321,0.02420608,0.07215298,-0.02352750,-0.00621837,0.94144943,0.13241049,0.30900822,0.02558030
1761617629555,-0.04618681,-0.07877351,-0.04932148,0.07851424,-0.01405961,-0.01346061,0.94141751,0.13282268,0.30893440,0.02550963
1761617629568,-0.13455722,-0.05458878,-0.06187229,0.04486607,-0.01331289,-0.00197863,0.94140544,0.13310534,0.30885053,0.02549717
1761617629577,0.12927502,0.14434842,0.26723787,0.07090902,-0.02051134,-0.01582676,0.94139117,0.13345634,0.30874900,0.02541882
1761617629589,-0.25270194,-0.05430875,-0.16118457,0.08166929,-0.01293331,-0.02705187,0.94135239,0.13393411,0.30867334,0.02526057
1761617629600,-0.02208683,0.14865124,0.08269795,0.08765665,-0.00219234,-0.02987905,0.94129037,0.13442937,0.30866096,0.02509175
1761617629611,-0.17153410,0.14061079,0.28693446,0.08235140,-0.01382728,-0.01198398,0.94125331,0.13486995,0.30858698,0.02502764
1761617629622,-0.11391465,-0.05985841,0.06439109,0.09420055,-0.00387387,-0.00421930,0.94118470,0.13540218,0.30856509,0.02500380
1761617629634,-0.03234009,-0.11744390,-0.03954843,0.09821369,-0.00532381,0.01231298,0.94111208,0.13596200,0.30853475,0.02507398
1761617629645,0.06642301,-0.13986511,-0.03661268,0.07873946,-0.00381019,0.01154975,0.94105354,0.13640294,0.30851341,0.02513866
1761617629656,-0.10330533,0.00758253,-0.03075234,0.06349806,-0.00712519,0.03002857,0.94101127,0.13675218,0.30847422,0.02530382
1761617629667,-0.03162103,-0.02492491,-0.04809866,0.07297966,-0.00524834,0.04380100,0.94095378,0.13716816,0.30844431,0.02555348
1761617629680,-0.10508015,-0.12988861,-0.06918542,0.08055079,-0.00134881,0.01598418,0.94087854,0.13768369,0.30843567,0.02565578
1761617629689,-0.10742462,0.10077382,0.35996524,0.09769341,-0.00070640,0.03543889,0.94080776,0.13814285,0.30843235,0.02582235
1761617629701,-0.08184963,-0.11635466,-0.32634708,0.05793787,0.00185007,0.05930648,0.94074749,0.13846730,0.30844271,0.02615446
1761617629712,-0.09329747,-0.11829342,-0.22768039,0.05200942,0.00588591,0.04727365,0.94068692,0.13875595,0.30847538,0.02641683
1761617629723,0.00242227,-0.14262382,-0.11307295,0.02826336,0.00918608,0.04965363,0.94063841,0.13891564,0.30852728,0.02669737
1761617629735,-0.04286037,-0.16674549,-0.07107677,-0.01760366,0.00909830,0.03771871,0.94063008,0.13881530,0.30857914,0.02691237
1761617629746,-0.00488857,-0.06621211,-0.11763120,-0.02368699,-0.00497938,0.04436775,0.94065146,0.13868383,0.30855151,0.02715861
1761617629757,-0.04158232,0.03907594,-0.13763209,0.00134453,0.00187682,0.03364885,0.94064135,0.13869143,0.30856211,0.02734873
1761617629768,-0.00201840,0.16910393,-0.03192433,0.01862367,0.00574204,0.02513372,0.94061132,0.13879572,0.30859427,0.02748948
1761617629779,0.06842370,0.18293836,-0.01140395,0.04197893,0.00537016,0.02331104,0.94056291,0.13903081,0.30862434,0.02762002
1761617629791,0.03801317,-0.03516218,-0.00380132,0.03700806,-0.00913768,0.02288991,0.94054527,0.13923805,0.30857317,0.02774820
1761617629802,0.08362897,-0.01615560,-0.03801317,0.02495789,-0.01159916,0.00574336,0.94054493,0.13937781,0.30850821,0.02778036
1761617629813,0.03801317,-0.00427648,0.01520527,0.02558634,-0.03110284,0.00358010,0.94058021,0.13952110,0.30833404,0.02780041
1761617629824,0.12384376,0.14293086,-0.02926776,0.07209787,-0.02662846,-0.03286934,0.94057457,0.13992124,0.30818625,0.02761799
1761617629835,0.15480469,0.43296938,0.08901270,0.12587489,-0.04274534,-0.04892295,0.94055602,0.14061985,0.30794901,0.02734647
1761617629846,0.17440351,0.33218755,0.02556842,0.16619850,-0.05188451,-0.05521910,0.94052012,0.14155887,0.30765586,0.02703448
1761617629858,0.15528418,0.17123129,0.11329512,0.18854301,-0.05964403,-0.04588498,0.94047755,0.14260528,0.30732484,0.02677982
1761617629869,0.13874230,0.15435249,0.07542683,0.17850093,-0.05786776,-0.02806945,0.94043537,0.14361381,0.30699789,0.02662122
1761617629880,0.12966606,0.11183954,0.20960282,0.15335735,-0.06038526,-0.02720216,0.94041861,0.14446495,0.30666275,0.02647025
1761617629891,0.07740235,-0.04402258,0.07353223,0.16200341,-0.06870180,-0.03641460,0.94040999,0.14536406,0.30628145,0.02626815
1761617629902,0.05232803,-0.21328040,0.05801289,0.14978909,-0.06870414,-0.02302023,0.94040877,0.14620288,0.30589671,0.02613924
1761617629913,0.01360365,0.05888662,0.12743416,0.13990058,-0.06419111,-0.03138364,0.94040837,0.14699332,0.30553403,0.02596192
1761617629925,-0.02020681,-0.04599189,-0.00637028,0.14895194,-0.06178117,-0.03336356,0.94039522,0.14782001,0.30519115,0.02577675
1761617629936,-0.06966211,-0.16157740,0.29799904,0.11937321,-0.05705375,-0.01838010,0.94039635,0.14848253,0.30487450,0.02567474
1761617629947,-0.13753232,0.06410013,-0.40239163,0.11119655,-0.04183623,-0.02726855,0.94037790,0.14910523,0.30464021,0.02552204
1761617629958,0.00718736,-0.13579101,0.21638103,0.10198897,-0.03890848,-0.00393464,0.94035850,0.14967127,0.30442427,0.02550020
1761617629969,-0.07554689,-0.12201028,0.05164311,0.07721526,-0.02470823,0.00332823,0.94033386,0.15010367,0.30428591,0.02551884
1761617629980,0.03041053,-0.13352125,0.06462238,0.06223081,-0.01202156,0.00975723,0.94029846,0.15045216,0.30421859,0.02557348
1761617629992,-0.15205267,-0.16725793,-0.01140395,0.04846168,-0.01188734,0.02258470,0.94027309,0.15072355,0.30415202,0.02569995
1761617630003,-0.04872201,0.03378146,-0.00905331,0.04677034,0.00540034,0.02868972,0.94021738,0.15098312,0.30418199,0.02585918
1761617630014,-0.13158399,0.06385694,-0.12384376,0.06497502,0.00707837,0.01965552,0.94014368,0.15134374,0.30422127,0.02596827
1761617630025,-0.12540920,-0.09439080,-0.00133560,0.04497478,0.01288480,0.02203539,0.94007633,0.15159559,0.30429343,0.02609167
1761617630036,-0.04374615,-0.11277764,0.02069822,0.03313139,0.01449809,0.00850907,0.94001930,0.15177947,0.30437389,0.02613889
1761617630047,0.06966211,-0.28251857,-0.04644141,0.03591281,0.02047361,0.01504914,0.93994797,0.15197879,0.30448752,0.02622242
1761617630058,-0.04849247,-0.11000702,-0.03910904,0.01816343,0.01680716,0.02068964,0.93989778,0.15208051,0.30458164,0.02633828
1761617630069,-0.01857807,-0.26113097,-0.08909030,0.00692752,0.02448013,0.01861324,0.93984510,0.15211861,0.30471628,0.02644065
1761617630081,-0.06647115,-0.27675237,-0.07831918,-0.00873709,0.03249862,0.02629271,0.93978934,0.15206924,0.30489990,0.02658921
1761617630092,-0.06674170,-0.17990656,-0.08817036,-0.02644218,0.02634826,0.03262512,0.93976022,0.15192117,0.30504745,0.02677191
1761617630103,0.07076786,0.07836988,-0.04799637,-0.01983199,0.03178602,-0.00287199,0.93972118,0.15181110,0.30522386,0.02675597
1761617630114,0.08514258,0.27574586,-0.05418164,0.00126918,0.01492051,-0.02305896,0.93969678,0.15181814,0.30530667,0.02662799
1761617630125,0.05418164,0.23897975,-0.11610352,0.01548213,0.01402309,-0.02679345,0.93966181,0.15190407,0.30538450,0.02647929
1761617630136,0.05027327,0.10118865,-0.02695168,0.01524452,0.00307088,-0.02700635,0.93964666,0.15198944,0.30540170,0.02632805
1761617630148,0.08085781,0.00771432,-0.04633774,0.01387691,0.00295654,-0.02787340,0.93963319,0.15206645,0.30541810,0.02617335
1761617630159,0.04910890,0.01326180,0.02311611,-0.01859721,0.00118141,-0.02199585,0.93965131,0.15196231,0.30542472,0.02605018
1761617630170,-0.04955132,-0.04434222,-0.10846695,-0.00714330,-0.00419177,-0.03175543,0.93967015,0.15192266,0.30540146,0.02587393
1761617630181,0.06661245,0.08914462,0.00208584,-0.02080071,-0.01896228,-0.01461563,0.93972623,0.15180514,0.30529432,0.02579136
1761617630192,0.01464723,-0.09772668,-0.03082894,-0.00640403,-0.02096871,-0.02475683,0.93977310,0.15176992,0.30517899,0.02565519
1761617630203,-0.10090768,-0.00988342,-0.21024737,-0.02803684,-0.02470100,-0.01227567,0.93984523,0.15161291,0.30504067,0.02558645
1761617630214,-0.07339401,-0.04972410,-0.03420907,-0.01642875,-0.03490342,-0.01294789,0.93992473,0.15152173,0.30484695,0.02551459
1761617630226,-0.04130079,0.00699048,-0.05732796,-0.00358769,-0.02802162,-0.01399022,0.93998098,0.15150164,0.30469003,0.02543624
1761617630237,0.11133498,0.08921571,0.34810323,0.00187230,-0.02163786,-0.00892682,0.94001956,0.15151203,0.30456994,0.02538670
1761617630248,-0.06472512,-0.05088114,-0.04469116,0.00989287,-0.02278355,0.01072080,0.94005033,0.15156743,0.30444235,0.02544674
1761617630259,-0.09723670,-0.00332588,0.04509378,0.00232193,-0.00849585,-0.00200702,0.94006383,0.15158032,0.30439520,0.02543560
1761617630270,-0.04644141,-0.00096753,-0.01161035,-0.00530492,-0.00138012,0.00062396,0.94007096,0.15155088,0.30438754,0.02543906
1761617630281,-0.19972323,-0.10740860,-0.10921080,-0.00174863,0.00767342,0.00186060,0.94005834,0.15154109,0.30443051,0.02544948
1761617630293,-0.01520527,0.00190066,0.01900658,-0.01194233,0.02041441,0.00687647,0.94003105,0.15147421,0.30454483,0.02548799
1761617630304,-0.09274460,0.04066647,0.04070534,-0.00544023,0.03395290,-0.00334177,0.93997535,0.15144401,0.30473327,0.02546944
1761617630315,-0.09054668,0.01243989,0.04708838,0.01923679,0.04664763,-0.00750035,0.93987439,0.15155174,0.30499450,0.02542744
1761617630326,-0.03248134,0.11709697,0.01053916,0.01068660,0.04060756,-0.00971721,0.93979312,0.15161105,0.30521987,0.02537351
1761617630337,-0.12384376,-0.00241882,-0.03870117,0.02274829,0.04770836,0.00042445,0.93968664,0.15173730,0.30548465,0.02537586
1761617630348,-0.06966211,-0.05708423,-0.03483106,0.00462871,0.03648844,0.00613262,0.93961571,0.15176299,0.30568716,0.02540990
1761617630359,0.06431417,-0.05375353,-0.05541018,-0.00203774,0.04257564,0.00920020,0.93953856,0.15175158,0.30592559,0.02546142
1761617630371,-0.04561580,-0.16203112,-0.06462238,-0.00876827,0.02537364,0.00165303,0.93949996,0.15170248,0.30606768,0.02547068
1761617630382,0.12819764,-0.12816308,-0.07626204,-0.01009406,0.03462096,-0.01506547,0.93944865,0.15164646,0.30625982,0.02538706
1761617630393,-0.01301352,0.12226712,-0.01184915,-0.02428943,0.02160577,0.00783834,0.93942996,0.15151044,0.30638082,0.02543096
1761617630404,-0.02843008,0.05022764,0.00858532,-0.01249278,0.03074483,0.01487811,0.93938366,0.15144173,0.30654991,0.02551279
1761617630415,-0.07851447,-0.04030260,-0.08825966,0.02304035,0.02746507,-0.00112830,0.93931281,0.15157075,0.30670372,0.02550647
1761617630426,-0.01879771,0.01845649,-0.01199045,0.00204491,0.02186332,0.01487856,0.93926910,0.15158210,0.30682506,0.02558905
1761617630437,0.14787464,-0.00071061,-0.09075215,-0.00479081,0.02053503,0.03013878,0.93923125,0.15155527,0.30694006,0.02575782
1761617630449,-0.03041053,-0.00665230,-0.06842370,-0.00513775,0.01142682,-0.00412969,0.93921561,0.15152650,0.30700405,0.02573470
1761617630460,0.01306165,-0.05207381,-0.04837647,-0.01283402,0.00742603,-0.00056990,0.93921371,0.15145527,0.30704526,0.02573153
1761617630471,0.01746551,0.02642514,-0.05469101,-0.03133194,-0.00516149,-0.01118580,0.93925315,0.15127981,0.30701636,0.02566889
1761617630482,-0.06082107,0.16108079,-0.10643687,-0.04042775,-0.02548160,-0.01899038,0.93933912,0.15105342,0.30687366,0.02556255
1761617630493,-0.01337058,0.03636446,-0.06298248,0.00110289,-0.01168758,0.00321326,0.93935866,0.15105949,0.30680938,0.02558022
1761617630504,0.02073445,0.01370202,0.08846701,-0.00252056,-0.02090533,0.01442078,0.93939696,0.15104537,0.30669231,0.02566098
1761617630515,0.11403950,-0.11166368,0.09503292,-0.00937509,-0.00908098,0.02937151,0.93941749,0.15099287,0.30664145,0.02582546
1761617630526,0.00615072,-0.10993984,0.00888054,-0.01222901,-0.01124238,0.02304687,0.93944523,0.15092500,0.30657906,0.02595337
1761617630538,-0.05171160,-0.17851634,0.12804615,-0.02436156,-0.02348216,0.00874203,0.93950869,0.15078857,0.30644756,0.02600232
1761617630549,0.07473451,-0.00212874,0.09155330,-0.03364379,-0.01262943,0.01377717,0.93955892,0.15060353,0.30637810,0.02607810
1761617630560,-0.03538680,0.01159402,0.02031977,-0.02601354,-0.01909086,-0.00496964,0.93961789,0.15045786,0.30627119,0.02605027
1761617630571,0.00450377,0.12415289,-0.08374206,-0.01710495,-0.01405779,0.00647305,0.93965716,0.15036378,0.30619387,0.02608587
1761617630582,-0.03483388,0.03771943,0.03663087,-0.00578499,-0.01295895,0.00442044,0.93968530,0.15033138,0.30612130,0.02611062
1761617630593,-0.00760263,0.04276481,-0.07222502,-0.00157951,-0.00499536,0.00667706,0.93969479,0.15032254,0.30609333,0.02614802
1761617630604,-0.06842370,0.25373789,0.07982765,-0.00904031,-0.00614340,0.01945518,0.93971105,0.15027191,0.30605892,0.02625696
1761617630616,0.02059455,-0.07977798,0.01465116,-0.01020392,0.00080243,0.01864140,0.93971576,0.15021528,0.30606338,0.02636042
1761617630627,-0.00774023,-0.11755481,-0.03870117,-0.01131242,0.00493318,0.01872432,0.93971395,0.15015250,0.30609076,0.02646434
1761617630638,-0.01273955,-0.20404252,0.11126557,-0.02294270,-0.00356679,0.01142233,0.93973918,0.15002402,0.30607078,0.02652831
1761617630649,0.09123160,0.08457930,0.02660922,-0.01123420,-0.00437343,0.00920313,0.93975574,0.14996111,0.30604629,0.02657985
1761617630660,0.02916410,0.03878324,0.00020733,0.00478264,0.00042566,0.01238419,0.93974879,0.14998765,0.30604865,0.02664858
1761617630671,0.03951999,0.00100170,0.11383402,-0.00408441,-0.00019064,0.01766086,0.93974997,0.14996478,0.30604758,0.02674748
1761617630683,-0.04170637,0.05416630,0.05846231,-0.01295762,-0.00119990,0.01253926,0.93976237,0.14988833,0.30604051,0.02682146
1761617630693,-0.00233045,0.00786525,-0.00706902,-0.00247827,0.00489510,0.01636603,0.93975387,0.14987569,0.30606547,0.02690493
1761617630705,0.07666369,0.10209011,-0.01479089,0.00190279,0.00516158,0.01795043,0.93973974,0.14988644,0.30609463,0.02700635
1761617630716,0.02143977,0.04552525,-0.02774155,0.00900120,0.00529784,0.00547970,0.93972132,0.14993640,0.30612404,0.02703676
1761617630727,-0.02212298,0.10173231,0.00626704,0.02084365,0.00218839,-0.00483747,0.93969948,0.15005312,0.30613629,0.02700967
1761617630738,-0.04733983,-0.07555799,-0.09533619,0.03354340,0.00632813,0.00064012,0.93965819,0.15023929,0.30617141,0.02701322
1761617630749,0.06212242,0.02784208,0.04886918,0.02482944,0.01120769,-0.00222278,0.93961585,0.15037833,0.30623418,0.02700078
1761617630760,0.01472027,-0.02664161,0.00874232,0.01877182,0.00438548,0.01132945,0.93958943,0.15048251,0.30625851,0.02706365
1761617630772,0.12225856,-0.01446041,0.00273969,0.01675024,0.01268682,0.00963516,0.93954968,0.15057632,0.30632956,0.02711761
1761617630784,0.03078597,-0.06204124,-0.03604211,0.00507752,0.00508412,0.00365956,0.93953345,0.15060830,0.30636159,0.02714067
1761617630794,0.10446581,-0.09670479,0.00886974,-0.01689933,0.00682533,0.00410573,0.93953519,0.15052719,0.30639435,0.02716037
1761617630806,0.07134521,-0.00959593,0.08704116,-0.01237215,-0.00090775,-0.00134604,0.93954886,0.15045419,0.30638900,0.02715243
1761617630818,0.08185836,0.03010509,0.04988880,-0.00515318,0.00510617,-0.00694228,0.93954483,0.15042173,0.30642117,0.02710870
1761617630827,0.21905124,0.07611402,0.13712964,-0.02250145,-0.00485773,-0.00420636,0.93956739,0.15032610,0.30640052,0.02709082
1761617630838,-0.18143626,-0.02238249,-0.29341644,-0.00159814,-0.00552392,-0.00853928,0.93958074,0.15031683,0.30636848,0.02704129
1761617630851,-0.11069300,0.02549833,-0.13300835,-0.00501098,-0.01931420,-0.00347134,0.93962465,0.15028626,0.30625067,0.02702012
1761617630860,0.28972713,-0.02340229,-0.16305271,-0.00236590,-0.01523461,-0.00285404,0.93965042,0.15027502,0.30617830,0.02700656
1761617630872,-0.16244060,-0.06973939,-0.01954601,-0.00341717,-0.02290198,0.00837265,0.93969508,0.15025537,0.30604661,0.02705470
1761617630897,-0.10132876,-0.00019086,0.05914793,-0.00261823,-0.00912412,0.00123261,0.93973717,0.15022251,0.30593211,0.02707017
1761617630901,0.00017200,-2.19264562,-3.04811346,-0.03834184,-0.08616836,-0.04616412,0.93982058,0.15013241,0.30572961,0.02696169
1761617630913,0.12213994,0.78874018,0.99046008,-0.00656962,-0.01509539,-0.00690489,0.93985660,0.15009398,0.30564130,0.02692129
1761617630924,0.09276648,-0.11830307,-0.17029733,-0.02260763,-0.02281627,0.00311885,0.93991512,0.14997303,0.30551924,0.02693798
1761617630935,0.07895445,0.01538353,0.17165306,-0.02099252,-0.01839500,-0.01810297,0.93997222,0.14985127,0.30541254,0.02683298
1761617630946,0.03127718,0.03956355,-0.05207096,0.00900856,-0.03389347,-0.00616764,0.94002534,0.14990037,0.30522783,0.02679937
1761617630958,0.07890263,0.07550282,0.03618615,0.00235088,-0.02809668,-0.00812954,0.94007651,0.14991377,0.30506767,0.02675303
1761617630969,-0.05732053,0.09991459,-0.13546793,-0.00158790,-0.02483382,-0.00379083,0.94012534,0.14990456,0.30492364,0.02673104
1761617630981,-0.01925114,-0.02334361,-0.02108611,-0.01248329,-0.02403805,-0.00964496,0.94018217,0.14983403,0.30478782,0.02667655
1761617630992,0.01136449,-0.04321348,-0.03571697,-0.01702150,-0.02682764,-0.00751335,0.94024840,0.14973700,0.30463491,0.02663372
1761617631003,-0.13208786,0.09447951,-0.04769839,-0.02326631,-0.02228829,-0.01409200,0.94031293,0.14960439,0.30450786,0.02655340
1761617631015,0.08805857,-0.00963141,-0.02568375,-0.02231572,-0.02060642,-0.01448819,0.94037351,0.14947719,0.30439041,0.02647081
1761617631026,-0.02138749,-0.00964983,-0.02546130,-0.01908269,-0.02186314,-0.01058297,0.94043126,0.14937128,0.30426907,0.02641208
1761617631037,0.06814860,-0.08488934,-0.01318796,-0.00351688,-0.02529791,-0.02031649,0.94048480,0.14935106,0.30412360,0.02629526
1761617631049,-0.08461280,-0.01091559,0.00140383,0.00452823,-0.02320410,-0.02854317,0.94052799,0.14937687,0.30399134,0.02613256
1761617631061,0.11160409,0.04321497,0.08220131,-0.00975335,-0.02373067,-0.00818222,0.94058749,0.14931542,0.30384184,0.02608101
1761617631072,0.05139338,-0.04124611,-0.11505110,-0.01360908,-0.03341061,-0.01610697,0.94065982,0.14924193,0.30366142,0.02599404
1761617631082,0.12302656,0.05037478,-0.14947152,-0.01633098,-0.05012773,-0.01709192,0.94075216,0.14916354,0.30342081,0.02591200
1761617631093,-0.00645729,-0.01889048,0.13552522,-0.03688804,-0.03095519,-0.00929499,0.94084301,0.14895513,0.30324591,0.02585948
1761617631104,-0.06317586,-0.04342500,0.00137924,-0.03665628,-0.04731551,-0.00838183,0.94096214,0.14874985,0.30298094,0.02581254
1761617631116,-0.07181925,-0.04518295,0.06585099,-0.02734217,-0.04203535,-0.00403459,0.94106361,0.14859537,0.30274344,0.02578975
1761617631126,-0.01099810,0.04992107,-0.04656104,-0.02347782,-0.03485253,-0.00928428,0.94114551,0.14846859,0.30255524,0.02573961
1761617631138,-0.03857632,-0.01348060,-0.02534211,-0.01550492,-0.03510242,-0.00788627,0.94122358,0.14838176,0.30235867,0.02569545
1761617631149,0.00039312,0.07880390,0.05975403,-0.03040452,-0.04374376,-0.01704723,0.94133360,0.14820845,0.30210933,0.02559828
1761617631160,0.06042093,0.10795406,-0.00000000,-0.02072322,-0.04652882,-0.00402131,0.94143605,0.14809240,0.30184876,0.02557576
1761617631171,0.04561580,0.06652304,0.08362897,-0.01298724,-0.05469061,-0.00433490,0.94154629,0.14801967,0.30154250,0.02555148
1761617631183,-0.00760263,-0.09598324,-0.08362897,0.02435716,-0.05378486,-0.02205415,0.94162459,0.14815608,0.30124130,0.02542798
1761617631194,0.09744403,0.02978608,-0.00967529,0.00615871,-0.04640646,0.00999916,0.94170007,0.14819026,0.30098375,0.02548348
1761617631205,0.06308131,0.14581560,0.02479417,0.00745588,-0.05286192,-0.00029004,0.94178811,0.14823201,0.30068772,0.02548185
1761617631216,-0.05061357,0.13869968,-0.08789023,0.03443405,-0.04759772,-0.03007953,0.94184787,0.14842656,0.30041879,0.02531190
1761617631229,-0.05265060,-0.03435064,0.14443798,0.00847899,-0.03357535,-0.02109233,0.94191344,0.14848252,0.30019719,0.02517269
1761617631285,-0.08959127,-0.04199533,0.08434776,-0.00274541,-0.00829228,-0.00505680,0.94200329,0.14840565,0.29996501,0.02503110
1761617631304,0.65147617,0.14266078,-0.74549442,-0.00918262,-0.10090189,-0.02134047,0.94232709,0.14831842,0.29900644,0.02482837
1761617631310,1.06550870,-1.17998484,-0.61053942,-0.08060987,-0.14131049,0.00124213,0.94249082,0.14808868,0.29860371,0.02483191
1761617631332,-0.80285539,0.07943813,0.65941730,-0.00767860,-0.02448703,0.01122856,0.94258482,0.14800537,0.29833802,0.02495374
1761617631349,-0.01178323,0.00396594,-0.03123156,-0.00175089,-0.01267620,0.01040911,0.94261911,0.14799040,0.29822964,0.02504274
1761617631395,-0.02485685,0.01541100,0.07730372,-0.00386781,-0.00419692,0.01237477,0.94265600,0.14790144,0.29813311,0.02532736
1761617631397,20.44922422,-32.99339443,-44.40753992,-0.28687150,-0.44599292,0.35837830,0.94281460,0.14764325,0.29773172,0.02564990
1761617631429,-1.09875715,1.89315989,2.41964126,-0.02465306,-0.02616065,0.00848859,0.94300525,0.14724757,0.29731184,0.02578614
1761617631445,0.12282113,-0.10282431,-0.18282332,-0.01698244,-0.03812977,0.00739690,0.94312384,0.14710831,0.29699918,0.02584679
1761617631465,-0.04821799,-0.06462139,0.12334606,-0.01744088,-0.03973783,-0.00678903,0.94328024,0.14693129,0.29659584,0.02577788
1761617631497,-0.04237288,0.07125650,0.04533431,-0.00105200,-0.02602420,0.00132137,0.94341310,0.14691446,0.29617945,0.02579903
1761617631499,42.69182684,25.26678146,-62.40792575,0.26606158,-0.97349058,-0.22467208,0.94362898,0.14712731,0.29540066,0.02561929
1761617631525,-2.52301573,-1.47964228,3.74946416,0.01919226,-0.06754955,-0.01150514,0.94386580,0.14737393,0.29453265,0.02547145
1761617631567,-0.08652977,-0.02464959,0.10792653,0.00483190,-0.01903022,-0.00020438,0.94397442,0.14747515,0.29413396,0.02546716
1761617631593,0.18107734,0.10328618,-0.18533256,0.00362032,-0.08046432,-0.00414874,0.94429873,0.14752294,0.29307183,0.02541240
1761617631613,0.11034454,-0.08964277,-0.26500751,0.03730389,-0.11658721,-0.00251669,0.94460515,0.14789971,0.29189430,0.02538698
1761617631664,-0.12050303,-0.04446780,0.17448689,-0.00654945,-0.02817053,-0.00133475,0.94485387,0.14773270,0.29117596,0.02535295
1761617631694,0.13910680,-0.02734065,-0.29080215,-0.02718907,-0.08908265,0.00243264,0.94532572,0.14732622,0.28984417,0.02538931
1761617631712,-0.14022970,-0.06659086,-0.05856830,-0.03605605,-0.06887394,-0.00695252,0.94556505,0.14700533,0.28923119,0.02532744
1761617631762,-0.08474506,0.04311059,0.20974403,-0.00173227,-0.00212529,-0.00009059,0.94558745,0.14696323,0.28917955,0.02532524
1761617631766,-2.14738410,-0.79337232,-4.37630097,-0.04167924,0.01247684,0.01229100,0.94559398,0.14684653,0.28921448,0.02535965
1761617631803,0.27122029,0.09474562,0.63538572,-0.01345527,0.01992640,-0.00049206,0.94552082,0.14660030,0.28957914,0.02535065
1761617631846,0.02832256,0.01573109,0.07534851,-0.00772071,0.00444193,-0.00764038,0.94552169,0.14643237,0.28967575,0.02518447
1761617631902,0.00813744,-0.00246889,-0.01308002,-0.00899568,0.00473509,0.00020913,0.94551988,0.14618049,0.28980833,0.02519032
1761617631947,-0.05160098,-0.01636534,-0.06703538,-0.01282342,0.01493903,0.00527207,0.94545874,0.14589453,0.29014147,0.02530789
1761617631985,-0.01436999,0.02623757,-0.08183592,0.00801961,0.01017052,-0.00458723,0.94537758,0.14604811,0.29033624,0.02522005
1761617632007,-0.01143255,0.10346634,-0.21065336,0.00156097,0.00452737,-0.04339898,0.94537230,0.14606512,0.29038558,0.02474700
1761617632040,0.09093926,-0.10814184,0.18336476,-0.02108725,0.00520581,-0.00260055,0.94540107,0.14571296,0.29047252,0.02470357
1761617632068,0.01872710,-0.00194202,-0.01083920,-0.00291831,-0.01892135,-0.00303463,0.94548792,0.14567298,0.29021330,0.02466199
1761617632083,-0.05479180,0.04928477,-0.08899413,-0.02296320,-0.01218634,0.01943863,0.94553867,0.14550076,0.29012190,0.02480778
1761617632104,-0.08568799,-0.00275941,0.10081749,-0.00854878,-0.00204660,0.00988704,0.94555677,0.14540886,0.29009990,0.02491407
1761617632119,0.13038094,0.03039980,0.07246902,-0.01537192,0.00338293,0.00813037,0.94556482,0.14529741,0.29012443,0.02497301
1761617632129,-0.02920704,0.06146857,-0.23314052,-0.00198878,0.01301271,-0.00465993,0.94554682,0.14528737,0.29019014,0.02494948
1761617632144,-0.03441201,-0.03979938,0.26031427,0.01184446,0.00174674,-0.01374198,0.94553186,0.14537620,0.29020324,0.02484642
1761617632156,0.07647212,0.02413898,-0.03078594,-0.00726573,-0.00327280,0.00128034,0.94554511,0.14533007,0.29018246,0.02485455
1761617632160,-0.18553119,-0.89254802,-2.52960411,-0.04198458,-0.03341681,0.01886619,0.94557105,0.14526289,0.29012899,0.02488473
1761617632171,0.10610540,0.22559939,0.60715867,0.00314047,-0.00326096,0.01185380,0.94557217,0.14528001,0.29011122,0.02494934
1761617632186,-0.03715024,-0.02210753,0.03986180,0.00630640,-0.00262164,0.00974498,0.94556892,0.14532857,0.29009103,0.02502437
1761617632199,0.00107919,-0.11643624,-0.07232434,-0.00426813,-0.00188703,-0.00396051,0.94557756,0.14530104,0.29007886,0.02499883
1761617632204,-0.16973924,-0.23804894,-1.36826390,-0.03826020,-0.01434084,-0.00538975,0.94560361,0.14520539,0.29004301,0.02498535
1761617632220,0.03054738,0.20861626,0.45858324,-0.00182828,-0.00626078,0.00713172,0.94561970,0.14519076,0.28999292,0.02504241
1761617632234,0.00812477,0.06379895,-0.04711468,-0.00039955,-0.00697514,0.00196832,0.94563485,0.14518794,0.28994375,0.02505628
1761617632246,0.15322210,-0.01195257,-0.04933866,-0.00592411,-0.01050552,0.00804521,0.94565815,0.14515269,0.28988124,0.02510415
1761617632269,-0.02325931,-0.03304843,0.12348676,-0.00449378,-0.00805574,-0.00004750,0.94569433,0.14510124,0.28978900,0.02510361
1761617632280,0.13099868,-0.03113348,-0.52554624,-0.01685314,-0.04871419,0.00779243,0.94579552,0.14500265,0.28950402,0.02514919
1761617632316,-0.06185201,0.02191865,0.23127778,-0.00085557,-0.00680935,-0.00082584,0.94583534,0.14498742,0.28938282,0.02513449
1761617632328,0.52527306,-0.08542994,-1.07615997,-0.03222919,-0.09729599,-0.03027066,0.94604640,0.14479566,0.28880391,0.02495438
1761617632346,-0.21169018,0.13493385,0.44569032,0.02821911,-0.02663923,-0.00873083,0.94608353,0.14505527,0.28855883,0.02487406
1761617632368,-0.10924517,-0.07140407,0.06788243,0.00225460,-0.02828415,-0.00478032,0.94617553,0.14507996,0.28824911,0.02482171
1761617632383,0.00617417,-0.06319858,0.01823899,-0.01137381,-0.00288790,-0.00296513,0.94619498,0.14499807,0.28822832,0.02480037
1761617632389,-0.49439329,-0.24764731,-0.56642047,0.01659345,-0.02193377,-0.02819409,0.94621082,0.14505200,0.28815704,0.02470873
1761617632437,0.06240736,0.04523400,0.14389966,-0.00278311,-0.00049057,-0.00212085,0.94622600,0.14498506,0.28814524,0.02465773
1761617632481,-0.02837912,-0.01992885,-0.02686732,0.00281932,0.00311869,0.00052476,0.94619537,0.14504695,0.28821369,0.02466925
1761617632507,-0.14625051,0.16077861,-0.03265689,0.00692592,0.00748101,-0.00592227,0.94615442,0.14513595,0.28830982,0.02459315
1761617632532,0.14871618,-0.11643180,-0.05137929,-0.00220442,0.00773843,0.01293813,0.94612553,0.14510894,0.28840462,0.02475164
1761617632553,0.05667247,-0.13589446,0.10665035,-0.01725451,0.00575868,0.00039406,0.94613498,0.14492346,0.28846653,0.02475587
1761617632575,0.04357795,0.02023671,0.03615458,-0.01737513,-0.00013339,-0.00046097,0.94616482,0.14473233,0.28846506,0.02475080
1761617632587,-0.13265268,0.25177172,-0.19782318,0.02928076,0.00354239,0.00022007,0.94613225,0.14490362,0.28848578,0.02475209
1761617632608,0.01320774,-0.00623044,0.08600755,0.01430863,0.01015065,0.00314280,0.94607424,0.14505816,0.28859541,0.02478603
1761617632619,-0.08794276,0.01037713,0.00949109,0.00057854,0.01730643,0.00035511,0.94604601,0.14506119,0.28868627,0.02478790
1761617632631,0.09633979,-0.08228194,0.07305104,-0.03045185,0.02852365,0.02306942,0.94601883,0.14488305,0.28885313,0.02492285
1761617632642,-0.11146752,-0.20856618,-0.04528368,-0.03969465,0.01583011,0.02719476,0.94602188,0.14465084,0.28894574,0.02508194
1761617632665,0.04231307,0.00998958,0.00224607,-0.00104818,0.00853761,-0.00215827,0.94599498,0.14463904,0.28904179,0.02505766
1761617632675,-0.23309021,-0.57205936,-0.30597098,0.00428391,0.02445247,0.01976961,0.94594912,0.14466175,0.28917138,0.02516244
1761617632687,-0.02904868,0.60497960,0.18259171,0.03198986,0.00974459,0.02199675,0.94590047,0.14484569,0.28922741,0.02528892
1761617632698,-0.03803732,0.12449939,0.04317749,0.05799672,0.02083228,0.00917148,0.94581518,0.14516467,0.28934199,0.02533937
1761617632709,0.00148659,0.00566761,-0.09655373,-0.01557408,-0.00227314,0.00238148,0.94583149,0.14508057,0.28932972,0.02535223
1761617632720,0.07496331,-0.13804935,-0.05362919,-0.02242837,-0.00637741,0.00737803,0.94586082,0.14495385,0.28929369,0.02539391
1761617632732,0.05568369,-0.01434965,0.03008995,-0.04439295,-0.01275239,0.02116425,0.94592209,0.14468527,0.28921653,0.02552196
1761617632742,-0.10770168,-0.04624960,-0.26378896,-0.05578624,-0.01538094,0.04353923,0.94598473,0.14439519,0.28913655,0.02574836
1761617632753,-0.11178685,0.09722274,-0.18546793,-0.04305082,-0.00272460,0.04943409,0.94601828,0.14415625,0.28912143,0.02602272
1761617632765,-0.10462865,-0.06837869,0.00437354,-0.01035063,0.01153771,0.04086363,0.94600089,0.14409777,0.28918662,0.02625360
1761617632775,-0.05079808,-0.07341005,0.03785036,-0.04281971,0.02475949,0.04217741,0.94598964,0.14388153,0.28931165,0.02646659
1761617632776,-27.50862550,-24.06821130,-12.41350331,-0.17700008,0.11683523,0.29002716,0.94597690,0.14374878,0.28939928,0.02668411
1761617632787,3.85794780,3.31677547,2.13657647,-0.02225081,0.03099716,0.02463470,0.94594119,0.14363197,0.28956202,0.02681345
1761617632798,0.00566091,0.07519049,-0.01006384,-0.00145955,0.02548744,0.01592778,0.94589539,0.14362365,0.28970729,0.02690423
1761617632809,-0.06203234,0.01003361,0.12202275,-0.00656747,0.03709702,0.01300365,0.94583686,0.14358785,0.28990947,0.02697510
1761617632820,-0.04154163,0.00901400,-0.00820181,-0.01006529,0.04654669,0.02792456,0.94576169,0.14353199,0.29016781,0.02713009
1761617632832,-0.06168067,0.01052389,0.03074117,-0.01638221,0.03719229,0.03124753,0.94570566,0.14343861,0.29037980,0.02730820
1761617632842,-0.06305775,0.04522457,-0.13619890,-0.03611664,0.04995627,0.02416980,0.94564910,0.14324539,0.29064707,0.02743751
1761617632854,0.09121846,-0.02684141,0.01712381,-0.01180176,0.02958739,0.00777526,0.94560502,0.14317635,0.29082016,0.02748299
1761617632865,-0.02619772,-0.03433489,-0.14666752,-0.00477431,0.02227756,-0.00117095,0.94557119,0.14314985,0.29094380,0.02747649
1761617632900,0.18585603,0.09691945,0.08872526,-0.01388632,0.00277366,0.00653074,0.94558931,0.14291170,0.29099136,0.02758849
1761617632910,-1.22644193,-0.06194197,-1.41295086,-0.04022928,-0.01976793,0.03956972,0.94564815,0.14269647,0.29088561,0.02780019
1761617632922,0.82014592,-0.23874281,0.82819371,-0.02624540,-0.02135795,-0.02233293,0.94571300,0.14254425,0.29076173,0.02767066
1761617632933,-0.14104195,0.16539004,-0.11417058,-0.01060017,-0.01208359,0.00535483,0.94574187,0.14248489,0.29069406,0.02770065
1761617632943,0.11185533,0.36536756,0.10329188,0.00627100,-0.00715597,-0.00749677,0.94574969,0.14251813,0.29065614,0.02766092
1761617632966,0.14666479,-0.06095697,0.16391510,0.02070107,-0.00278097,0.00249414,0.94572394,0.14274584,0.29062554,0.02768835
1761617632977,-0.29295642,0.12029581,-0.44064879,0.03208784,0.00787963,0.02182512,0.94567728,0.14293516,0.29067203,0.02781712
1761617633000,0.18665343,-0.10449807,0.28678422,0.00602272,-0.00108085,0.00229291,0.94566998,0.14300321,0.29065982,0.02784303
1761617633011,-0.60639410,-0.05640582,-0.64440727,-0.02118699,0.00675146,0.01278803,0.94567418,0.14288457,0.29069763,0.02791464
1761617633023,0.24595124,-0.03036588,0.18343112,-0.00373290,-0.00176603,-0.00897972,0.94568248,0.14286198,0.29068694,0.02786031
1761617633037,0.23137290,0.02008964,0.16220982,-0.01021087,-0.00608525,-0.00652362,0.94570627,0.14279459,0.29064678,0.02781726
1761617633043,0.61303970,0.01630925,-0.48666973,-0.00020566,-0.02638878,0.01124860,0.94573165,0.14279392,0.29056102,0.02785382
1761617633066,-0.02839761,0.07591290,0.26067049,0.01093318,-0.01159588,-0.00440832,0.94575501,0.14291911,0.29042825,0.02780334
1761617633090,0.00639581,0.03059609,-0.03169581,0.01487055,-0.01311465,-0.00609942,0.94577859,0.14309830,0.29027021,0.02772984
1761617633102,0.14831610,0.29669654,-0.91507919,0.04531305,-0.08961106,-0.06629071,0.94591834,0.14337924,0.28971463,0.02731884
1761617633109,0.17979408,0.04826009,-0.29036824,0.02356647,-0.06850035,-0.05070482,0.94598340,0.14346054,0.28947830,0.02714391
1761617633128,-0.15345163,-0.28273501,0.62295696,-0.00065120,-0.02743385,-0.00510315,0.94606544,0.14345436,0.28921768,0.02709543
1761617633143,0.04375410,0.04700470,-0.05242237,-0.00545109,-0.02380386,0.01218488,0.94612435,0.14341293,0.28903677,0.02718803
1761617633146,0.88012707,2.99657123,-14.87937588,0.06943377,-0.11780346,0.03016466,0.94615385,0.14349625,0.28889540,0.02722423
1761617633167,-0.12872962,-0.33254416,1.71804536,-0.00024869,-0.01497966,0.00079358,0.94620248,0.14349361,0.28873662,0.02723264
1761617633181,0.08258049,-0.02394622,-0.64373101,-0.00704160,-0.06576670,0.00108046,0.94634799,0.14344503,0.28828283,0.02724010
1761617633190,0.02873502,-0.11958052,0.23666235,0.00264465,-0.03375166,-0.01460827,0.94639330,0.14345666,0.28813432,0.02717582
1761617633211,-0.09490231,0.00566117,0.32562503,0.00516647,-0.02108664,-0.00513506,0.94645487,0.14351168,0.28790975,0.02712113
1761617633213,4.80899934,4.84320127,-29.87590838,0.12674874,-0.20221481,-0.07877239,0.94649494,0.14362576,0.28772776,0.02705024
1761617633223,-0.70615907,-0.80579042,4.85247143,0.01077635,-0.02026269,-0.01273352,0.94652010,0.14368126,0.28762340,0.02698466
1761617633232,0.06350800,-0.09459812,-0.14138356,-0.00333361,-0.02413041,-0.00067818,0.94655585,0.14366609,0.28751361,0.02698158
1761617633246,-0.07358781,-0.03997647,0.20937735,0.00314126,-0.02789034,0.00046262,0.94661210,0.14368823,0.28731698,0.02698484
1761617633269,-0.00733811,0.00777494,0.07387325,-0.00550750,-0.01988155,0.00548276,0.94669028,0.14362407,0.28708536,0.02704871
1761617633272,7.29597559,-6.20978154,-43.27188270,-0.13792883,-0.47082138,0.05967547,0.94686022,0.14347925,0.28659100,0.02711137
1761617633283,-1.36178727,1.18876311,7.72687133,-0.01253745,-0.04661186,-0.00435487,0.94695133,0.14340841,0.28632764,0.02708677
1761617633292,0.06779329,-0.16199168,-0.29375234,-0.00606619,-0.05017672,0.02109464,0.94701866,0.14338202,0.28610937,0.02717853
1761617633311,-0.02369793,0.05585889,0.32616425,-0.02170285,-0.02649248,0.00598730,0.94712811,0.14316825,0.28584842,0.02723750
1761617633323,0.03365158,-0.10647439,-0.44227789,-0.03861349,-0.05004240,0.00096305,0.94725350,0.14293657,0.28554817,0.02724328
1761617633325,11.42625094,-5.58286702,-46.01316385,-0.35204105,-0.24478249,0.29331154,0.94733635,0.14269014,0.28537682,0.02744860
1761617633334,-1.58335160,0.76235447,6.62046580,-0.01217328,-0.04135527,0.03686187,0.94740045,0.14263110,0.28517625,0.02762738
1761617633356,-0.04061832,0.09739299,0.30560347,-0.01657917,-0.02365227,0.00827225,0.94750069,0.14245370,0.28492317,0.02771589
1761617633357,10.61810761,-14.40379265,-60.75967658,-0.06852308,-0.53652528,0.12341371,0.94761823,0.14240574,0.28454760,0.02780228
1761617633372,-0.87640191,1.41477755,5.65222534,-0.04070155,-0.03883721,0.02822026,0.94774100,0.14211065,0.28426603,0.02800688
1761617633397,-0.05596315,0.00426570,0.09600369,0.00254203,-0.02815310,0.00035777,0.94784440,0.14214331,0.28390426,0.02801148
1761617633399,54.69580095,30.00282060,-155.41204720,0.35466028,-1.26648528,-0.53997592,0.94806630,0.14237384,0.28308105,0.02766049
1761617633416,-4.03869389,-2.07431888,11.65485672,-0.02058077,-0.05560531,-0.01377748,0.94823896,0.14219685,0.28260284,0.02754200
1761617633441,-0.02779992,-0.05626123,0.07238108,-0.00114077,-0.03185424,0.00588850,0.94835848,0.14218248,0.28220148,0.02761620
1761617633451,0.88161062,0.82273670,-2.03304582,0.04205871,-0.11742019,0.03659550,0.94849198,0.14238646,0.28163199,0.02779369
1761617633462,-0.48891153,-0.53536790,1.06539942,0.04463273,-0.08420528,0.00070060,0.94859329,0.14263417,0.28116465,0.02779758
1761617633484,-0.07155499,-0.15842027,0.32492617,-0.00245844,-0.04829964,0.00601644,0.94875128,0.14260737,0.28063819,0.02786316
1761617633496,0.59337773,-0.15036802,-0.66109153,-0.01203861,-0.11190276,0.00708648,0.94896615,0.14253274,0.27994439,0.02790709
1761617633517,-0.29410944,0.07255095,0.31854002,0.01227176,-0.04596956,0.02033044,0.94908053,0.14265913,0.27947090,0.02811650
1761617633529,0.43468290,0.09375452,-1.06580419,0.03506681,-0.09534325,0.04090670,0.94921522,0.14287830,0.27887501,0.02837216
1761617633541,-0.11130032,-0.08352401,0.51367021,-0.01316808,-0.08805961,0.05486466,0.94936836,0.14280127,0.27835986,0.02869312
1761617633561,-0.18060425,0.05276821,0.40105089,-0.02400480,-0.04592074,0.01399064,0.94953638,0.14255882,0.27789606,0.02883443
1761617633573,0.73817859,-0.21619731,-1.06020920,-0.01152446,-0.12504043,0.02066218,0.94976787,0.14248795,0.27712706,0.02896150
1761617633583,0.23748817,-0.03810821,-0.33975617,-0.06763545,-0.13438307,0.07094385,0.95000345,0.14214977,0.27645515,0.02931622
1761617633596,-0.30670166,0.10032654,0.41809082,0.01301570,-0.10989594,0.01573451,0.95018784,0.14223112,0.27576830,0.02941456
1761617633608,0.06854889,0.02383831,-0.00090718,-0.01796553,-0.10556592,0.00589892,0.95037986,0.14212692,0.27515601,0.02944877
1761617633619,0.36854239,-0.21173469,-0.20553326,-0.02699328,-0.09370023,-0.00126561,0.95056066,0.14197035,0.27461255,0.02944143
1761617633629,0.03847583,0.26838533,0.33197732,-0.03929192,-0.10385100,0.02064824,0.95073663,0.14177390,0.27409330,0.02954467
1761617633639,-0.15874316,-0.32152385,-0.66661844,-0.01264669,-0.12031766,0.00457827,0.95092039,0.14171003,0.27348569,0.02956779
1761617633651,-0.38720738,0.25609489,0.40986473,-0.03023572,-0.09783620,-0.00513286,0.95110390,0.14154071,0.27293781,0.02953905
1761617633661,0.25045188,0.01868973,-0.04968954,-0.02326248,-0.10114709,0.00501510,0.95128315,0.14141160,0.27237644,0.02956688
1761617633674,-0.03711597,0.00963297,0.04080008,-0.01251716,-0.07694203,0.00816775,0.95143075,0.14133337,0.27189556,0.02961793
1761617633685,0.34059797,0.48390381,-0.49046108,-0.01231210,-0.12395191,0.00794400,0.95163769,0.14126442,0.27120143,0.02966242
1761617633696,-0.20440550,-0.17982209,-0.20849361,0.03218385,-0.11808879,-0.01096268,0.95179522,0.14143822,0.27056375,0.02960322
1761617633706,0.25890492,0.22777805,0.30623542,-0.00498510,-0.10469919,-0.01278783,0.95194957,0.14141329,0.27004025,0.02953928
1761617633708,27.41222539,-7.09935653,-40.76169541,-0.01400503,-0.51641660,-0.00674917,0.95211304,0.14139788,0.26947219,0.02953186
1761617633719,-5.69679915,0.74546627,8.20102815,-0.01124847,-0.10899090,0.01052992,0.95228507,0.14133771,0.26888909,0.02958819
1761617633730,-0.19219516,0.30751131,0.06207708,-0.00773111,-0.10286179,-0.02175463,0.95245311,0.14129557,0.26832849,0.02946963
1761617633749,-0.41807990,-0.08624911,0.55413420,-0.00287108,-0.05658666,-0.00210438,0.95261315,0.14126758,0.26777677,0.02944911
1761617633760,0.83767324,0.11514218,-0.90709200,-0.01623603,-0.08786130,-0.00545977,0.95276302,0.14117828,0.26729354,0.02941908
1761617633772,-0.19973451,-0.01535862,-0.01591433,-0.00742332,-0.08673157,-0.00083002,0.95291053,0.14113522,0.26679049,0.02941427
1761617633783,-0.07750097,-0.03435213,-0.54863073,0.02117947,-0.07990190,0.00505490,0.95301439,0.14125065,0.26635503,0.02944182
1761617633793,0.18800161,0.05727756,-0.14649128,0.00453843,-0.11322668,-0.00217443,0.95316786,0.14127312,0.26579456,0.02943105
1761617633803,-0.00077161,-0.27520619,0.26568971,-0.04567748,-0.10986573,0.01507315,0.95336342,0.14103103,0.26521227,0.02951094
1761617633815,-0.12959853,-0.16371108,0.34154035,-0.04828709,-0.11235711,0.01918249,0.95359182,0.14073889,0.26453251,0.02962700
1761617633826,0.26545089,0.00600207,-0.17829819,-0.08674987,-0.13641116,0.02880101,0.95385754,0.14027478,0.26380271,0.02978108
1761617633837,-0.26263671,0.04679693,-0.12876775,-0.09328852,-0.15546810,0.01231141,0.95416398,0.13976636,0.26295541,0.02984818
1761617633850,-0.30944414,-0.08829009,0.29371016,-0.07040197,-0.13160782,0.02267048,0.95445246,0.13932282,0.26212628,0.02999100
1761617633860,0.13119329,0.09073602,-0.51684390,-0.06708618,-0.15323457,-0.00721282,0.95472556,0.13897062,0.26132180,0.02995313
1761617633871,0.02595032,0.11028887,0.02162527,-0.05419480,-0.15725406,0.03130876,0.95498734,0.13868610,0.26049621,0.03011751
1761617633883,0.15326909,-0.15971443,0.29471185,-0.02272918,-0.11496237,0.03337241,0.95518868,0.13854972,0.25980644,0.03031774
1761617633893,-0.09647940,0.39302068,-0.42884275,-0.02220034,-0.12742211,0.04252757,0.95538564,0.13842984,0.25911836,0.03054739
1761617633908,-0.18309231,-0.05840386,0.65844142,-0.01416195,-0.08305159,0.01824129,0.95555698,0.13832858,0.25852454,0.03067781
1761617633918,-0.15718302,-0.14085657,-1.34354061,-0.01790601,-0.14458832,0.02123767,0.95575977,0.13823995,0.25780883,0.03078294
1761617633929,-0.15935807,0.11763038,1.07334035,-0.00178634,-0.07335610,0.01506030,0.95587311,0.13822959,0.25738336,0.03087029
1761617633940,0.09972620,0.29214759,-0.46731452,-0.04078027,-0.08635763,0.02158094,0.95602093,0.13801753,0.25693430,0.03098251
1761617633949,0.33292423,-0.45032464,-0.27086416,-0.01070794,-0.08893990,0.00358870,0.95613989,0.13796720,0.25651628,0.03099938
1761617633959,0.05151803,-0.20560592,0.34297283,-0.01569680,-0.06685577,0.02077480,0.95623843,0.13788793,0.25617866,0.03110429
1761617633972,-0.42747450,-0.01598979,0.43021221,-0.03064246,-0.07042241,0.01572967,0.95638631,0.13768876,0.25572092,0.03120653
1761617633984,0.09224435,0.01427696,0.03782970,-0.05436275,-0.06154444,0.02076509,0.95652897,0.13735986,0.25534857,0.03133216
1761617633994,0.00030905,-0.32723808,-0.80473352,-0.03483969,-0.09363911,0.04560040,0.95667276,0.13718392,0.25487570,0.03156244
1761617634034,-0.11355596,0.14477682,0.54678915,-0.01472237,-0.02147279,0.00771408,0.95682225,0.13689316,0.25445161,0.03171480
1761617634045,2.95917652,-2.84257497,-6.87112663,-0.23561421,-0.41451712,0.17016965,0.95761957,0.13552659,0.25204741,0.03270178
1761617634067,-1.20195697,1.28271670,3.03288273,-0.07639363,-0.10184447,0.04877912,0.95801021,0.13469390,0.25093730,0.03323347
1761617634079,0.19643023,0.45311110,-0.25664023,-0.05396967,-0.12644189,-0.00188232,0.95824633,0.13438088,0.25020394,0.03322256
1761617634101,-0.43729324,0.03609572,0.58571883,-0.01712768,-0.05463218,-0.02812650,0.95844011,0.13419247,0.24960299,0.03291317
1761617634112,0.48471876,-0.33349045,-0.28570821,-0.08478462,-0.08527751,-0.04666089,0.95863608,0.13372616,0.24913396,0.03265653
1761617634123,0.13953532,-0.09768968,-0.46958597,-0.09354754,-0.07849096,-0.02883452,0.95882690,0.13320697,0.24869834,0.03249650
1761617634134,-0.39114798,0.28607532,0.74845288,-0.06642221,-0.05955849,-0.01869106,0.95896469,0.13284497,0.24837374,0.03239463
1761617634144,-0.01643026,0.05095034,-0.22126337,-0.04395516,-0.04165500,0.00936394,0.95905241,0.13261201,0.24815297,0.03244426
1761617634156,-0.23745353,0.09400356,0.19557033,-0.03418894,-0.02864588,-0.01108038,0.95912371,0.13241713,0.24798969,0.03238110
1761617634169,0.02287848,0.02077247,-0.05974515,0.00311467,-0.02550526,-0.01116283,0.95916163,0.13243520,0.24784176,0.03231636
1761617634181,-0.08204847,0.00224924,0.28117169,-0.00250004,-0.03028752,-0.01403550,0.95921952,0.13241845,0.24763883,0.03222232
1761617634201,-0.08684157,0.05177274,0.24379940,-0.00670453,-0.01015988,-0.01387754,0.95926045,0.13235006,0.24753520,0.03208077
1761617634223,-0.03739780,0.13181496,-0.12863374,0.02087355,-0.00014906,-0.02149623,0.95923736,0.13257654,0.24753358,0.03184754
1761617634234,-0.12998050,-0.02222544,0.30937812,0.00973291,0.01949182,0.00335319,0.95920103,0.13263104,0.24764274,0.03186631
1761617634246,-0.12654574,-0.11397412,0.20635193,0.01735956,0.02608593,0.00164117,0.95914495,0.13273693,0.24780186,0.03187632
1761617634248,-6.48226269,2.66416211,5.07927912,0.11309457,0.14541005,-0.03346689,0.95909022,0.13285568,0.24795454,0.03184118
1761617634262,0.98938667,-0.41582140,-0.64170632,0.01476573,0.02865948,0.00402729,0.95902403,0.13295757,0.24815229,0.03186897
1761617634275,-0.02210807,-0.04910890,-0.01204064,0.02281013,0.03221113,0.00027097,0.95894863,0.13310697,0.24836328,0.03187075
1761617634308,0.07613889,-0.03802512,-0.04323712,-0.00225984,0.00957091,0.01227458,0.95890717,0.13307059,0.24851737,0.03206837
1761617634357,-0.01031864,0.02279978,0.02616740,0.02864838,0.02428056,0.00127331,0.95864890,0.13378680,0.24912438,0.03210020
1761617634369,-1.46391690,1.68711232,1.63692842,0.10331297,0.14021999,-0.05553722,0.95836162,0.13439118,0.24994467,0.03177531
1761617634412,0.33250255,-0.43429367,-0.42111232,0.03555996,0.02279568,0.00069956,0.95812618,0.13515394,0.25043364,0.03179031
1761617634431,-0.16595790,0.02433635,0.21140415,0.04829761,0.07326316,-0.00336604,0.95787632,0.13562001,0.25114063,0.03175783
1761617634469,0.08943316,-0.04719521,-0.16798443,0.01127672,0.02165224,-0.00813555,0.95774416,0.13583258,0.25154877,0.03160448
1761617634490,-0.08488448,-0.04748407,-0.10730717,0.02125531,0.03634851,0.00498780,0.95760852,0.13605895,0.25193588,0.03165760
1761617634513,0.02421340,0.02690389,-0.10663372,0.01419366,0.01246569,-0.00080124,0.95754815,0.13622147,0.25207861,0.03164842
1761617634540,0.04463105,-0.03998766,0.03756516,-0.00219076,0.00454344,-0.00036213,0.95753659,0.13619244,0.25213881,0.03164362
1761617634558,-0.04499404,-0.13880573,-0.07507783,-0.01566401,-0.01950457,0.00611421,0.95760209,0.13604911,0.25196035,0.03169957
1761617634601,0.08769828,0.04314084,0.05771000,-0.01712285,-0.00610165,0.00779621,0.95768270,0.13568354,0.25183008,0.03186602
1761617634614,-0.66027420,-0.25070321,-1.33518670,-0.05979361,-0.06831843,0.06780213,0.95784198,0.13528890,0.25137918,0.03231351
1761617634655,0.20443786,0.13417477,0.31197528,-0.00283071,-0.01109404,0.00048024,0.95790966,0.13523073,0.25115119,0.03232338
1761617634670,-0.22434996,-0.12148653,-0.95816199,0.00435548,-0.10182634,0.00284082,0.95809647,0.13526209,0.25041804,0.03234384
1761617634690,0.21539974,-0.00999981,0.38672697,0.00207871,-0.05162203,0.00888495,0.95822917,0.13528350,0.24988634,0.03243535
1761617634722,-0.03191940,0.00373755,0.13568797,-0.00389650,-0.03146042,0.00838203,0.95836201,0.13522233,0.24939241,0.03256695
1761617634747,-0.01875676,-0.01847138,0.06743744,-0.02256403,-0.02173379,-0.00054591,0.95847574,0.13493238,0.24911313,0.03255993
1761617634764,-0.19093335,0.17961777,-1.04643315,-0.01320875,-0.04654779,0.02900129,0.95858718,0.13481878,0.24871282,0.03280934
1761617634780,0.12540096,-0.13919074,0.45088754,0.00133180,-0.04981149,0.01840825,0.95868151,0.13482917,0.24832429,0.03295293
1761617634793,0.18956946,-0.02759253,0.29286255,-0.04062079,-0.04823768,0.00611412,0.95879301,0.13457732,0.24802521,0.03299084
1761617634823,0.01473137,-0.00951420,0.24878948,0.01142667,-0.01872257,-0.01101781,0.95884559,0.13474358,0.24775280,0.03283053
1761617634835,0.00244570,-0.33021332,-0.85381221,-0.08709473,-0.07837695,-0.03268765,0.95907041,0.13416005,0.24722768,0.03261152
1761617634848,-0.07335956,0.07203829,0.37442013,-0.06044749,-0.06173534,0.00979024,0.95922647,0.13376714,0.24682640,0.03267516
1761617634865,0.01370176,0.04589722,0.07299435,-0.03557373,-0.04544497,0.02521904,0.95936294,0.13345942,0.24643330,0.03289330
1761617634868,-2.09232592,-2.65904857,-18.19025038,-0.20236641,-0.23851576,0.11159262,0.95949119,0.13315587,0.24607552,0.03306069
1761617634883,0.38058686,0.73858010,3.63973469,-0.03840793,-0.05993071,0.01680063,0.95963791,0.13287550,0.24563803,0.03318333
1761617634899,0.02754363,0.06391359,0.21926940,-0.03408130,-0.02461144,-0.00001763,0.95972876,0.13259433,0.24543498,0.03318319
1761617634913,-0.09595607,-0.01859996,0.07812598,-0.03711121,-0.03058495,-0.00568956,0.95981874,0.13234011,0.24522548,0.03314422
1761617634925,-0.22702943,0.08274985,-0.11624858,-0.02479025,-0.01923627,-0.01790667,0.95987287,0.13219013,0.24510910,0.03303588
1761617634939,-0.07640520,0.11876103,0.10418519,-0.00299661,-0.01922158,-0.02175977,0.95991503,0.13216931,0.24497551,0.03288465
1761617634940,-49.16092384,10.18687222,-63.16639638,0.25819469,-0.27746635,-0.06053631,0.95994113,0.13235004,0.24478128,0.03284227
1761617634954,4.99921804,-1.17444242,6.51327325,0.01410847,-0.01661750,-0.00827929,0.95995863,0.13244598,0.24466828,0.03278598
1761617634968,0.05583466,-0.12223972,0.01878203,0.01555777,-0.01913812,0.00792439,0.95997596,0.13255566,0.24453336,0.03284184
1761617634980,-0.05610375,-0.10915811,-0.03705303,-0.00464113,-0.01127348,0.00883511,0.95999442,0.13252898,0.24446854,0.03289264
1761617634990,-0.15580274,-0.09642604,-0.16992712,-0.02139243,-0.03483518,-0.00109707,0.96005785,0.13241453,0.24428217,0.03288678
1761617634992,-47.33710522,0.86751682,-41.80916126,-0.07802375,-0.23015552,-0.13748338,0.96011335,0.13235601,0.24410955,0.03278366
1761617635002,6.43567974,0.61307635,5.73502106,0.05752279,-0.01300840,-0.04634441,0.96009731,0.13265800,0.24404126,0.03254035
1761617635014,-0.10839591,0.13144576,-0.02736106,0.08779042,-0.01526351,-0.06049502,0.96006177,0.13315841,0.24395426,0.03219553
1761617635026,-0.27431825,0.08251446,-0.23661446,0.04813055,-0.01038788,-0.04746565,0.96004652,0.13345682,0.24388985,0.03190125
1761617635036,-0.49962351,-0.35651731,-0.40204508,-0.00457843,-0.01497894,-0.05896790,0.96007816,0.13343416,0.24381571,0.03160935
1761617635047,0.38950667,-0.54336545,0.34998033,-0.04307977,-0.00569861,-0.01963886,0.96012217,0.13319937,0.24378465,0.03150232
1761617635059,-0.01271099,-0.60064683,-0.01976643,-0.07337651,-0.01543655,0.00717145,0.96020870,0.13274077,0.24368817,0.03154714
1761617635070,0.03471844,1.18739075,0.23366645,-0.08843876,-0.01191249,-0.03673307,0.96029659,0.13226762,0.24362444,0.03135062
1761617635082,-0.34302071,-0.04345785,-0.44796326,-0.01692624,-0.02816983,-0.06897335,0.96036686,0.13216606,0.24345542,0.03093678
1761617635093,-0.23538754,0.08342347,-0.05648181,-0.00080485,-0.04386027,-0.07734240,0.96044425,0.13216152,0.24320761,0.03049980
1761617635110,0.35977598,-0.28148197,0.38709291,0.01269926,-0.02687245,-0.05720176,0.96049944,0.13226374,0.24299128,0.03003932
1761617635122,-0.45705578,-0.39765486,-0.11883450,-0.00379528,-0.02882543,-0.03357048,0.96055525,0.13223983,0.24280968,0.02982783
1761617635124,-65.42332451,-8.17935700,-38.92608137,-0.20807096,-0.01242902,-0.11990414,0.96058895,0.13204217,0.24279788,0.02971392
1761617635134,11.84928615,1.94258749,6.72212160,-0.00868943,-0.00167225,-0.01418106,0.96059944,0.13199785,0.24278935,0.02964160
1761617635146,0.09904692,0.74353440,0.27941960,-0.02448522,0.01073783,-0.03159673,0.96060924,0.13184972,0.24285431,0.02945044
1761617635157,-0.79680982,0.16224053,-0.37485604,0.02554451,0.01312967,-0.04429990,0.96057967,0.13198766,0.24292521,0.02921122
1761617635168,-0.04228941,-0.15041575,0.01790092,0.04167306,0.03006021,-0.06916024,0.96052063,0.13220644,0.24308303,0.02884813
1761617635201,0.68232810,-0.21434190,0.37755899,0.02536545,0.00805436,-0.02298584,0.96043842,0.13263638,0.24321955,0.02845852
1761617635215,-3.83148684,-0.21636276,-2.16829050,0.03706944,0.06514592,-0.01217068,0.96029586,0.13288475,0.24365603,0.02837697
1761617635238,1.07579683,0.01494658,0.72411334,-0.03132506,0.04781603,0.02763635,0.96019564,0.13252138,0.24421069,0.02869755
1761617635249,-0.38096623,-0.21759998,-0.33992039,-0.00636837,0.03900979,0.06335109,0.96013870,0.13248826,0.24441354,0.02902698
1761617635259,0.44279081,0.35901984,0.26237883,-0.01098641,0.05408617,0.07629657,0.96005921,0.13242839,0.24470831,0.02944280
1761617635271,-0.01003114,-0.10190608,0.00871834,0.00514858,0.05106408,0.07930132,0.95996695,0.13245773,0.24499938,0.02989481
1761617635283,0.17301772,0.08446640,-0.09679371,-0.00929328,0.03022103,0.07172935,0.95991355,0.13240058,0.24518524,0.03033595
1761617635293,-1.26006720,-0.27728498,-0.76964133,-0.05030850,0.03175594,0.08615574,0.95989511,0.13216413,0.24533449,0.03074088
1761617635304,0.76426720,-0.37433675,0.36847203,-0.06269755,-0.00378063,0.09630981,0.95993202,0.13180675,0.24531294,0.03128985
1761617635316,0.29976605,-0.13369653,0.36703913,-0.06932159,-0.02290045,0.10330696,0.96000374,0.13139082,0.24517554,0.03190969
1761617635349,0.68254752,0.15270734,0.39736430,-0.03142321,-0.01587066,0.04334210,0.96011942,0.13086291,0.24490891,0.03263784
1761617635360,-10.78684194,-2.27016351,-6.67387378,-0.21626081,-0.08274765,0.47786867,0.96029891,0.12970592,0.24446621,0.03519443
1761617635383,4.19464119,1.12380064,2.44467400,-0.00354966,-0.03893605,0.05296827,0.96039285,0.12966634,0.24403208,0.03578503
1761617635395,-0.51362471,-0.36980167,-0.26566201,-0.02372834,-0.07243162,0.03848069,0.96051576,0.12952160,0.24359024,0.03601976
1761617635429,0.93111046,0.16102061,0.53762069,-0.01534971,-0.02078235,0.00939719,0.96063339,0.12926296,0.24324006,0.03617810
1761617635438,-6.68124690,-0.99620155,-6.20731687,-0.12631283,-0.17571785,0.07077623,0.96092386,0.12863771,0.24237026,0.03652845
1761617635450,3.96220064,0.87760018,3.86006425,-0.03835898,-0.11764772,-0.02515151,0.96112387,0.12842290,0.24171143,0.03638760
1761617635471,0.87967368,0.11223140,0.66504791,-0.01074956,-0.05717124,-0.01945876,0.96130237,0.12830680,0.24109398,0.03617744
1761617635483,-0.93674954,0.07882898,-0.99414661,-0.04106534,-0.14934479,-0.04111175,0.96156876,0.12806041,0.24019791,0.03593077
1761617635495,0.30969530,-0.05278832,0.19417313,-0.03429060,-0.14050069,-0.00945157,0.96180445,0.12785809,0.23936896,0.03587501
1761617635551,0.27323918,-0.00024902,0.33151629,-0.00487890,-0.02240874,-0.00360472,0.96198102,0.12772246,0.23874599,0.03577480
1761617635562,-8.33532788,0.65847854,-11.91129542,0.23957774,-0.38124004,-0.07374751,0.96234143,0.12905212,0.23663011,0.03536550
1761617635617,1.56812479,-0.15868368,2.15940454,0.00272446,-0.01588668,-0.00517161,0.96244503,0.12912786,0.23618846,0.03522173
1761617635627,-0.73428683,-2.09099189,-5.01282335,-0.13421915,0.01072471,0.10525172,0.96250284,0.12845005,0.23624262,0.03575325
1761617635650,0.59405922,0.91996097,1.69191522,-0.03277272,0.02977127,-0.00236675,0.96247084,0.12808300,0.23657606,0.03572674
1761617635671,0.24129226,0.01293043,-0.23687792,0.01907477,0.03998552,-0.02975386,0.96235128,0.12828519,0.23699991,0.03541135
1761617635683,0.58517431,-0.69200787,0.06160028,-0.08701750,0.01123593,-0.03678444,0.96241527,0.12773698,0.23707069,0.03517961
1761617635717,-0.16894741,0.25482900,0.68578568,-0.05505845,-0.00326835,-0.02275188,0.96256500,0.12681200,0.23701578,0.03479738
1761617635728,2.35229641,-2.20444428,-5.99009553,-0.26526668,-0.12986142,-0.08802806,0.96293510,0.12540608,0.23632752,0.03433083
1761617635738,-1.07793377,1.43812916,3.88735170,-0.13523729,-0.07380993,0.04184464,0.96311616,0.12468933,0.23593633,0.03455261
1761617635761,-0.43911467,0.31466948,0.80454899,-0.02976599,-0.03563341,0.01563273,0.96325484,0.12434553,0.23552476,0.03473316
1761617635796,-0.06164335,-0.00905361,0.12527939,0.00028729,-0.03200672,0.00846431,0.96338375,0.12435048,0.23497264,0.03487917
1761617635818,1.19569191,-0.16592569,-1.33521431,-0.07941450,-0.18379591,0.00309536,0.96398024,0.12348487,0.23296927,0.03491291
1761617635828,1.90241054,-0.64203833,-0.18967761,-0.07108749,-0.21281480,0.00076068,0.96428811,0.12312232,0.23188391,0.03491679
1761617635851,-1.17066099,0.50227648,1.01456207,-0.01499877,-0.10420022,-0.03572346,0.96460946,0.12295133,0.23069603,0.03450954
1761617635861,0.24317056,0.35006003,-0.29890324,0.00754657,-0.11842959,-0.05625748,0.96476634,0.12299171,0.23006243,0.03420857
1761617635885,-0.62622580,-0.00468621,0.46536000,0.02237252,-0.02680379,-0.01873092,0.96481478,0.12325011,0.22975285,0.03399223
1761617635918,-0.09568567,-0.03077051,0.11899273,0.01754832,-0.01034569,-0.01897193,0.96482963,0.12354492,0.22957904,0.03367350
1761617635928,7.18418152,0.02734580,-3.71641033,-0.03749997,-0.18086534,-0.27788188,0.96512152,0.12335367,0.22865663,0.03225630
1761617635951,-2.42570292,-0.17721440,1.39677108,-0.06733255,-0.05068732,-0.07249869,0.96538557,0.12257935,0.22807372,0.03142256
1761617635965,-0.05909135,0.40712939,-0.14973147,-0.03826323,-0.07316376,-0.05672987,0.96555084,0.12231533,0.22756889,0.03103113
1761617636000,-0.53661761,-0.00436622,0.23433726,0.00551365,-0.02805958,-0.02523481,0.96566697,0.12241072,0.22708346,0.03059457
1761617636031,0.30174040,0.01304431,-0.25448569,0.02220004,-0.04469828,-0.04325165,0.96580786,0.12275704,0.22638617,0.02991984
1761617636041,9.15912737,-3.18049282,-0.82903752,-0.27893213,-0.21259334,0.11419187,0.96620259,0.12140422,0.22535509,0.03047367
1761617636061,-3.46697932,1.73962935,0.85817061,-0.08730753,-0.07217530,-0.00841003,0.96648956,0.12050932,0.22461530,0.03038747
1761617636085,-0.32669655,0.18460782,-0.21869077,0.08934352,-0.05038123,-0.09560433,0.96653116,0.12158591,0.22400820,0.02923544
1761617636107,-0.32017945,-0.63493554,0.26652318,0.04553922,-0.03461869,-0.05942960,0.96657595,0.12208911,0.22362567,0.02857874
1761617636128,0.07534752,0.00688261,0.45850653,-0.04423909,-0.03909053,-0.07746959,0.96675224,0.12162682,0.22321717,0.02776918
1761617636139,2.96280426,0.89536958,0.22964632,0.01997093,-0.05320547,-0.12737447,0.96682380,0.12173366,0.22293252,0.02708773
1761617636175,-1.02450607,-0.18246997,-0.22820766,0.01736096,0.00523263,-0.02726546,0.96677670,0.12204355,0.22302592,0.02660104
1761617636207,0.50628237,-0.03992398,0.12118391,-0.03946106,-0.01888298,-0.05732144,0.96695226,0.12140626,0.22272096,0.02567530
1761617636219,4.24484215,-1.42220342,0.92217882,-0.06341185,0.00141652,-0.00042090,0.96699654,0.12103847,0.22272918,0.02567286
1761617636239,-2.76246463,1.55139202,-0.80161652,0.09322282,0.02027450,-0.01810506,0.96683267,0.12199866,0.22293801,0.02548637
1761617636263,-0.04983308,-0.46122552,0.16392231,0.12008802,-0.02604180,0.00370302,0.96672012,0.12344572,0.22262420,0.02553100
1761617636274,1.32217432,-2.67047200,1.74176798,-0.13609363,-0.09627448,0.09394073,0.96691603,0.12272443,0.22211395,0.02602888
1761617636296,-0.94558231,1.10772919,-0.50440648,-0.11434107,-0.06889795,0.02526705,0.96723813,0.12147811,0.22136296,0.02630429
1761617636319,-0.31549008,0.45878093,-0.38752128,0.03481684,-0.09418826,-0.01147039,0.96744121,0.12188373,0.22026567,0.02617066
1761617636329,2.40265080,-0.20136559,-0.63400088,0.55806737,-0.35651459,0.12855702,0.96747349,0.12481358,0.21839396,0.02684559
1761617636341,-0.34476155,-1.79937457,1.72140403,0.06081178,-0.23814990,0.15724343,0.96771093,0.12516325,0.21702460,0.02774974
1761617636373,-0.64956107,0.32813489,-0.24176338,-0.04500551,-0.07969378,0.03738661,0.96807824,0.12442966,0.21572559,0.02835914
1761617636386,2.56766876,0.31263736,0.54651407,0.17281798,-0.55420807,0.16129563,0.96866012,0.12548385,0.21234493,0.02934304
1761617636407,-1.64088566,-0.25363510,-0.39006378,0.05203064,-0.10538666,0.08486817,0.96880711,0.12604318,0.21121202,0.03025537
1761617636419,0.53975125,-1.79816113,1.30080939,-0.06069738,-0.23397958,0.28601735,0.96908957,0.12569720,0.20987833,0.03188567
1761617636430,-1.17574057,0.22060141,-0.22347740,-0.06287645,-0.12151188,0.11158005,0.96926154,0.12534509,0.20919787,0.03251052
1761617636441,-0.64446135,0.99653158,-0.42793752,0.08173149,-0.09586200,0.09403635,0.96929878,0.12578644,0.20868021,0.03301832
1761617636462,0.09922976,0.45387498,-0.34802809,0.04091275,-0.04737765,0.04855030,0.96933257,0.12621807,0.20818038,0.03353052
1761617636463,-55.71162816,-1.52288896,40.58006394,0.16227189,-0.79084464,0.53322365,0.96943647,0.12634789,0.20754770,0.03395710
1761617636485,4.03677110,0.05178282,-2.96781565,-0.00230208,-0.06026345,0.04333335,0.96956348,0.12632280,0.20689083,0.03442944
1761617636496,-0.46555938,-0.64365591,0.61807022,-0.04436694,-0.07914803,0.21347152,0.96964489,0.12608100,0.20645948,0.03559286
1761617636508,0.02045276,-0.27583258,0.06528903,-0.10088760,-0.04473971,0.20566650,0.96973223,0.12549081,0.20619775,0.03679601
1761617636542,0.20257143,0.23129719,-0.28619887,-0.01790390,0.00172594,0.04241789,0.96973779,0.12518107,0.20622761,0.03752983
1761617636552,-11.12022533,-2.69671821,2.79385387,0.14468642,0.11234670,0.28783844,0.96947586,0.12588280,0.20677249,0.03892585
1761617636573,4.23643984,0.70976615,-0.68896672,-0.12123611,0.04338536,0.10102787,0.96950009,0.12459769,0.20723237,0.03999675
1761617636585,-0.46511904,-0.21419788,-0.01486449,-0.13867599,0.07363211,0.16397243,0.96947229,0.12380031,0.20765576,0.04093959
1761617636626,0.56821175,0.39794158,-0.30263452,-0.02722413,0.01665819,0.02773050,0.96944576,0.12323677,0.20800058,0.04151361
1761617636659,-0.55246212,-0.18698524,0.08168837,-0.06755555,0.01199486,0.08466165,0.96948296,0.12213899,0.20819550,0.04288936
1761617636691,0.38315591,0.12347340,0.03191103,-0.02217675,-0.02444150,0.04605341,0.96957921,0.12178194,0.20780199,0.04363082
1761617636737,-0.05645259,-0.00171558,0.03345195,-0.01178510,-0.00343482,0.05355700,0.96957390,0.12150971,0.20772265,0.04486799
1761617636767,-0.11196147,0.08305955,0.17201616,-0.00194122,0.09690867,0.04957740,0.96922798,0.12148040,0.20918597,0.04561661
1761617636798,0.25737232,0.14679084,-0.09304317,0.02833411,0.08319028,-0.01371478,0.96890465,0.12191816,0.21047126,0.04540471
1761617636819,0.51028584,0.01612754,0.30441417,-0.02688325,0.06857856,-0.05765459,0.96881117,0.12163454,0.21119476,0.04479646
1761617636840,0.45538541,-0.16022268,-0.12907790,-0.01546582,-0.03358522,-0.01636989,0.96891478,0.12147447,0.21084715,0.04462703
1761617636863,-0.03291561,0.02664755,-0.06859635,0.00540108,-0.04081862,-0.00641826,0.96901158,0.12153604,0.21038182,0.04455386
1761617636887,-0.02582634,0.03032953,-0.02491214,0.00873186,-0.08412252,0.02025516,0.96920746,0.12164170,0.20936394,0.04479895
1761617636908,-0.11576455,-0.06070094,-0.19169907,-0.00039593,-0.03916636,0.02035725,0.96928871,0.12163744,0.20894290,0.04501779
1761617636919,0.32792137,-0.17777744,0.00962765,-0.00376118,-0.09216276,0.04983443,0.96938497,0.12161732,0.20844983,0.04528440
1761617636930,-0.17824188,0.03627102,0.12325396,-0.02306154,-0.05597850,0.02603879,0.96945964,0.12149163,0.20814475,0.04542631
1761617636942,0.17510315,0.11712015,0.92672026,-0.00532507,-0.00838344,0.07280052,0.96945407,0.12146075,0.20809612,0.04584856
1761617636953,-0.30034972,0.09936585,-0.28278277,0.06959394,0.02321591,0.04186478,0.96936220,0.12186787,0.20823194,0.04609347
1761617636964,-0.14771721,0.13511634,-0.18231764,0.09118658,0.03478639,0.05656481,0.96924847,0.12234660,0.20841456,0.04639043
1761617636976,-0.07095791,0.01868558,-0.18969415,0.04657504,0.04755295,0.02372475,0.96914494,0.12262605,0.20869988,0.04653278
1761617636997,-0.12636201,-0.02023962,-0.25475495,0.01855356,0.02810603,-0.00192282,0.96905889,0.12281808,0.20899078,0.04651288
1761617637007,0.24955246,0.43227320,0.80429122,0.06696373,0.06778190,-0.02481440,0.96894040,0.12317969,0.20935680,0.04637888
1761617637019,-0.02935286,-0.52091129,-0.56850776,0.00023053,0.04799610,-0.04401233,0.96889305,0.12318100,0.20963038,0.04612801
1761617637020,28.45999077,-4.11555880,47.80322385,-0.24524268,0.20897143,-0.06134151,0.96888525,0.12300933,0.20977666,0.04608507
1761617637031,-3.31474810,0.41386835,-5.98707369,-0.02327423,0.02282675,-0.01506982,0.96887811,0.12287899,0.20990449,0.04600068
1761617637042,0.39873926,0.11502015,0.13921500,-0.02646016,0.00632336,0.02143747,0.96888303,0.12274405,0.20993674,0.04611001
1761617637052,0.04262878,-0.06076846,-0.20064924,-0.00921102,0.00432471,0.00318680,0.96888345,0.12269477,0.20995988,0.04612706
1761617637064,0.11976634,0.09747650,-0.02386043,0.00550460,0.00215052,-0.01905740,0.96888191,0.12272780,0.20997278,0.04601272
1761617637076,0.33205419,0.03930531,-0.14548010,0.01430848,-0.03265587,-0.01945685,0.96891715,0.12280935,0.20978664,0.04590181
1761617637087,0.01323396,0.03611494,-0.20024549,0.01662889,-0.06326702,-0.02396357,0.96898897,0.12290331,0.20942918,0.04576642
1761617637098,0.14472860,-0.12454943,-0.08784852,0.01616597,-0.09626005,-0.02741306,0.96909908,0.12299222,0.20889975,0.04561565
1761617637108,0.28598926,0.28910731,-0.22296963,-0.01040744,-0.07951061,-0.01999272,0.96919696,0.12293966,0.20849822,0.04551468
1761617637120,-0.20589737,0.01442889,0.04724593,-0.01718877,-0.07887736,-0.00305547,0.96931547,0.12283395,0.20801313,0.04549589
1761617637154,-0.36404275,-0.09227844,-0.05220988,0.00781751,-0.03932546,-0.00981726,0.96944691,0.12296411,0.20735836,0.04533244
1761617637175,1.13373159,0.04197103,-0.08322774,-0.00184393,-0.15913730,0.00367435,0.96981867,0.12294392,0.20561580,0.04537267
1761617637187,0.57357642,0.17599203,-0.09973474,-0.03038911,-0.23569333,0.00028601,0.97013508,0.12276463,0.20422521,0.04537436
1761617637198,-0.50228539,-0.03173515,-0.41438545,0.02298951,-0.18619029,0.01129801,0.97033118,0.12289107,0.20320117,0.04543650
1761617637210,-0.73248720,-0.09307858,0.09319532,0.01670550,-0.11271356,-0.00819837,0.97045562,0.12298629,0.20255870,0.04538976
1761617637244,-0.51671158,-0.04361512,0.13851648,-0.00516062,-0.03265190,-0.01153132,0.97059317,0.12289753,0.20199709,0.04519143
1761617637278,0.31582144,0.06974361,-0.04725573,0.00205933,-0.07033392,-0.01061072,0.97084446,0.12293243,0.20080493,0.04501157
1761617637312,0.03075104,-0.06052573,-0.02659320,-0.00049788,-0.06057477,0.00664595,0.97105149,0.12292402,0.19978121,0.04512389
1761617637321,4.03689454,0.11806856,-1.56965511,-0.01203888,-0.10523322,0.03864989,0.97115394,0.12286623,0.19927609,0.04530941
1761617637342,-1.92721685,-0.16621046,0.56887970,0.01342167,-0.03556698,0.01300977,0.97120628,0.12300716,0.19890264,0.04544601
1761617637364,-0.17685905,-0.16306523,0.01751581,-0.00624700,-0.03196797,0.01302206,0.97127955,0.12293907,0.19855419,0.04558795
1761617637377,0.17919045,-0.07575004,-0.01677109,-0.03011219,-0.03837917,0.00437777,0.97134992,0.12275388,0.19831816,0.04561488
1761617637399,-0.34006731,0.12659830,0.17420063,-0.01274720,-0.02034386,0.01022200,0.97140959,0.12260983,0.19808827,0.04573039
1761617637410,0.69447222,-0.23176509,-0.05303690,-0.01381110,-0.03323369,0.01062712,0.97145288,0.12253525,0.19790881,0.04578777
1761617637433,-0.29882839,0.09022436,0.08418562,-0.01590829,-0.02886280,0.00933765,0.97153769,0.12235390,0.19757978,0.04589422
1761617637443,1.30139592,0.05369631,-0.28710220,-0.06410428,-0.06987950,0.02533514,0.97164720,0.12202056,0.19721640,0.04602596
1761617637454,-0.22983345,0.20772002,-0.06725406,-0.02802095,-0.07318617,0.02364890,0.97174371,0.12186364,0.19680656,0.04615840
1761617637491,-0.39104321,-0.00877998,0.12323345,-0.00231878,-0.01270856,0.00522720,0.97179168,0.12182109,0.19657336,0.04625432
1761617637525,0.21732294,0.05523494,-0.01092335,0.01423660,-0.02699873,0.00929644,0.97184699,0.12206525,0.19611033,0.04641375
1761617637568,0.03609054,0.13116047,-0.00093402,0.04018629,-0.00375315,-0.00060170,0.97175563,0.12292322,0.19603020,0.04640090
1761617637607,-0.03818667,-0.08342317,0.02792911,0.03966965,0.02055300,-0.00956738,0.97158716,0.12368885,0.19642687,0.04621625
1761617637664,-0.07351439,-0.04628927,-0.01591928,0.03343652,0.00928291,-0.01074384,0.97142664,0.12464012,0.19669097,0.04591059
1761617637692,0.65254248,0.09277093,-0.41658009,0.04090450,0.03554919,-0.04799737,0.97128259,0.12521687,0.19719221,0.04523383
1761617637729,-0.31668674,-0.10137938,0.12425974,-0.01795289,-0.00674065,-0.01855511,0.97136703,0.12488295,0.19706684,0.04488870
1761617637774,-0.01819872,-0.05760017,0.03066030,-0.01612992,-0.01324986,0.00096320,0.97147235,0.12452244,0.19677070,0.04491023
1761617637812,0.12497202,-0.00855392,-0.11004070,-0.03199807,-0.00710152,-0.00137544,0.97158028,0.12390488,0.19663364,0.04488369
1761617637833,0.57855813,-0.14965563,0.00159327,-0.04418621,-0.00484569,-0.03194184,0.97166426,0.12344534,0.19658325,0.04455149
1761617637882,-0.29206162,0.14498872,0.10843050,0.00438646,0.00095639,-0.01872589,0.97166679,0.12355303,0.19660673,0.04409177
1761617637915,0.19739096,0.06174978,-0.10141496,0.01735619,-0.02771548,-0.04635800,0.97175607,0.12383594,0.19615497,0.04333613
1761617637945,0.04214479,0.01428171,-0.15027969,0.03138923,-0.05520331,-0.03487763,0.97188766,0.12431305,0.19531588,0.04280599
1761617637993,-0.14876555,-0.03693834,0.11100772,-0.00274231,-0.04983044,-0.01923500,0.97215642,0.12424710,0.19411745,0.04234339
1761617638027,0.20650398,-0.11484711,-0.22081915,-0.01587110,-0.05118886,-0.02959256,0.97238465,0.12397888,0.19325236,0.04184328
1761617638057,-0.14339600,0.11917598,-0.12930407,-0.02055771,-0.06121731,-0.04114346,0.97263231,0.12367051,0.19233410,0.04122613
1761617638067,3.30966578,-2.17907376,-4.47097129,-0.08583581,-0.11272339,0.11007973,0.97277032,0.12325421,0.19178739,0.04176001
1761617638112,-0.88534597,0.44619037,1.06679156,-0.07410383,0.00314227,0.01979891,0.97294736,0.12158317,0.19185825,0.04220648
1761617638134,0.18295899,0.11040856,-0.93252854,-0.00481411,-0.16144515,0.00916037,0.97329811,0.12153021,0.19008236,0.04230724
1761617638155,-0.18323581,0.26251052,0.49463634,-0.09616323,-0.17315518,0.01285378,0.97378001,0.12050127,0.18822960,0.04244478
1761617638167,0.03449646,-0.43956417,-1.19650611,-0.02694271,-0.25669073,-0.03869237,0.97409026,0.12034769,0.18676646,0.04222423
1761617638179,-0.24157916,0.02887965,0.81721523,-0.02235402,-0.26474781,-0.07848719,0.97443316,0.12021245,0.18516473,0.04174938
1761617638190,0.15634825,-0.63354835,-0.11002398,-0.02275744,-0.25762521,-0.04552269,0.97473546,0.12008387,0.18370915,0.04149218
1761617638200,-0.49547338,-0.35953862,-0.24980522,-0.00442145,-0.27983325,0.00837360,0.97500431,0.12006132,0.18228200,0.04153489
1761617638212,0.03716654,0.03086036,0.62598802,-0.03394133,-0.19548658,0.04545392,0.97523819,0.11985598,0.18109931,0.04180988
1761617638223,0.41718994,-0.75182794,-0.77444346,-0.07223134,-0.25778562,0.05050917,0.97553177,0.11946593,0.17970727,0.04208263
1761617638257,-0.31168023,0.32641100,0.65131262,-0.03952063,-0.10472176,0.00935198,0.97592967,0.11880001,0.17794270,0.04224021
1761617638267,-0.17669859,-0.33439444,-8.28007208,-0.11180193,-0.76151705,-0.00585445,0.97668535,0.11824100,0.17413512,0.04221094
1761617638277,-1.38747719,0.13061662,3.42933499,-0.01393521,-0.40579081,-0.02586261,0.97707749,0.11816784,0.17200472,0.04207516
1761617638289,0.66721274,-0.10492378,2.09608703,-0.01845725,-0.20496561,0.02179466,0.97729536,0.11805986,0.17080567,0.04220266
1761617638300,-0.31812538,-0.66062729,-0.09906687,-0.04097405,-0.19259403,0.02885701,0.97749837,0.11783655,0.16975603,0.04235993
1761617638311,-0.51372070,-0.21722760,-0.24883346,-0.07384951,-0.17934969,-0.00984908,0.97771837,0.11743407,0.16877857,0.04230625
1761617638323,0.21520470,0.26669421,0.51855113,-0.07905736,-0.15265929,0.02090868,0.97793441,0.11694392,0.16783209,0.04243589
1761617638366,0.23506633,0.18042083,0.53348188,-0.02820141,-0.04463350,0.01624268,0.97815673,0.11633477,0.16686800,0.04278673
1761617638398,-0.33410374,-0.51843044,-0.75419388,-0.28259870,-0.14106842,0.14740025,0.97895277,0.11185558,0.16463207,0.04512302
1761617638428,0.28187727,0.19848654,0.21659110,-0.12343854,-0.17158786,0.03438076,0.97957404,0.10998548,0.16203251,0.04564389
1761617638431,11.63545615,-15.89073206,-53.22144763,-0.76647204,-2.10261066,1.08504975,0.98004811,0.10902739,0.15940425,0.04700020
1761617638462,-0.30652902,1.24586362,5.02707592,-0.14188020,-0.24623313,0.16555182,0.98076540,0.10686372,0.15564919,0.04952487
1761617638479,0.45393786,-0.78462265,0.44270277,-0.39870672,-0.60032296,0.26670301,0.98181969,0.10343484,0.15048642,0.05181852
1761617638491,-1.20401642,2.41844722,-0.21139306,-0.20971600,-0.52059167,0.22066894,0.98235872,0.10216606,0.14733684,0.05315356
1761617638511,0.30717866,-0.44865458,-0.19514720,-0.03473739,-0.29654681,0.17985890,0.98273975,0.10181521,0.14434171,0.05497014
1761617638523,-0.17195598,0.64352054,1.46006971,-0.19352587,-0.20876451,0.15073104,0.98300191,0.10060568,0.14303694,0.05591221
1761617638545,-0.25639546,-0.04478199,-0.09221002,-0.13434510,-0.14513996,0.07937090,0.98332102,0.09918162,0.14149845,0.05675354
1761617638546,11.95270481,-4.39854117,112.43916397,-0.91208044,-1.87170587,0.56857970,0.98363092,0.09831514,0.13972033,0.05729369
1761617638567,-1.70936006,1.43678319,-9.74898625,-0.05661763,-0.08333815,0.06014207,0.98377154,0.09774330,0.13887862,0.05790112
1761617638578,0.29958891,-1.46202495,0.05792303,-0.06338871,-0.11975244,0.12096337,0.98386108,0.09738833,0.13820800,0.05857852
1761617638590,-0.00506240,0.13764970,0.23097180,0.00585300,-0.08587969,0.01435369,0.98392260,0.09742228,0.13770990,0.05866177
1761617638602,0.16384662,0.27353944,-0.04406873,0.09230619,-0.04955311,0.00247784,0.98390756,0.09800380,0.13739772,0.05867738
1761617638613,-0.12736035,-1.35481324,0.47312271,0.25286842,-0.06928661,0.04612111,0.98381162,0.09931872,0.13703743,0.05891721
1761617638634,0.15126007,0.22240891,-0.74041963,0.08978625,-0.02276769,0.03378285,0.98372554,0.10028841,0.13679154,0.05928206
1761617638646,0.68140619,0.14307874,5.87951990,0.04469974,-0.06310313,0.16906720,0.98368909,0.10055661,0.13641292,0.06029647
1761617638658,-0.65238822,0.74396110,-2.72279656,-0.14697114,-0.02589662,0.01878117,0.98378739,0.09972622,0.13626660,0.06040258
1761617638668,-0.51604250,0.63960834,-0.07210268,-0.09442873,-0.01657827,-0.07732501,0.98387688,0.09921631,0.13617708,0.05998503
1761617638679,-0.08842332,0.43767140,-0.18801969,0.03271108,-0.00819207,-0.14381569,0.98391125,0.09938804,0.13613407,0.05922999
1761617638690,0.03118209,-0.43895424,-0.77236485,0.11912935,-0.00464586,-0.12618375,0.98388971,0.10004921,0.13610828,0.05852967
1761617638700,0.00558198,-0.39453316,0.37976577,0.15531279,-0.01084811,-0.10763189,0.98384738,0.10087237,0.13605079,0.05795922
1761617638713,-0.07660986,-0.08555759,-0.41908349,0.08587691,0.00981090,-0.07101665,0.98380856,0.10142627,0.13611407,0.05750117
1761617638724,0.07449269,0.19935852,1.22794468,0.07121143,0.03979016,-0.03604140,0.98375314,0.10179301,0.13631899,0.05731555
1761617638736,-0.05078362,-0.08807506,-0.83167808,0.04973842,0.04706798,0.02391550,0.98367139,0.10210388,0.13661316,0.05746503
1761617638746,0.06805166,0.69314423,3.01900002,0.10759684,0.13207693,0.08816125,0.98350632,0.10261496,0.13724053,0.05788379
1761617638757,0.00119366,-0.36608980,-1.62438417,0.13508838,0.12417685,0.04832291,0.98330693,0.10339847,0.13796076,0.05816406
1761617638768,-0.21234941,0.25888277,0.31616468,0.15430898,0.11461401,0.01448993,0.98312061,0.10426261,0.13860259,0.05824521
1761617638780,0.17724751,-0.14870653,-0.11683132,0.17167367,0.12364946,0.00326324,0.98291741,0.10523256,0.13930121,0.05826365
1761617638792,-0.25608512,-0.01102757,-0.36658054,0.18726355,0.10351527,-0.04740014,0.98272827,0.10633742,0.13991195,0.05798398
1761617638813,0.23354091,-0.34656840,-1.19148522,0.10814127,0.05181906,-0.02238575,0.98254006,0.10747831,0.14045864,0.05774782
1761617638823,-0.86437440,0.58663962,8.27159398,0.31565639,0.21818366,0.02267473,0.98218251,0.10915129,0.14161502,0.05786799
1761617638835,1.73978479,-1.51741548,-5.15304403,0.05748319,0.15474750,0.15981870,0.98194897,0.10950193,0.14255898,0.05884289
1761617638847,0.28554964,-0.31347067,0.70752001,-0.05188405,0.16101965,0.21160773,0.98177366,0.10920360,0.14348484,0.06005963
1761617638857,0.10286880,0.53660229,1.23993646,-0.13362045,0.24310540,0.18512934,0.98160738,0.10851545,0.14473683,0.06101305
1761617638894,-0.28053786,0.18368292,-1.56034091,-0.01398455,0.07047623,0.01770961,0.98142140,0.10825534,0.14604769,0.06134244
1761617638931,0.06550856,0.35870322,1.00835155,0.13709700,0.26412521,-0.09699711,0.98051668,0.11077107,0.15089439,0.05956255
1761617638964,1.00540399,-0.51758543,0.84547376,-0.08883243,0.44623136,0.00451210,0.97951853,0.10930978,0.15823490,0.05963677
1761617638974,3.35703894,10.27559405,8.34427488,0.72246448,1.11305046,-0.88958692,0.97850884,0.11274148,0.16352188,0.05541123
1761617639003,-1.81566558,-2.75873943,-4.30307171,0.18578917,0.23085207,-0.20540847,0.97779098,0.11544472,0.16688078,0.05242254
1761617639027,0.94247711,-1.53040409,0.39516241,-0.04470042,0.24569862,0.03776043,0.97732200,0.11490831,0.16982917,0.05287567
1761617639054,-0.66377615,0.72805912,-0.81306945,-0.13398208,0.10636173,0.00964089,0.97727428,0.11305936,0.17129696,0.05300871
1761617639056,183.85657375,217.78033598,248.52005480,1.08414907,2.36524609,-1.78523613,0.97691641,0.11392668,0.17318915,0.05158052
1761617639078,-13.76868413,-15.14416996,-18.49706327,0.27237223,0.18573232,-0.20796664,0.97631878,0.11690915,0.17522292,0.04930329
1761617639094,-0.05880649,-0.62106601,0.21566685,0.11941160,0.16659189,-0.11485910,0.97601169,0.11785848,0.17654733,0.04839016
1761617639111,0.02786368,-0.55257674,-0.38469881,0.06823000,0.14744765,-0.00627481,0.97570612,0.11845890,0.17784487,0.04833494
1761617639113,106.46888037,-45.81877112,78.88584428,0.11219383,1.63852653,0.42962799,0.97540467,0.11855988,0.17931954,0.04872160
1761617639134,-9.12234334,3.75958001,-7.07001150,-0.06185604,0.13349479,0.05963248,0.97519827,0.11792585,0.18068786,0.04933284
1761617639136,45.21811881,-3.98845207,42.25754156,-0.70497324,1.12102156,0.10753308,0.97503697,0.11704463,0.18208914,0.04946725
1761617639149,-8.66692683,1.77412797,-8.00363181,-0.06390599,0.21079334,-0.01593406,0.97484137,0.11664203,0.18341714,0.04936687
1761617639162,-0.40982283,0.39764712,-0.26412226,0.01330815,0.20003765,-0.06505591,0.97460499,0.11672919,0.18472739,0.04894075
1761617639167,7.38442679,1.17677252,2.01574715,0.20340699,0.56351245,-0.25081808,0.97432510,0.11720720,0.18605164,0.04835133
1761617639200,-1.40361765,-0.39351739,-0.63749760,0.03417594,0.07177366,-0.05499889,0.97407330,0.11777452,0.18724308,0.04743835
1761617639202,106.39835905,-0.76522433,64.03078154,0.60224875,2.99634303,-2.07754703,0.97354659,0.11834666,0.19008961,0.04546468
1761617639246,-4.52539052,-0.02603759,-2.72020570,0.00384793,0.07698512,-0.01762593,0.97321692,0.11843266,0.19181023,0.04507074
1761617639281,0.68197097,-0.28260096,0.27107723,-0.09966963,0.31414200,-0.05544936,0.97237268,0.11668844,0.19730771,0.04410038
1761617639293,3.35884338,0.26402045,-0.36477434,-0.13616872,0.62520477,-0.36938518,0.97183863,0.11592590,0.20080886,0.04203182
1761617639343,-1.08367228,0.13332062,-0.14954649,0.00165804,0.07432925,-0.07767609,0.97152869,0.11596751,0.20267452,0.04008215
1761617639375,0.60366984,-0.14334319,0.01988959,-0.05415691,0.11548976,-0.08024555,0.97129291,0.11508746,0.20455123,0.03877816
1761617639411,-0.26194949,-0.09772168,0.04199351,-0.06663465,0.03445000,-0.03759888,0.97132988,0.11390137,0.20516444,0.03810890
1761617639445,-0.05868610,0.15297514,0.03201883,-0.03073114,0.02479468,-0.02162426,0.97131607,0.11337279,0.20559091,0.03773696
1761617639491,-0.04875608,0.10362080,0.04402049,-0.03951951,-0.00075314,-0.05246445,0.97147220,0.11245989,0.20557351,0.03652503
1761617639527,0.07752842,-0.07747822,0.06233667,-0.01032259,-0.01223357,-0.06861913,0.97158622,0.11227357,0.20535270,0.03528646
1761617639537,2.49239496,-0.41552351,2.30732892,0.11314414,-0.03035540,-0.05448724,0.97156308,0.11282797,0.20520395,0.03501947
1761617639599,-0.68013338,0.14606952,-0.41256076,0.02201163,0.00322465,-0.00047116,0.97146414,0.11350263,0.20530279,0.03500503
1761617639632,-0.01731529,0.06959256,0.07156864,0.07007577,0.00348693,-0.00686329,0.97131982,0.11466238,0.20536050,0.03489144
1761617639669,-0.11311080,-0.03049278,-0.05534320,0.04744902,0.00184547,-0.02840465,0.97122630,0.11554968,0.20539501,0.03436027
1761617639682,-1.30590755,0.76484884,0.86152592,0.14277539,0.07873866,0.01196323,0.97101286,0.11644203,0.20588712,0.03443504
1761617639729,0.27335560,-0.22889821,-0.27578018,0.00920530,-0.01443020,0.00055416,0.97105837,0.11665881,0.20554729,0.03444809
1761617639802,0.03846634,-0.02891340,-0.01282862,-0.00500280,-0.01421823,0.01594893,0.97117038,0.11647421,0.20502264,0.03503661
1761617639816,-1.95613831,0.24605559,0.98663324,0.12621804,-0.37006718,0.17967087,0.97154461,0.11731987,0.20254319,0.03624040
1761617639862,0.48421105,-0.03809820,-0.26261545,-0.00705859,-0.05766434,0.00189433,0.97183876,0.11715717,0.20121403,0.03628407
1761617639890,-0.16334398,0.06241520,0.04620223,0.03019361,-0.07406413,0.01401620,0.97199338,0.11757686,0.20018454,0.03647889
1761617639922,0.01305320,-0.01169423,-0.06389162,0.02251529,-0.03317844,0.02426063,0.97204301,0.11792810,0.19966695,0.03685736
1761617639935,-1.08398346,0.44281798,-0.04227690,0.07468921,-0.03479726,0.03957084,0.97201925,0.11844345,0.19942685,0.03713040
1761617639950,0.67819965,-0.38481312,0.16192402,0.02379333,-0.00540107,0.01643045,0.97200023,0.11863023,0.19938445,0.03725938
1761617639967,-0.02760589,-0.15908212,-0.05009682,0.01527034,-0.01428651,0.03624705,0.97199744,0.11875927,0.19926373,0.03756567
1761617639982,0.24394593,-0.07345284,-0.06008962,0.01604187,0.00127911,0.03074318,0.97197302,0.11887397,0.19927288,0.03778548
1761617640016,0.20058356,0.01805510,-0.05231685,0.00615339,-0.00090573,0.00771407,0.97195819,0.11897919,0.19925739,0.03791739
1761617640034,-1.44119427,-0.03851602,0.09265422,0.01881007,-0.01222514,0.05141987,0.97194174,0.11914942,0.19914675,0.03838274
1761617640038,-4.28725343,1.27400812,0.28501558,0.01541439,-0.02711561,0.02931708,0.97194676,0.11918025,0.19909252,0.03844137
1761617640064,1.49611185,-0.18913012,-0.12238350,-0.01036940,-0.00978280,0.01585038,0.97198115,0.11904545,0.19896534,0.03864743
1761617640079,-0.02351035,-0.05376258,-0.01083822,-0.03245757,0.00146005,0.01345604,0.97200451,0.11880364,0.19897622,0.03874768
1761617640104,0.14114258,0.00759374,-0.02236090,-0.01510033,-0.00423450,-0.00221363,0.97204048,0.11860960,0.19892181,0.03871923
1761617640106,-63.29997815,-1.03392599,-24.01250867,-0.14436685,-0.12965229,-0.12946460,0.97208483,0.11847967,0.19880512,0.03860271
1761617640144,3.01848062,0.10083228,1.09693252,-0.00859703,-0.00492282,-0.00566802,0.97212824,0.11831589,0.19871134,0.03849474
1761617640164,-0.35441177,0.07766465,0.09924794,0.00669602,-0.00037585,-0.01251877,0.97212583,0.11838218,0.19870762,0.03837080
1761617640188,0.13904493,-0.00618853,0.02159634,0.01874350,0.01202824,-0.01535277,0.97207677,0.11860430,0.19885016,0.03818887
1761617640200,-0.91087661,0.01734515,0.26041423,0.02521180,0.04725198,-0.04338632,0.97201211,0.11875178,0.19912658,0.03793506
1761617640213,-0.30736714,0.21479611,0.01114439,0.00862550,0.05416559,-0.03207901,0.97193900,0.11880958,0.19948949,0.03772013
1761617640255,0.37018505,-0.04627567,-0.04925220,0.02938330,0.01694238,-0.00996229,0.97179871,0.11942516,0.19984443,0.03751142
1761617640266,-1.29903905,0.37013869,0.55111039,0.09112755,0.08802319,0.03870835,0.97162287,0.11994458,0.20034616,0.03773206
1761617640291,0.44210641,-0.11668864,-0.22611230,0.06055603,0.04015740,-0.01780601,0.97143334,0.12070456,0.20085014,0.03750859
1761617640302,-1.63325087,0.41726588,0.48013424,0.00733236,0.12742875,-0.04165021,0.97129198,0.12074489,0.20155100,0.03727952
1761617640316,0.89628143,-0.27427987,-0.18230451,0.00835972,0.06253459,0.00302682,0.97119224,0.12080382,0.20199187,0.03730086
1761617640332,0.23304661,-0.06237591,-0.10582177,0.03110370,0.05622071,0.00339380,0.97106892,0.12104799,0.20243320,0.03732750
1761617640347,0.07828046,-0.05370027,0.03207305,0.02584726,0.05182070,0.01457177,0.97096234,0.12123667,0.20281149,0.03743387
1761617640358,-0.21952983,-0.10767916,-0.02537266,0.05153262,0.08084996,-0.00070934,0.97083524,0.12151753,0.20325212,0.03743001
1761617640363,-3.29565682,-0.24970686,1.07025034,0.03923211,0.09977006,0.01813364,0.97077028,0.12161365,0.20349656,0.03747443
1761617640377,1.35401375,-0.05763583,-0.41741036,0.00992278,0.05535236,0.00525629,0.97067754,0.12168410,0.20388956,0.03751175
1761617640404,0.16819089,0.00273691,-0.06003057,0.00526571,0.02359408,-0.00483442,0.97060365,0.12175571,0.20421044,0.03744601
1761617640415,-2.29030355,-0.15342437,0.84726081,0.06059960,0.16793634,0.00568043,0.97037011,0.12208295,0.20511730,0.03747668
1761617640426,1.53218116,0.19858588,-0.37998030,0.02818529,0.09047813,0.00212849,0.97024938,0.12223233,0.20559683,0.03748796
1761617640437,0.10055558,0.05737836,-0.19508644,0.03211870,0.06214001,-0.01006585,0.97015507,0.12241220,0.20594481,0.03743159
1761617640446,-0.16515870,0.09742101,-0.12199120,0.01720742,0.06325533,-0.03348294,0.97008561,0.12249565,0.20625160,0.03726920
1761617640457,0.24148591,-0.11025615,-0.08214746,-0.00120830,0.05965677,-0.00574953,0.97001785,0.12248901,0.20657972,0.03723758
1761617640469,0.10031135,-0.04506683,-0.01758705,-0.00502473,0.03053792,-0.01724009,0.96998632,0.12245861,0.20676447,0.03713327
1761617640481,-0.03479246,0.00492015,-0.06296616,0.02623101,0.03004152,-0.01886004,0.96993413,0.12261075,0.20693871,0.03702389
1761617640503,0.26074078,-0.01346207,-0.04078599,0.00262574,0.01684331,0.00059745,0.96989048,0.12263976,0.20712483,0.03703049
1761617640513,-2.28462325,0.21357203,-0.62798971,0.03033516,0.03906779,-0.05493235,0.96983848,0.12279599,0.20732603,0.03674759
1761617640524,1.11410936,0.23970965,-0.03073689,0.05192519,0.00579441,0.00472458,0.96979608,0.12307119,0.20735674,0.03677263
1761617640536,0.18350078,0.03409832,0.13420795,0.02950713,0.01937049,0.00955518,0.96974780,0.12324381,0.20747006,0.03682852
1761617640539,-8.28125312,0.55614020,-0.12169989,0.10745691,0.03688683,-0.02392498,0.96971063,0.12343723,0.20753645,0.03678546
1761617640561,1.74971111,-0.27990779,0.19622928,0.00717540,0.00553011,0.00088581,0.96968761,0.12351472,0.20759618,0.03679503
1761617640571,-1.24988900,0.09871930,-0.28272831,0.02882257,0.00845199,-0.00253171,0.96966122,0.12365595,0.20763759,0.03678262
1761617640584,0.56882104,-0.10448493,0.11834608,0.01112481,0.01354546,-0.00207361,0.96963343,0.12372882,0.20772631,0.03676904
1761617640604,0.18603105,-0.04513844,0.03035694,0.00194196,0.01592334,0.01460761,0.96959086,0.12374844,0.20788714,0.03691658
1761617640615,-1.79151160,-0.13836228,-0.09108105,-0.03043571,0.04774632,-0.00462526,0.96955621,0.12357800,0.20815452,0.03689067
1761617640627,1.13990168,0.04824954,0.10363800,-0.02468269,0.02542653,-0.00777967,0.96954399,0.12342866,0.20830835,0.03684361
1761617640638,-0.19784903,0.28449403,0.05906558,-0.02452106,0.01491294,-0.06695763,0.96955708,0.12329748,0.20838813,0.03648538
1761617640648,-0.07221768,0.22612465,-0.05821105,0.00429479,0.01445435,-0.04984269,0.96954798,0.12331938,0.20846185,0.03623119
1761617640681,0.35756367,-0.08730386,0.01764079,0.00691244,-0.00078412,-0.01465140,0.96954528,0.12343240,0.20844903,0.03599164
1761617640683,-185.56802991,4.10956249,-10.98153911,-0.21019961,0.02357376,-0.48980528,0.96957906,0.12325373,0.20846907,0.03557530
1761617640705,13.32770507,-0.39671427,0.77486657,0.01104627,-0.00941904,-0.03446640,0.96960037,0.12337910,0.20836216,0.03518411
1761617640716,-1.52447183,0.15163123,-0.29163763,0.03953358,-0.01730114,-0.01363104,0.96959588,0.12359456,0.20826787,0.03510982
1761617640728,0.82284857,-0.33633597,0.10084274,0.02865454,-0.01694579,-0.01194370,0.96959842,0.12376936,0.20816450,0.03503696
1761617640739,0.00794998,-0.01433707,0.46724225,-0.01075457,-0.01580661,0.00690470,0.96962190,0.12371343,0.20808231,0.03507287
1761617640749,0.21496650,-0.08590703,0.01069120,-0.01894675,-0.01346915,0.00586735,0.96964890,0.12361301,0.20801092,0.03510396
1761617640761,0.13207989,0.06986677,-0.01555719,-0.02645111,-0.02842693,0.01521897,0.96970238,0.12345431,0.20784036,0.03519528
1761617640774,-0.17161599,-0.01735465,0.21219553,-0.07376185,-0.02480601,0.02520117,0.96978707,0.12300067,0.20768780,0.03535026
1761617640785,-0.68802812,-0.28200147,-0.08503278,-0.06408171,-0.04488705,0.00171269,0.96988332,0.12265143,0.20744317,0.03535960
1761617640796,0.41194045,0.04293758,0.12382798,-0.06120576,-0.01680511,0.01506133,0.96994257,0.12231479,0.20735074,0.03544244
1761617640806,-0.61117727,0.84957408,-0.09749606,-0.06014661,-0.02904509,0.01942019,0.97001250,0.12199301,0.20719535,0.03554633
1761617640818,0.06803946,-0.25941673,-0.08167991,-0.00990899,-0.00132511,0.03320211,0.97001431,0.12193504,0.20718760,0.03574057
1761617640830,0.20733089,-0.07810883,0.12832988,-0.00921258,0.00025822,0.04841334,0.97001021,0.12188023,0.20718913,0.03602863
1761617640835,-6.98641445,-2.35754398,1.89065817,-0.00719427,0.01846920,0.09498318,0.96999211,0.12186044,0.20723992,0.03628983
1761617640854,2.66531441,0.53919714,-0.55533208,-0.01341827,0.02512986,0.04057947,0.96994441,0.12173767,0.20746986,0.03666113
1761617640867,-0.55453876,0.20525654,0.34495056,-0.02707294,0.05154810,0.07306944,0.96987459,0.12155628,0.20781523,0.03715070
1761617640869,-99.80894969,-9.44756135,12.34706867,0.15302638,0.50276476,0.36777714,0.96974752,0.12169400,0.20826772,0.03748170
1761617640880,15.96287919,1.85502353,-2.19853019,0.04229608,0.08619018,0.05183269,0.96960530,0.12192663,0.20874177,0.03776678
1761617640893,0.42426839,0.26110087,-0.07176390,0.02895044,0.07117993,0.03278543,0.96947256,0.12211626,0.20920800,0.03798152
1761617640906,-0.19112116,-0.10066397,-0.21915686,0.05512717,0.06173456,0.00605207,0.96933502,0.12248561,0.20962162,0.03802207
1761617640913,-4.76976179,-0.32881056,-1.11792226,0.15905303,0.14046376,-0.00787688,0.96916166,0.12303434,0.21010622,0.03799489
1761617640928,2.43443057,0.10203033,0.36343011,0.05949603,0.10323700,-0.01737213,0.96894769,0.12346866,0.21085985,0.03786808
1761617640940,-0.39018658,0.04750772,0.17334451,0.10448136,0.13964686,-0.00472517,0.96868816,0.12409033,0.21169075,0.03783996
1761617640951,0.16149336,0.55789440,-0.10474344,0.13783153,0.14945889,0.00162711,0.96839772,0.12488286,0.21255014,0.03784932
1761617640958,-1.71788523,0.30927249,-0.03522829,0.26240806,0.27584992,0.05302164,0.96808822,0.12572256,0.21343286,0.03801899
1761617640976,1.42960198,-0.45262405,0.02660842,0.06411364,0.06765547,0.00045993,0.96787499,0.12630920,0.21405190,0.03802320
1761617640988,-0.48361189,-0.03177038,0.13671208,0.04412713,0.03451445,-0.03280264,0.96779926,0.12658500,0.21426762,0.03781818
1761617640992,-9.34211575,2.31392530,3.20434570,-0.02258664,-0.01184366,0.04127901,0.96780619,0.12654547,0.21424689,0.03789042
1761617641002,3.21451930,-0.42621982,-1.29613651,-0.01020048,0.00225981,0.09902498,0.96779023,0.12649243,0.21425864,0.03840535
1761617641014,0.49517705,1.12497399,-0.18136114,0.00172823,0.01993623,0.14376831,0.96772777,0.12650280,0.21437826,0.03926796
1761617641028,-0.77960400,-1.23989434,-0.08885698,0.12608181,0.02560002,0.06792040,0.96755787,0.12736015,0.21455234,0.03972982
1761617641045,0.89601754,0.64226102,-0.04362818,0.14035826,0.00223588,0.01963527,0.96739099,0.12853916,0.21457112,0.03989475
1761617641056,1.60668983,2.27049475,-1.09351208,0.20461496,-0.05757591,0.05366569,0.96729708,0.12968501,0.21424870,0.04019528
1761617641068,-0.90976358,-1.57688732,0.70949326,0.18758101,-0.11517173,0.12581699,0.96726799,0.13076360,0.21358646,0.04091873
1761617641070,14.90835982,25.80762340,-16.04790272,1.02200752,-0.54940748,0.73737435,0.96720893,0.13199001,0.21292717,0.04180358
1761617641088,-1.68025629,-4.04752490,2.20235715,0.12183621,-0.07013158,0.06620583,0.96717127,0.13309262,0.21229248,0.04240274
1761617641108,0.26734494,-0.09491381,0.01673540,0.10183756,-0.06927170,0.09885645,0.96713855,0.13411100,0.21159976,0.04339131
1761617641117,2.63251970,2.44414254,-1.86509581,0.45164648,-0.32002042,0.10887769,0.96714658,0.13618857,0.21012767,0.04389214
1761617641119,17.76007360,20.40380485,-2.89588265,1.00309049,-0.76861614,-0.37089053,0.96718622,0.13714151,0.20939748,0.04353980
1761617641129,-5.63420747,-6.14291743,1.82026311,0.16034072,-0.13748062,-0.09351279,0.96724173,0.13794321,0.20871008,0.04307223
1761617641139,0.85900625,0.76720154,0.84942795,0.11764478,-0.12713089,-0.07640860,0.96730946,0.13851379,0.20809350,0.04270165
1761617641179,-0.36286608,-0.30322407,0.06565252,0.02473667,-0.03162327,-0.03916629,0.96740983,0.13901471,0.20745313,0.04190853
1761617641208,0.68777342,-0.04891520,0.36402065,-0.02747322,-0.08128348,-0.15593612,0.96781148,0.13861909,0.20628264,0.03966305
1761617641219,4.75592946,-3.14024399,6.36238436,-0.36194127,0.05306274,-0.27294997,0.96807746,0.13673700,0.20655857,0.03824371
1761617641239,-2.44298989,1.37669523,-2.05273697,-0.04618042,0.06699702,-0.07389053,0.96802581,0.13625210,0.20726204,0.03746786
1761617641252,0.22946812,0.46126396,0.79893351,0.02600008,0.09472566,-0.09312368,0.96789731,0.13641590,0.20785881,0.03688118
1761617641274,-0.59949214,-0.20769059,-0.90668441,0.01891904,0.05488882,-0.03851707,0.96775675,0.13662023,0.20845161,0.03646520
1761617641284,1.60023018,-0.14929860,3.63137987,-0.03475336,0.13976568,-0.08209818,0.96764586,0.13644646,0.20915044,0.03605471
1761617641296,-0.15822488,-0.15582958,-0.92225761,-0.03188581,0.12002813,-0.04641467,0.96752127,0.13624558,0.20990661,0.03576230
1761617641306,0.41157118,0.18603989,1.21686915,-0.05200815,0.12337336,-0.07848528,0.96743742,0.13598294,0.21052965,0.03536595
1761617641318,-0.23038461,0.17517249,-0.87156428,-0.03243990,0.07449246,-0.06737966,0.96738347,0.13579317,0.21096543,0.03497177
1761617641328,0.27969332,0.26874944,0.64247201,-0.01486903,0.05362664,-0.09400223,0.96735164,0.13571734,0.21123893,0.03449236
1761617641339,0.06192188,0.31451818,0.21410855,0.01990288,0.02339438,-0.12536851,0.96733234,0.13582780,0.21136877,0.03379657
1761617641351,0.31734962,0.46586538,0.95204887,-0.02344242,0.02179508,-0.13103373,0.96734929,0.13569769,0.21148973,0.03306933
1761617641352,206.49471398,40.64389223,413.15211029,-0.06102303,0.13741599,-1.17254888,0.96736108,0.13565803,0.21157905,0.03230717
1761617641362,-25.66512898,-5.74731446,-50.92193651,-0.05539361,0.02017768,-0.15094406,0.96740396,0.13537275,0.21168296,0.03152981
1761617641374,-0.33771584,-0.41455859,-0.89324740,-0.05060012,0.03356163,-0.09636763,0.96742042,0.13507927,0.21187762,0.03097088
1761617641385,0.99976248,-0.07525206,2.56697736,-0.08431469,0.03117129,-0.09400418,0.96746352,0.13461975,0.21204750,0.03045856
1761617641396,-0.14968861,0.28694578,-0.45600059,-0.01243293,0.04140230,-0.12493224,0.96744325,0.13454702,0.21228971,0.02972770
1761617641406,0.66408666,0.20281271,1.96285512,0.06105829,0.02590579,-0.11436075,0.96738917,0.13485537,0.21242053,0.02915018
1761617641417,-0.79682255,-0.74886962,-1.66891054,0.10003797,-0.01369325,-0.05541952,0.96733799,0.13540557,0.21234522,0.02884537
1761617641430,-0.36543791,1.21606813,-0.16879369,0.00426637,-0.02063453,-0.01817042,0.96736549,0.13543181,0.21221832,0.02873363
1761617641440,0.69348542,1.71943297,1.84183989,0.03793224,-0.01421853,-0.02401338,0.96735770,0.13563096,0.21214367,0.02860756
1761617641451,-0.29498217,-0.63995165,-0.85656335,0.14166261,-0.02575562,0.00617023,0.96727674,0.13642427,0.21199944,0.02864211
1761617641462,0.02394464,-0.80232810,0.58927187,0.13249353,-0.01210988,-0.03886454,0.96719608,0.13713973,0.21193404,0.02843224
1761617641474,0.30757714,-1.05945263,-0.15994011,0.08953296,-0.01361857,-0.02859956,0.96714359,0.13766798,0.21185370,0.02826350
1761617641485,0.90672895,0.24436851,1.07413360,0.00476324,-0.02746725,0.03078891,0.96716753,0.13769370,0.21170537,0.02842976
1761617641496,-0.23027198,0.39308567,-0.15179460,0.06971214,-0.05330753,-0.03025160,0.96718201,0.13808060,0.21140952,0.02826187
1761617641507,-0.22236643,0.74847547,0.39776474,0.15924547,-0.05877361,-0.07298290,0.96713921,0.13894849,0.21108920,0.02786411
1761617641518,-0.13824238,-0.08622711,-0.05279994,0.10852422,-0.06099574,-0.08060559,0.96713910,0.13955622,0.21074762,0.02741272
1761617641529,0.16537190,0.05821432,0.47816328,0.05339198,-0.03907045,-0.10132763,0.96715984,0.13986056,0.21052492,0.02683515
1761617641540,0.51983547,-0.08488207,0.11403676,0.05411144,-0.05874240,-0.08200934,0.96719872,0.14015276,0.21020771,0.02639230
1761617641552,-0.00816579,-0.42928480,-0.29636191,0.05532352,-0.06463337,-0.06764523,0.96724264,0.14046257,0.20984577,0.02601349
1761617641563,-0.19425207,-0.43647117,-0.06178323,0.02088937,-0.08677295,-0.10567142,0.96734760,0.14058060,0.20935550,0.02541644
1761617641575,0.06281572,0.15715849,-0.10569609,0.01206473,-0.08224143,-0.13231757,0.96746330,0.14065238,0.20886616,0.02462915
1761617641585,0.88231093,0.03660395,1.26240682,0.01526246,-0.10144027,-0.11857834,0.96758212,0.14073251,0.20833360,0.02400662
1761617641596,-0.25743413,-0.23335808,-0.42411222,0.02279614,-0.10634997,-0.06311192,0.96769608,0.14085561,0.20775931,0.02366581
1761617641609,-0.67679079,0.79111187,-1.26497806,-0.01265936,-0.06572044,-0.05217581,0.96780446,0.14077586,0.20734527,0.02333711
1761617641619,1.25859059,0.04865685,2.26993229,0.00105195,-0.05600886,-0.05166204,0.96787311,0.14078138,0.20705123,0.02306588
1761617641631,-0.43472920,-1.08169365,-1.51468446,0.04205592,-0.05824019,-0.04372245,0.96791545,0.14102320,0.20671634,0.02281448
1761617641645,-0.77735835,-0.23393714,-1.49083868,-0.03193940,-0.06514374,-0.03648710,0.96805803,0.14078845,0.20623754,0.02254630
1761617641657,0.69803202,0.25878785,2.38197762,-0.11437887,-0.10642815,-0.05076513,0.96829238,0.14012505,0.20562025,0.02225186
1761617641659,82.66571950,10.48508456,175.84890416,-0.65746076,-0.47385499,-0.23743546,0.96855332,0.13927035,0.20500424,0.02194319
1761617641682,-11.16697736,-1.08510206,-23.46598045,-0.05027731,-0.06333600,-0.07089567,0.96879832,0.13871478,0.20430438,0.02115980
1761617641688,12.34826040,3.02439631,28.53297420,-0.03255874,-0.21691083,-0.22641070,0.96896390,0.13861711,0.20365365,0.02048056
