UnixTime(ms),Ax,Ay,Az,Gx,Gy,Gz,QuatW,QuatX,QuatY,QuatZ
1761617715672,0.00000000,0.00000000,0.00000000,0.00000000,0.00000000,0.00000000,0.95860023,0.05913588,0.27489930,0.04493230
1761617715682,-2.26709167,0.12679353,-2.81399833,-0.02269527,0.02036680,-0.00556048,0.95857911,0.05902127,0.27500215,0.04490422
1761617715693,0.95212550,-0.10811422,1.22142436,-0.00307707,0.01817066,-0.00049549,0.95855136,0.05900419,0.27510300,0.04490147
1761617715704,0.06862678,-0.06544928,0.26357226,0.00240873,0.01263140,0.01179845,0.95852756,0.05901744,0.27517247,0.04496636
1761617715716,0.16274250,0.00467086,0.12455619,0.00803190,0.01320698,0.02223395,0.95849690,0.05906363,0.27524841,0.04509421
1761617715727,-0.07642299,0.13021989,0.00522268,0.01320737,0.00795041,0.01509267,0.95847557,0.05913759,0.27529294,0.04517873
1761617715739,0.04927087,0.15734573,0.04547072,0.03531979,0.00998160,0.00981001,0.95844415,0.05933891,0.27534983,0.04523464
1761617715750,0.08072036,0.01742826,0.02201464,0.04796175,0.01551664,0.00516677,0.95840038,0.05961229,0.27543828,0.04526409
1761617715762,-0.00068387,0.19285840,-0.03518809,0.01490207,0.00781128,0.00037914,0.95838188,0.05969872,0.27548358,0.04526629
1761617715773,0.02505567,0.18712101,-0.12617917,0.02834330,0.01231377,-0.00952451,0.95835491,0.05985603,0.27555192,0.04521343
1761617715784,0.01665973,-0.01198658,0.01923802,0.03680251,0.01598587,-0.00202197,0.95831613,0.06006580,0.27564304,0.04520191
1761617715795,-0.01795101,-0.09017681,0.08077955,0.02433883,0.02148839,-0.01316828,0.95827607,0.06020332,0.27576445,0.04512751
1761617715807,-0.06721802,-0.14330508,0.07468669,0.02719916,0.03041669,-0.02275642,0.95822298,0.06035699,0.27593631,0.04499893
1761617715818,-0.04564944,0.07763685,0.04561580,0.03295903,0.02002962,-0.01978361,0.95818423,0.06054156,0.27604847,0.04488814
1761617715829,-0.05558157,0.00567235,0.01453723,0.04153116,0.01414044,-0.01117381,0.95814931,0.06077621,0.27612837,0.04482501
1761617715840,-0.02374982,-0.03043156,0.00053824,0.04099253,0.03345200,-0.01237415,0.95808395,0.06100577,0.27631570,0.04475572
1761617715852,-0.06981872,0.05163467,0.08162188,0.04629738,0.03670021,-0.00439479,0.95800859,0.06126735,0.27652305,0.04473089
1761617715863,-0.10441847,0.00539922,0.06970202,0.05449406,0.06394620,-0.00664052,0.95788732,0.06157252,0.27688115,0.04469370
1761617715874,-0.26229085,-0.07887732,0.06842370,0.03606933,0.06899436,-0.00900154,0.95776490,0.06177451,0.27726752,0.04464329
1761617715885,-0.06971869,-0.10175228,0.10956270,0.02286849,0.07975353,-0.01149511,0.95762902,0.06190372,0.27771813,0.04457834
1761617715896,-0.00585889,-0.08858960,-0.06005365,0.02922524,0.09180197,-0.00900098,0.95747435,0.06206445,0.27822304,0.04452884
1761617715908,0.11773338,-0.04072971,0.08833398,0.00457206,0.08697068,-0.00536958,0.95733116,0.06209029,0.27871442,0.04449850
1761617715919,-0.06757293,-0.05210531,-0.03876967,0.00901420,0.10117881,-0.00987951,0.95716680,0.06214032,0.27927597,0.04444367
1761617715930,-0.05174585,0.01630970,0.02698592,0.01321069,0.09614397,-0.00760766,0.95700671,0.06221429,0.27981437,0.04440107
1761617715941,0.04561580,0.05701975,0.02280790,0.03409819,0.11561348,0.00257608,0.95680407,0.06240524,0.28046181,0.04441549
1761617715952,-0.11403950,0.15490365,-0.01520527,0.03992836,0.11283090,0.00102130,0.95660375,0.06262884,0.28109366,0.04442121
1761617715963,-0.01807207,-0.08515986,0.04250218,0.05186408,0.12268885,-0.00608398,0.95638608,0.06291669,0.28177458,0.04438745
1761617715975,0.13575152,-0.07383030,0.18595630,0.02200172,0.11280138,0.01110129,0.95618874,0.06303990,0.28240627,0.04444961
1761617715986,-0.04561580,-0.07697666,-0.05321843,0.02729528,0.11293318,-0.00860704,0.95599387,0.06319275,0.28303870,0.04440141
1761617715997,0.11784082,0.05559426,0.10643687,0.01827187,0.11097878,0.00567217,0.95580141,0.06329507,0.28366018,0.04443318
1761617716008,0.01074649,-0.00552010,-0.05556383,0.01931506,0.11870965,-0.00390522,0.95559953,0.06340227,0.28431902,0.04441150
1761617716019,0.05397185,-0.03444301,0.03986246,0.01659163,0.10466800,-0.00401834,0.95541982,0.06349519,0.28490516,0.04438900
1761617716031,0.03842474,0.06716554,0.05266124,0.02431487,0.10502939,-0.01583185,0.95524090,0.06363013,0.28548807,0.04430113
1761617716042,0.04554731,0.01326180,0.00863002,0.03698925,0.09910257,-0.01490995,0.95506491,0.06383727,0.28604304,0.04421764
1761617716053,0.04692517,0.04128413,0.02225317,0.03281816,0.09909663,-0.00555058,0.95488925,0.06401941,0.28659303,0.04418683
1761617716064,0.12075173,-0.05136914,0.10719028,0.02642610,0.09659322,-0.00815675,0.95471891,0.06416740,0.28713395,0.04414115
1761617716075,0.26517215,-0.13054735,0.21693390,0.01396614,0.08738544,-0.00882164,0.95456996,0.06424491,0.28761894,0.04409219
1761617716086,0.11352581,-0.22081454,0.01308201,0.02072323,0.08303131,-0.00525068,0.95442328,0.06436096,0.28808392,0.04406279
1761617716097,0.03801317,-0.04371514,-0.02280790,0.00156542,0.08180543,-0.00776823,0.95428630,0.06436973,0.28854203,0.04401929
1761617716109,-0.12968349,-0.01705702,-0.15273142,0.01918013,0.06785479,-0.00265500,0.95416584,0.06447618,0.28891862,0.04400455
1761617716120,0.10191638,-0.00115152,-0.02349282,0.00139172,0.07013147,-0.00793217,0.95404835,0.06448397,0.28931136,0.04396013
1761617716131,0.04181448,0.03563734,0.07602633,0.00894468,0.05714591,-0.02868341,0.95395525,0.06453406,0.28963138,0.04379951
1761617716142,0.16345662,0.05606942,-0.02280790,0.00399198,0.05949022,-0.01869941,0.95385733,0.06455642,0.28996452,0.04369479
1761617716153,-0.00034555,0.02134612,0.04740894,0.00264346,0.04000560,-0.01765508,0.95379330,0.06457109,0.29018655,0.04359680
1761617716165,0.12198459,-0.02115553,0.02904069,-0.00896741,0.04114278,-0.02698846,0.95373347,0.06452087,0.29041695,0.04344567
1761617716175,-0.04568121,0.02618376,-0.02156208,-0.00357786,0.03324887,-0.01791107,0.95368312,0.06450101,0.29060148,0.04334626
1761617716187,0.15093458,0.09868799,0.06966211,0.00362024,0.02840495,-0.01975699,0.95363869,0.06452111,0.29075913,0.04323661
1761617716198,0.02873247,0.04445143,0.04356103,0.00095770,0.01413884,-0.00948951,0.95361659,0.06452647,0.29083831,0.04318347
1761617716209,0.13742372,-0.03033896,0.01022817,-0.01131510,0.01535899,-0.03050419,0.95360249,0.06446367,0.29092355,0.04301417
1761617716220,0.12771387,-0.12964893,0.06192188,-0.01685221,-0.00242889,-0.00184884,0.95361338,0.06437014,0.29091007,0.04300391
1761617716231,0.10735370,0.05339509,0.12091169,-0.05130220,-0.00054861,0.00967058,0.95363138,0.06408028,0.29090697,0.04305855
1761617716242,0.06486728,0.02933412,0.12459723,-0.04601001,0.00044985,0.00784439,0.95364578,0.06382493,0.29090947,0.04310209
1761617716254,0.02322070,0.03483106,0.07740235,-0.02235396,0.00287458,0.00434109,0.95364812,0.06370086,0.29092542,0.04312618
1761617716265,0.11941614,0.03016653,0.12328594,-0.01295805,-0.00793251,0.00673984,0.95366481,0.06362830,0.29088100,0.04316392
1761617716276,0.08462426,0.11420734,0.15425182,-0.00767656,0.00736568,-0.02382535,0.95366115,0.06358569,0.29092188,0.04303169
1761617716287,-0.04205421,0.03886504,0.09040969,0.01428683,0.00921378,-0.03434046,0.95364873,0.06366570,0.29097347,0.04283938
1761617716298,-0.24008549,0.18767046,0.13324261,0.00454921,0.00946526,-0.05966848,0.95364583,0.06369095,0.29102601,0.04250822
1761617716312,-0.08751122,0.09763563,0.04167986,0.01798633,0.02487709,-0.03807256,0.95360143,0.06380336,0.29118149,0.04227027
1761617716320,-0.18280869,0.24100320,0.31291140,0.06711711,0.04332252,-0.03070688,0.95352200,0.06412888,0.29139160,0.04212134
1761617716331,-0.06280831,-0.12332545,-0.03938967,0.05608637,0.05943180,-0.03163318,0.95340995,0.06443455,0.29171551,0.04194894
1761617716342,-0.00511282,-0.12398578,0.05886839,0.04541673,0.07479190,-0.01618162,0.95326972,0.06468661,0.29213060,0.04185913
1761617716354,-0.12060891,-0.01105161,0.06324819,0.03862538,0.06931972,-0.01960046,0.95313963,0.06490485,0.29252226,0.04174839
1761617716365,-0.02142866,-0.13179720,0.10522583,0.06328563,0.07286523,-0.03441260,0.95299853,0.06525925,0.29293030,0.04155568
1761617716376,-0.01814118,0.00200849,0.12356732,0.04888817,0.07325564,-0.05120547,0.95286719,0.06553058,0.29333687,0.04127149
1761617716387,-0.05805176,-0.04934400,-0.06966211,0.03717851,0.07484694,-0.05209255,0.95273748,0.06573692,0.29375227,0.04098238
1761617716398,-0.06822730,-0.04693150,-0.13483975,0.03625025,0.06651293,-0.05402949,0.95262046,0.06594173,0.29412807,0.04067711
1761617716410,-0.01910750,-0.02215192,-0.09984343,0.02496121,0.06055350,-0.03635860,0.95251468,0.06608151,0.29446717,0.04047350
1761617716421,0.12356732,-0.08612739,0.05224658,0.01891457,0.05590305,-0.03603155,0.95241990,0.06618649,0.29477743,0.04027353
1761617716432,0.01058204,-0.03628374,-0.05938273,0.02710002,0.04039762,-0.02106460,0.95234427,0.06633825,0.29500366,0.04015556
1761617716443,0.17508826,0.05547744,0.02895677,0.03060246,0.04869338,-0.01424804,0.95225200,0.06650809,0.29527391,0.04007649
1761617716454,0.06237348,-0.02353724,-0.05638508,0.02192332,0.02564108,-0.01779824,0.95220263,0.06663196,0.29541878,0.03997593
1761617716465,0.31577418,0.05492227,0.04192056,-0.00273611,0.01227461,-0.01437100,0.95218590,0.06661678,0.29548690,0.03989617
1761617716476,0.23854284,-0.00823220,-0.06496999,0.00761721,0.01708489,-0.02500008,0.95215956,0.06665867,0.29558087,0.03975867
1761617716488,0.06400035,-0.04241924,0.08086437,-0.00295316,0.00137470,-0.02322029,0.95216374,0.06664213,0.29558857,0.03962863
1761617716499,-0.02280790,-0.02375823,0.07602633,-0.03185535,0.00577906,-0.02320064,0.95217156,0.06646374,0.29562093,0.03949871
1761617716510,-0.04561580,-0.01758109,0.09883423,-0.02486533,-0.00371057,-0.02890311,0.95219443,0.06632450,0.29560015,0.03933685
1761617716521,0.04671785,0.05106741,0.11596530,-0.01889549,0.00166803,-0.04292503,0.95220866,0.06621963,0.29560941,0.03909862
1761617716532,-0.05031153,0.07449976,0.00774023,-0.01204892,-0.01158482,-0.05166562,0.95224500,0.06615275,0.29554511,0.03881188
1761617716543,0.07578661,0.29940077,0.21191484,-0.01400847,0.00470436,-0.03347375,0.95224989,0.06607431,0.29557146,0.03862442
1761617716555,-0.02660922,-0.18436386,-0.12924477,0.01173272,-0.00245027,-0.04291699,0.95225931,0.06614001,0.29555774,0.03838409
1761617716566,-0.14445003,-0.00285099,-0.06842370,0.00969601,-0.01108732,-0.03482300,0.95228264,0.06619431,0.29549565,0.03818908
1761617716577,0.07602633,0.07270018,-0.01520527,0.01204971,-0.00830840,-0.03671820,0.95230061,0.06626179,0.29544912,0.03798346
1761617716588,-0.05024242,0.02678847,-0.00677271,0.02988029,-0.00604065,-0.03920410,0.95230811,0.06642762,0.29541559,0.03776587
1761617716599,-0.00827214,-0.04587396,0.20584482,0.02766183,-0.01065349,-0.03000288,0.95232219,0.06657976,0.29535700,0.03760086
1761617716610,-0.09793574,-0.18011329,0.00981431,0.02325642,-0.00792437,-0.03949675,0.95233554,0.06671000,0.29531262,0.03737968
1761617716621,0.00000000,0.10358588,0.05321843,-0.00002181,-0.01516913,-0.02358268,0.95236706,0.06670988,0.29522768,0.03724761
1761617716633,0.00252249,0.04962907,-0.01990346,0.00901699,-0.00939256,-0.00991811,0.95238187,0.06675992,0.29517555,0.03719257
1761617716644,-0.25338686,-0.14136788,-0.15513481,0.02518680,-0.01245366,-0.01574342,0.95239702,0.06690097,0.29510581,0.03710440
1761617716655,-0.01520527,-0.09835907,0.00000000,0.03713602,-0.00327755,-0.02374198,0.95239325,0.06710893,0.29508745,0.03697145
1761617716666,-0.14953940,0.01380161,-0.01224464,0.02414724,-0.00919330,-0.00040679,0.95239963,0.06724174,0.29503689,0.03696921
1761617716677,0.02832222,-0.09639671,-0.00161841,0.02005328,0.00226001,0.00430849,0.95238695,0.06735303,0.29504943,0.03699312
1761617716688,-0.19977007,-0.05365162,-0.19728051,0.03192110,-0.00268609,0.00598799,0.95237757,0.06753339,0.29503426,0.03702696
1761617716699,0.35430411,0.06235855,0.20857535,0.00901917,0.00623112,0.01534447,0.95235999,0.06758344,0.29506884,0.03711212
1761617716711,-0.13359677,-0.34156288,-0.32932332,0.01030704,0.00089230,0.00450668,0.95235348,0.06764013,0.29507375,0.03713690
1761617716722,0.10422519,-0.10768093,-0.05833293,-0.00500119,0.00565185,0.01032438,0.95234340,0.06761213,0.29510540,0.03719472
1761617716733,0.00380132,-0.13067026,-0.12164213,-0.01956270,-0.00409641,0.00687735,0.95235678,0.06750258,0.29508246,0.03723323
1761617716744,0.06596477,-0.03394559,-0.04934400,-0.04699709,-0.00789670,-0.00705022,0.95239034,0.06724174,0.29503863,0.03719411
1761617716755,0.03725975,-0.02432757,-0.23239401,-0.06198655,-0.01600945,-0.01462727,0.95244574,0.06689462,0.29494898,0.03711219
1761617716766,0.19929204,-0.29581532,0.03617094,-0.01514058,-0.01793374,-0.01562368,0.95248547,0.06681134,0.29485034,0.03702626
1761617716777,0.05895497,0.02111459,-0.02792240,-0.03830154,-0.01761137,-0.02611175,0.95253669,0.06659686,0.29475172,0.03688004
1761617716789,0.08082325,-0.07707408,-0.11375381,-0.01883019,-0.01343890,-0.01915387,0.95257118,0.06649235,0.29467713,0.03677373
1761617716800,-0.22075033,0.31159238,-0.33581722,-0.00966109,-0.02057169,-0.00959760,0.95261265,0.06643825,0.29456193,0.03671999
1761617716811,-0.05701975,0.10406104,-0.07602633,-0.02787751,-0.01646175,-0.02350277,0.95265709,0.06628213,0.29446975,0.03658837
1761617716822,0.05580571,0.06049650,-0.02563953,-0.04250658,-0.01286309,-0.02409524,0.95270067,0.06604622,0.29439836,0.03645464
1761617716833,-0.03397908,0.07451847,-0.15172836,-0.04424674,-0.00690820,-0.03364013,0.95273728,0.06579623,0.29435932,0.03626458
1761617716844,-0.08509344,-0.07005823,-0.03599034,-0.04842536,-0.02667322,-0.03933127,0.95280916,0.06552989,0.29421262,0.03604825
1761617716855,0.12717132,-0.02546882,-0.05225082,-0.06648115,-0.02623385,-0.03042731,0.95288647,0.06515759,0.29406571,0.03587786
1761617716867,0.19760312,-0.01889474,-0.14383931,-0.04842240,-0.03375980,-0.04464883,0.95297114,0.06489127,0.29388003,0.03563229
1761617716878,0.08558415,0.14964496,-0.14658960,-0.03450766,-0.04494707,-0.03473566,0.95306999,0.06469630,0.29362608,0.03543604
1761617716889,0.01339129,0.12607849,-0.04589343,-0.01199641,-0.04714250,-0.04231609,0.95316377,0.06462972,0.29336444,0.03520118
1761617716900,-0.14319434,0.17996046,0.04644141,-0.02174810,-0.06020239,-0.03304925,0.95328148,0.06450902,0.29303032,0.03501776
1761617716911,-0.03013656,-0.05037173,-0.01547924,-0.01618287,-0.05393373,-0.02412151,0.95338535,0.06441839,0.29272829,0.03488268
1761617716922,-0.03538393,-0.11849211,0.05431986,-0.04624821,-0.06848427,-0.02074729,0.95352348,0.06416172,0.29234820,0.03476753
1761617716933,0.03506800,-0.18524569,-0.00821906,-0.03974969,-0.06392416,0.00168327,0.95364777,0.06393912,0.29199023,0.03477696
1761617716945,-0.03421185,-0.07460084,0.00000000,-0.04791576,-0.06182056,0.00539475,0.95377054,0.06367079,0.29164403,0.03480717
1761617716956,-0.04904892,-0.10100947,0.00112594,-0.02850670,-0.07369086,-0.00774155,0.95390639,0.06351400,0.29123873,0.03476459
1761617716967,0.24511916,0.07783334,-0.04700433,-0.00440944,-0.06090763,-0.00337064,0.95401184,0.06348953,0.29090069,0.03474588
1761617716978,0.07513593,0.02776930,-0.04575278,0.01399861,-0.05884549,0.00099095,0.95410684,0.06356792,0.29057116,0.03475143
1761617716989,-0.06082107,0.05416876,-0.01520527,-0.00036903,-0.05703069,-0.00428299,0.95420505,0.06356586,0.29025179,0.03472745
1761617717000,-0.26213134,-0.07590354,-0.00815489,-0.01791978,-0.04917450,-0.01181327,0.95429703,0.06346640,0.28997887,0.03466188
1761617717011,-0.05951971,0.03008520,-0.04513635,-0.01834290,-0.04836925,-0.01561219,0.95438929,0.06336368,0.28970800,0.03457445
1761617717022,-0.05604759,-0.05406070,-0.06282030,0.00315493,-0.06401830,-0.03680513,0.95450329,0.06338119,0.28935270,0.03437019
1761617717034,0.16958667,0.00938771,-0.07458800,0.01329192,-0.07324186,-0.03430761,0.95462948,0.06345563,0.28894255,0.03417806
1761617717045,0.11403950,0.03563734,-0.11403950,-0.00232477,-0.07457172,-0.02715362,0.95476208,0.06344261,0.28852494,0.03402600
1761617717056,0.08317909,0.05230360,-0.05376381,0.01363074,-0.07830296,-0.01879360,0.95489081,0.06351758,0.28809428,0.03392264
1761617717067,0.05323170,0.11897972,0.02687972,0.02143907,-0.08804807,-0.02550576,0.95503520,0.06363656,0.28760561,0.03378108
1761617717078,0.07082093,-0.05904883,-0.01184915,0.02398625,-0.07819085,-0.02680576,0.95516329,0.06377089,0.28716774,0.03363097
1761617717089,-0.00380132,-0.02898504,-0.15965530,0.00937188,-0.07155668,-0.01849797,0.95528381,0.06382337,0.28676702,0.03352738
1761617717101,-0.13728550,-0.12499702,-0.12107939,-0.02142781,-0.06603645,-0.01463520,0.95540454,0.06370444,0.28640052,0.03344615
1761617717112,-0.06503125,-0.05488378,-0.06297904,-0.02511421,-0.05377539,-0.01055600,0.95550710,0.06356255,0.28609669,0.03338651
1761617717124,-0.08244194,0.02646636,0.05856561,-0.01099462,-0.03732098,-0.01060276,0.95558318,0.06349438,0.28586530,0.03332078
1761617717134,0.04397247,-0.05273395,-0.28198627,-0.01669483,-0.03488164,0.00060894,0.95563790,0.06341508,0.28569961,0.03332367
1761617717145,-0.11688048,0.17187453,0.15261286,0.00287608,-0.02294920,-0.00614159,0.95567644,0.06343119,0.28557110,0.03328928
1761617717156,-0.05321843,0.11308917,0.02280790,-0.00206830,-0.00985397,-0.00170140,0.95569403,0.06341961,0.28551592,0.03327975
1761617717167,0.50963662,0.16183088,-0.04587897,-0.00538239,-0.00454989,-0.00353711,0.95570442,0.06338920,0.28549021,0.03325976
1761617717178,0.09856812,0.03471547,0.00911019,-0.00939645,0.01592930,-0.01298786,0.95568397,0.06333705,0.28557862,0.03318768
1761617717190,0.03054752,-0.08411697,0.03725975,-0.01301297,0.01788238,-0.00359478,0.95565957,0.06326417,0.28567876,0.03316755
1761617717201,-0.50177380,-0.19434231,0.03041053,-0.03745174,0.03199800,-0.01701887,0.95562315,0.06305444,0.28585795,0.03307224
1761617717212,-0.09964602,0.05989493,0.01857807,-0.03454070,0.01486935,-0.02076604,0.95561514,0.06286447,0.28593973,0.03295803
1761617717223,0.09026399,0.19063603,-0.03345159,-0.00821197,0.02208960,-0.02598274,0.95558615,0.06281848,0.28606343,0.03281253
1761617717234,0.04581943,0.16809958,-0.06067791,0.00718689,0.00084628,-0.02178818,0.95558627,0.06285837,0.28606813,0.03269160
1761617717246,0.14977709,0.08811852,0.04346631,0.01797545,0.00067677,-0.02585727,0.95558342,0.06295993,0.28607195,0.03254551
1761617717257,0.07843244,0.00189629,-0.05970491,0.02130634,-0.00888504,-0.01325169,0.95559280,0.06307712,0.28602308,0.03247263
1761617717269,0.17690191,0.11620656,0.16740734,0.00638078,-0.01361569,-0.01521622,0.95561824,0.06311604,0.28594003,0.03237981
1761617717280,0.18519968,0.01860869,-0.02718748,0.02308824,-0.01658254,-0.02213384,0.95564208,0.06324764,0.28584551,0.03225364
1761617717290,0.29807331,-0.00258049,-0.07874292,0.01772102,-0.03324139,-0.02288121,0.95568881,0.06333447,0.28568262,0.03214153
1761617717302,-0.34308578,-0.20339982,0.00621951,0.02274554,-0.03594987,-0.04340567,0.95575080,0.06346640,0.28547411,0.03188977
1761617717314,-0.06897448,-0.00985159,0.03443377,0.01740955,-0.04547580,-0.02843940,0.95583366,0.06357434,0.28519216,0.03171345
1761617717325,0.23837934,0.06945067,-0.04782302,0.03235338,-0.04282278,-0.02464188,0.95589768,0.06375552,0.28495236,0.03157545
1761617717334,0.47165158,0.16177667,-0.30913096,0.04196084,-0.08084099,-0.02580129,0.95599174,0.06393385,0.28460878,0.03146580
1761617717361,-0.40037230,-0.04568648,0.27755313,0.00783782,-0.02453306,-0.01391910,0.95609045,0.06404084,0.28427391,0.03127580
1761617717363,72.18542167,16.41715371,-41.03024931,0.19237551,-0.57805735,-0.30290628,0.95624225,0.06421397,0.28375365,0.03100319
1761617717374,-10.80965328,-2.42438694,6.34297442,0.01808180,-0.07215338,-0.02847310,0.95636146,0.06431614,0.28334599,0.03084231
1761617717386,0.03567008,-0.05133067,0.12807287,0.02249070,-0.05059304,-0.02760501,0.95644615,0.06444883,0.28304749,0.03067944
1761617717397,-0.02850112,-0.01075761,0.01029845,0.00150609,-0.05259220,-0.00880181,0.95653348,0.06445719,0.28275560,0.03063059
1761617717408,-0.25763082,-0.13589331,-0.16064739,0.00966068,-0.03708695,-0.01358869,0.95659471,0.06451226,0.28254421,0.03055314
1761617717420,-0.00701007,-0.01019162,0.03315041,0.01262722,-0.03507898,-0.00953795,0.95665014,0.06458360,0.28234601,0.03049925
1761617717431,-0.04365308,0.00978039,0.04653820,0.01110402,-0.02591744,-0.02316999,0.95669442,0.06464800,0.28219569,0.03036486
1761617717443,-0.03669107,-0.03883402,0.00784430,0.00391040,-0.04227929,-0.01783357,0.95676718,0.06467029,0.28195470,0.03026321
1761617717454,-0.01709669,0.06341316,0.01355301,0.01460689,-0.03125171,-0.01641412,0.95681786,0.06475501,0.28177344,0.03016801
1761617717466,-0.06278726,0.03260612,-0.06658858,0.02981773,-0.03396654,-0.00849700,0.95686404,0.06492199,0.28158322,0.03012043
1761617717477,0.03993293,0.10290528,0.15826407,0.01261205,-0.02397694,-0.00606923,0.95690173,0.06499640,0.28144176,0.03008462
1761617717488,0.09097388,-0.01908712,0.06893913,0.00269126,-0.01457215,-0.01525118,0.95692738,0.06501147,0.28136016,0.02999921
1761617717500,-0.03856295,-0.12532097,-0.04830736,0.00443508,-0.02863303,0.00719704,0.95697117,0.06503609,0.28120124,0.03003916
1761617717511,-0.00333062,-0.11586950,-0.04783985,0.01116570,-0.02839787,-0.00524558,0.95701494,0.06509917,0.28104080,0.03000952
1761617717525,-0.15649044,0.03922407,0.09700230,0.00577387,-0.03008745,-0.00992527,0.95707881,0.06514132,0.28082116,0.02993706
1761617717535,0.37748790,0.00535859,-0.20340957,0.02259992,-0.03700649,-0.02361286,0.95712757,0.06525093,0.28064168,0.02982254
1761617717544,0.09618667,0.00916566,0.03624049,0.00931761,-0.04343566,-0.02957662,0.95718418,0.06529146,0.28045273,0.02969388
1761617717556,-0.25160750,-0.10767223,0.09423473,-0.00279986,-0.03380924,-0.00363520,0.95724440,0.06527495,0.28025326,0.02967244
1761617717567,0.17513395,-0.01291589,0.05740748,-0.00382940,-0.02424722,-0.00120183,0.95728618,0.06525331,0.28011626,0.02966565
1761617717577,0.10912329,0.14492875,0.08154010,-0.02072042,-0.03762774,-0.00023632,0.95735079,0.06514556,0.27992059,0.02966442
1761617717588,-0.03160424,-0.03985907,0.00345917,0.00470622,-0.03972619,-0.00074521,0.95741188,0.06517098,0.27970607,0.02966039
1761617717600,-0.18033378,-0.08293188,-0.04383660,0.00374797,-0.03784027,-0.00241873,0.95747493,0.06519272,0.27948660,0.02964636
1761617717611,-0.09726382,0.05468275,0.00108104,0.01105947,-0.04256617,-0.03426408,0.95754936,0.06525741,0.27923759,0.02944592
1761617717622,0.11413447,0.15503674,0.02645177,0.02375911,-0.04343499,-0.02107268,0.95761013,0.06538096,0.27901173,0.02933634
1761617717638,-0.20449392,0.00414790,0.01885568,0.02127692,-0.02642736,0.00351175,0.95765952,0.06555224,0.27879899,0.02936461
1761617717644,1.60316397,0.39335363,-0.23667328,0.08010195,-0.05864472,-0.05091904,0.95769629,0.06577653,0.27863478,0.02922204
1761617717656,-0.62839189,-0.16428804,0.14847271,0.01384194,-0.03296381,0.01409313,0.95774675,0.06586165,0.27843205,0.02930871
1761617717668,0.14218927,0.01200688,0.16298727,0.00812039,-0.02644587,0.01162924,0.95778670,0.06590956,0.27827602,0.02937732
1761617717677,0.29422010,0.06901031,0.14480411,0.03158147,-0.04730580,-0.00245382,0.95784198,0.06605958,0.27805132,0.02936567
1761617717688,-0.19593032,0.05136750,-0.07925271,0.03729771,-0.04021618,-0.01977886,0.95789726,0.06627217,0.27782209,0.02925293
1761617717700,-0.13662233,0.08402213,-0.09480652,0.02796957,-0.05028215,-0.02941778,0.95797710,0.06643719,0.27752542,0.02907936
1761617717713,-0.06666443,0.09765334,-0.09660125,0.01869953,-0.03759718,0.00274240,0.95803889,0.06655874,0.27728104,0.02909719
1761617717727,-0.02437740,0.06210659,0.03326105,0.02296723,-0.04147403,0.00238965,0.95810705,0.06671032,0.27700731,0.02911296
1761617717733,1.14925193,0.87671758,0.10867243,0.06801772,-0.08629487,0.00001353,0.95817066,0.06692458,0.27673548,0.02911300
1761617717744,-0.55730495,-0.52759328,0.03011178,0.01727008,-0.04814595,0.00446496,0.95824159,0.06702216,0.27646346,0.02913823
1761617717756,-0.00722956,-0.07579348,0.05743960,0.01384262,-0.04374867,0.00500379,0.95831171,0.06710660,0.27619659,0.02916875
1761617717769,0.17792749,-0.21417024,-0.07059066,0.02934402,-0.05026592,0.02205338,0.95838513,0.06729000,0.27588243,0.02930659
1761617717777,0.59474411,0.19541555,-0.01619544,0.02590537,-0.07881719,0.01821705,0.95847240,0.06740139,0.27554352,0.02938492
1761617717789,-0.32423575,-0.12219089,-0.06869438,0.03239794,-0.05527785,0.01061824,0.95854741,0.06758444,0.27523120,0.02944491
1761617717801,-0.29546027,0.09922878,0.02402808,0.01903602,-0.05120125,0.01830890,0.95862796,0.06770436,0.27490863,0.02956026
1761617717824,-0.15943629,-0.09170872,-0.00379610,0.01528174,-0.02858382,0.00374565,0.95870351,0.06786941,0.27459992,0.02960071
1761617717831,1.87257926,0.81232025,0.07671339,0.04540829,-0.16247121,0.03265219,0.95887251,0.06805104,0.27395004,0.02973132
1761617717866,-0.46331055,-0.22542720,-0.02851292,0.01351301,-0.02023423,0.00329813,0.95895500,0.06828752,0.27359594,0.02978904
1761617717880,0.83313785,0.23632269,-0.12662045,0.02446213,-0.08396247,0.02110601,0.95910998,0.06846364,0.27299141,0.02994100
1761617717884,6.06615797,-0.16070277,-3.24703398,0.08159585,-0.19094901,0.04262363,0.95919250,0.06860644,0.27265725,0.03001559
1761617717895,-2.43588370,-0.38972999,0.86517967,0.01038814,-0.04583737,-0.01684467,0.95926421,0.06866461,0.27240056,0.02992126
1761617717907,-0.32045195,0.12484032,0.12672682,0.02121289,-0.03371261,0.00016636,0.95931288,0.06879295,0.27219660,0.02992227
1761617717995,-0.04683099,-0.00534602,0.02083724,-0.00011854,-0.00314048,0.00376340,0.95934731,0.06878773,0.27205826,0.03008805
1761617718012,1.58002345,0.72621007,-0.78267001,0.02297670,-0.13332763,0.03305105,0.95963986,0.06897958,0.27094497,0.03036402
1761617718047,-0.58272301,-0.35647792,0.36423299,-0.01852004,-0.02418987,0.00894980,0.95977834,0.06865363,0.27051923,0.03052154
1761617718102,-0.04131840,0.00994023,0.00673164,0.00544123,-0.02289810,-0.00277716,0.95994578,0.06880190,0.26989526,0.03044586
1761617718103,157.55944053,52.08656085,-5.81731612,0.37174767,-1.37049815,-0.14967335,0.96021771,0.06908071,0.26886739,0.03033361
1761617718138,-6.67130683,-2.18176329,0.35291402,0.02830411,-0.04559665,-0.00815593,0.96040898,0.06957462,0.26807172,0.03019129
1761617718162,-0.00727387,0.04773131,0.06076943,0.02793217,-0.04093425,0.01120155,0.96051693,0.06990841,0.26758256,0.03032514
1761617718183,-0.08260890,-0.03906771,0.07560010,0.01391019,-0.04629950,0.00303639,0.96064117,0.07005516,0.26709410,0.03035718
1761617718199,-0.04286407,-0.11069523,0.01497300,-0.00927042,-0.03861735,0.01132974,0.96072845,0.06998193,0.26678902,0.03044668
1761617718225,-0.11628498,-0.04085631,-0.14636962,0.00590603,-0.01933282,0.01160070,0.96078759,0.07005841,0.26653866,0.03059691
1761617718227,14.08564750,3.06881547,21.97010331,0.00201951,-0.18895578,0.15944487,0.96083711,0.07006053,0.26634026,0.03076433
1761617718269,-0.72738841,-0.13368254,-1.10069950,0.00429446,-0.01185321,-0.00054498,0.96090060,0.07015179,0.26608838,0.03075275
1761617718272,11.72545987,3.22089096,24.87223712,0.29392802,-0.23128082,0.38276212,0.96094727,0.07060738,0.26572989,0.03134603
1761617718324,-0.69410875,-0.19680145,-1.47707807,0.00093334,-0.00662782,0.01618606,0.96097881,0.07063127,0.26556022,0.03176039
1761617718325,19.85703905,52.39900202,97.95775016,0.56050252,-0.55662702,-0.37910531,0.96107244,0.07105165,0.26514275,0.03147606
1761617718368,-0.71718991,-1.78552821,-3.40516919,0.00461200,-0.01194614,0.00740238,0.96113070,0.07115080,0.26488591,0.03163521
1761617718372,-2.57834335,1.56949625,15.82460871,0.03825620,-0.02455809,0.18456868,0.96112701,0.07121584,0.26484416,0.03194898
1761617718402,0.22379148,-0.31469053,-1.68355349,-0.00408829,-0.00548303,0.02700644,0.96114080,0.07115390,0.26476109,0.03235813
1761617718430,0.05258637,0.05342663,-0.06098462,-0.00758166,-0.00425437,0.00267985,0.96116404,0.07104662,0.26470089,0.03239605
1761617718443,-0.18256347,0.06218734,0.44936889,0.01060745,-0.02362697,0.01164124,0.96119893,0.07111610,0.26454614,0.03247230
1761617718451,0.14832497,0.08621082,1.16584901,0.02176572,-0.00633867,0.03336327,0.96119510,0.07119990,0.26452173,0.03260075
1761617718474,0.02239349,-0.09399069,-0.63975622,-0.00824210,-0.00386597,0.01007185,0.96121075,0.07110305,0.26447631,0.03271909
1761617718498,-0.01251341,0.02772349,-0.00512796,-0.03816184,-0.00536748,0.01934586,0.96125304,0.07065847,0.26441378,0.03294447
1761617718500,-11.91706332,-1.88313158,56.40731178,0.28071256,-0.07556443,0.19750687,0.96124804,0.07086900,0.26435710,0.03309260
1761617718520,0.83149155,0.17867878,-3.99202446,0.01198255,-0.00118677,0.00105900,0.96124180,0.07099482,0.26434464,0.03310372
1761617718544,0.02744055,0.00083876,-0.01949420,0.00717629,-0.00299007,0.00515869,0.96124316,0.07108058,0.26430891,0.03316537
1761617718554,-0.13984873,0.10584330,1.34759624,0.00532926,-0.02238657,0.04301897,0.96126430,0.07110696,0.26419810,0.03337831
1761617718589,0.04532250,-0.04379667,-0.42620454,0.00544555,-0.00322605,0.00515992,0.96126956,0.07120116,0.26414229,0.03346758
1761617718618,-0.03475742,-0.14548811,0.32471939,0.00655122,-0.00747814,0.05165895,0.96126591,0.07129681,0.26403311,0.03422180
1761617718638,0.04746891,0.23422989,0.28779591,0.01832848,0.01060922,0.04452745,0.96120778,0.07147826,0.26413814,0.03466262
1761617718659,0.03241817,0.06827643,-0.25690198,0.02009507,-0.00145488,0.01521657,0.96119033,0.07169127,0.26412272,0.03482392
1761617718670,0.22213488,-0.00882033,1.15279640,0.02870484,0.01176195,0.04754741,0.96115125,0.07184915,0.26418741,0.03508543
1761617718692,-0.07834071,-0.07959384,-0.40243742,0.01416394,-0.00786582,0.00065454,0.96116295,0.07200283,0.26410206,0.03509253
1761617718703,0.19873985,0.11904795,0.46521782,0.00510203,-0.01934173,0.00937666,0.96118956,0.07203242,0.26398988,0.03514691
1761617718726,-0.02321659,0.02177742,-0.57117876,0.02178631,-0.01727725,0.00174499,0.96122426,0.07228078,0.26379292,0.03516681
1761617718738,0.16958537,0.30035981,0.99114308,0.08839273,-0.04064395,-0.00480515,0.96125241,0.07281556,0.26354702,0.03513773
1761617718772,-0.09004468,-0.10496057,-0.46681745,0.01328750,-0.00505386,0.00805133,0.96125383,0.07304344,0.26346035,0.03527581
1761617718782,0.90407213,0.17326010,4.26595482,0.08066656,-0.04460486,0.05222669,0.96127457,0.07344677,0.26323733,0.03553695
1761617718793,-0.58481516,-0.64914877,-2.15167842,0.03381374,-0.01264613,0.02201118,0.96127491,0.07363275,0.26316777,0.03565801
1761617718815,-0.13260195,0.21269413,-0.59192608,0.01806196,-0.00449003,0.00460150,0.96127139,0.07382691,0.26311950,0.03570748
1761617718826,0.05988782,0.22935170,1.33524449,0.06921233,0.00548192,0.02099242,0.96122915,0.07421104,0.26314993,0.03582398
1761617718837,-0.19170964,-0.12555903,-0.72861993,0.06488426,0.01262445,0.01879491,0.96117774,0.07457439,0.26322063,0.03592924
1761617718849,0.00379149,-0.04850200,-0.22528780,0.03146094,0.01864702,0.02466111,0.96112774,0.07476001,0.26333064,0.03607474
1761617718860,-0.09351659,-0.15141856,0.17564030,0.03693251,0.02047670,0.00377410,0.96107898,0.07496868,0.26344634,0.03609606
1761617718872,-0.14958917,0.12289074,0.27950154,0.01683809,0.02024792,0.03025637,0.96103335,0.07506466,0.26356175,0.03626852
1761617718893,0.07446381,-0.03817125,-0.48059046,0.00706403,0.00782843,0.01376815,0.96099841,0.07514130,0.26364669,0.03641791
1761617718905,0.00583206,0.07454981,0.61663623,0.04040615,0.02268549,0.01951837,0.96094016,0.07537364,0.26377713,0.03653014
1761617718916,0.17270997,0.05135894,-0.14598105,0.04575224,0.00937356,0.03185330,0.96089956,0.07562528,0.26382868,0.03670533
1761617718927,-0.02785328,0.11460970,-0.17071367,0.03860065,0.00517416,0.02332038,0.96086957,0.07584144,0.26385766,0.03683592
1761617718939,0.04170517,-0.03064958,-0.11064171,0.05102450,0.00836002,-0.00245492,0.96083152,0.07615269,0.26390866,0.03682095
1761617718941,0.61596562,10.10371958,30.47212962,0.07504639,-0.09567578,-0.04693098,0.96085474,0.07623149,0.26380820,0.03677167
1761617718951,-0.32965863,-2.10730211,-6.55178040,0.04132741,-0.00374401,0.01826322,0.96084056,0.07642986,0.26379022,0.03685933
1761617718964,0.03490448,0.00537237,-0.28381348,0.02462695,0.00352588,0.02553196,0.96081612,0.07658378,0.26381226,0.03701891
1761617718977,-0.18359665,-0.16738960,-0.17076485,0.03971386,0.00266571,0.00681681,0.96078821,0.07684986,0.26383012,0.03706458
1761617718993,0.03690004,0.03543653,0.03704441,0.03023180,0.00354729,0.03424631,0.96075114,0.07708718,0.26385797,0.03733342
1761617718994,-39.20130775,7.93327517,72.84581696,0.60193277,0.14390364,0.46477803,0.96067687,0.07750853,0.26395870,0.03765876
1761617719013,2.88869359,-0.64979769,-5.46498837,0.02211692,0.01106520,0.03418179,0.96061698,0.07772307,0.26406603,0.03799032
1761617719018,-1.82755808,0.75106701,4.42872111,0.08144589,0.04595350,0.09206807,0.96056893,0.07789410,0.26416254,0.03818367
1761617719029,0.34933125,-0.24697645,-1.37742009,0.05239139,0.01619130,0.02064658,0.96051316,0.07820059,0.26425725,0.03830445
1761617719034,-1.53420239,-0.31595164,1.41467960,0.14723004,0.06954497,0.02779820,0.96042927,0.07858339,0.26443807,0.03837672
1761617719051,0.54878510,0.04514392,-0.60084736,0.02821058,0.03829654,0.02280731,0.96031768,0.07881190,0.26474827,0.03856146
1761617719064,-0.03857816,-0.01052553,-0.01557964,0.02246677,0.02973177,0.03970651,0.96023732,0.07896692,0.26495342,0.03883544
1761617719068,-5.05213271,-2.68469475,2.10141191,0.10587611,0.16292373,0.18837446,0.96012996,0.07915220,0.26523854,0.03916509
1761617719090,0.83080571,0.32516902,-0.48246688,0.00757856,0.03005495,0.02098830,0.96002225,0.07923557,0.26556914,0.03939596
1761617719093,-7.38167621,-4.80966735,1.33046417,-0.01516256,0.21700045,0.15746655,0.95991123,0.07920979,0.26593804,0.03966366
1761617719104,2.07865766,1.39475448,-0.35606314,-0.01625846,0.05455468,0.04817819,0.95982444,0.07912037,0.26623809,0.03992864
1761617719112,-0.15731378,-0.18955617,0.02695675,-0.03566309,0.08366092,0.02686457,0.95973775,0.07897593,0.26657692,0.04003744
1761617719125,0.27857003,0.15061293,-0.06914479,-0.01654634,0.05274864,0.01845515,0.95965051,0.07887335,0.26690396,0.04015186
1761617719140,0.05737293,0.05635468,-0.10912795,-0.00406873,0.03514741,0.00755980,0.95957826,0.07884324,0.26716405,0.04020780
1761617719152,0.03036237,0.13075092,0.05820766,-0.01308741,0.04499684,0.00209897,0.95950435,0.07875948,0.26745203,0.04022124
1761617719157,-0.88514129,0.27881951,-0.46489160,0.02706735,0.09512769,0.01588056,0.95943964,0.07881903,0.26766131,0.04025617
1761617719168,0.37909494,-0.04194407,-0.18799239,0.03863314,0.03423315,-0.01581023,0.95937205,0.07903537,0.26785302,0.04016764
1761617719192,0.01510811,0.00949847,0.03398765,0.00945997,0.00702441,-0.00931952,0.95934395,0.07914842,0.26793696,0.04005627
1761617719195,-2.48577479,-2.73249455,-10.87297435,0.14209137,0.11618116,-0.02113390,0.95928331,0.07934735,0.26809962,0.04002668
1761617719202,1.24726017,0.68207429,3.68840373,-0.00834349,-0.00552059,0.00158930,0.95929100,0.07931773,0.26808002,0.04003232
1761617719216,0.12533411,0.05468587,0.20810191,-0.01539767,-0.00430709,-0.00832268,0.95931104,0.07920840,0.26804944,0.03997323
1761617719228,0.13977709,-0.05565199,-0.16547518,0.00075504,-0.00793720,-0.00094744,0.95932421,0.07921293,0.26800181,0.03996755
1761617719241,-0.06344635,0.05871698,-0.01785035,0.00047181,-0.03611109,-0.00894520,0.95939088,0.07921595,0.26777070,0.03991030
1761617719253,0.07841975,0.04934086,0.01032456,-0.00762063,-0.03161681,-0.01584238,0.95945456,0.07916794,0.26757152,0.03981049
1761617719257,2.37915387,-0.41133311,-4.04021107,-0.02894919,-0.09636498,-0.04205359,0.95951345,0.07911294,0.26738842,0.03973059
1761617719279,-0.50164889,0.09316865,0.78442234,0.00022221,-0.03573113,-0.00077041,0.95962005,0.07911532,0.26700610,0.03972235
1761617719281,12.85833607,-1.03618131,-17.85433057,-0.06972128,-0.16138982,0.03976490,0.95967639,0.07903514,0.26682050,0.03976808
1761617719296,-1.84824291,0.16028664,2.62093891,-0.02225674,-0.02346960,-0.01098818,0.95974333,0.07886599,0.26664213,0.03968457
1761617719302,0.55953883,-0.68107800,-1.62908355,-0.01508293,-0.06179415,-0.01168368,0.95979715,0.07882300,0.26646602,0.03965127
1761617719316,-0.30125686,0.16307511,0.70789634,-0.02914245,-0.01367914,-0.00552894,0.95984302,0.07861463,0.26636821,0.03961174
1761617719328,-0.00125264,-0.15908518,-0.08066997,-0.01646343,-0.01848090,0.00452354,0.95988107,0.07851503,0.26625640,0.03963910
1761617719339,-0.12805096,0.07489536,-0.03480875,-0.01980297,-0.02182067,0.00028055,0.95992395,0.07840413,0.26613421,0.03964067
1761617719350,-0.02193060,0.00673685,-0.00788355,-0.00709271,-0.00806118,0.00420909,0.95993834,0.07836548,0.26609028,0.03966361
1761617719362,-0.02437095,0.13056046,0.06860220,-0.01490408,0.00365239,0.00906077,0.95993736,0.07828052,0.26611109,0.03971526
1761617719372,-0.27188084,0.03259433,-0.16429968,0.00896244,-0.01658379,-0.00272794,0.95995726,0.07832533,0.26602818,0.03970162
1761617719383,0.01404705,0.00261375,0.04687701,0.02409120,0.00829151,0.00678780,0.95993248,0.07845663,0.26607336,0.03973861
1761617719394,0.02054106,0.08121827,0.09213834,0.01202861,0.00780837,0.01319219,0.95991179,0.07852399,0.26611709,0.03981249
1761617719405,0.17866188,0.08267864,0.03041053,0.00675282,0.00803278,0.01302755,0.95989319,0.07856181,0.26616207,0.03988544
1761617719416,-0.00802689,0.03778280,-0.04565291,0.01146000,0.02054381,0.00997752,0.95985477,0.07862426,0.26627404,0.03993982
1761617719427,-0.05681050,-0.02441648,0.04443007,0.01835424,0.01150352,-0.00569674,0.95982980,0.07872705,0.26633846,0.03990792
1761617719438,-0.02992165,-0.01554761,-0.04565291,0.01100573,0.00118330,0.00456434,0.95982205,0.07878703,0.26634491,0.03993280
1761617719449,0.12278766,0.01048354,-0.00404267,0.01141726,0.00839759,-0.00119140,0.95980386,0.07885154,0.26639235,0.03992606
1761617719461,-0.09852052,0.07822918,0.11479675,0.01909188,-0.00633074,-0.00951929,0.95980728,0.07896322,0.26635532,0.03987038
1761617719472,-0.15754947,0.47732616,-0.07610174,0.03331630,0.00216439,0.00450617,0.95978820,0.07914313,0.26636701,0.03989471
1761617719483,-0.09402653,0.16454643,-0.05723354,0.07280660,-0.00312192,0.01671788,0.95975662,0.07953629,0.26635015,0.03998499
1761617719494,-0.10844506,0.17117863,0.02568820,0.06071079,-0.00821247,0.00286543,0.95974077,0.07987020,0.26630498,0.04000075
1761617719506,0.20831522,-0.26329148,0.08609560,0.06930851,0.01129857,0.00631164,0.95968568,0.08028605,0.26637277,0.04003862
1761617719518,-0.04534572,-0.14032690,-0.02351467,0.07283423,0.00489390,0.01430266,0.95963769,0.08071941,0.26640189,0.04012372
1761617719527,-0.01915363,-0.03258721,0.03910866,0.05288173,0.01982589,0.01680874,0.95958437,0.08098382,0.26650102,0.04020776
1761617719538,-0.08188155,-0.01552459,0.11128560,0.02960128,0.01218690,0.00347856,0.95955210,0.08114219,0.26656622,0.04022637
1761617719549,0.05114342,0.00487382,-0.01996547,0.06238479,0.01251518,0.03795827,0.95949461,0.08148842,0.26663568,0.04043704
1761617719584,0.04339749,-0.09014326,0.05963765,0.02638260,0.01065101,0.00401292,0.95940131,0.08194616,0.26682047,0.04050666
1761617719605,-0.28843072,0.37435272,-0.42592652,0.12097044,0.04460722,0.02420056,0.95914721,0.08323450,0.26729554,0.04076440
1761617719607,-46.84246478,33.12644437,-61.91327534,0.60918811,0.31970631,0.18544992,0.95902716,0.08372185,0.26755130,0.04091276
1761617719627,3.92855435,-3.01167499,5.13017136,-0.00373591,0.01520429,0.00174448,0.95898685,0.08368411,0.26770487,0.04093038
1761617719638,-0.28551077,0.38505210,-0.41684175,0.02010705,0.01235680,-0.00878490,0.95896052,0.08379370,0.26777221,0.04088250
1761617719650,-0.02076623,-0.00822806,-0.02396333,0.05049271,0.00180927,-0.00708971,0.95893255,0.08409918,0.26778316,0.04083961
1761617719661,0.02889291,0.07157188,-0.07396293,0.03749408,0.01926776,0.00738767,0.95888581,0.08429415,0.26788335,0.04087802
1761617719673,0.01986821,-0.27274219,0.28834384,0.01587832,0.01059444,0.00705441,0.95885786,0.08438942,0.26794692,0.04092035
1761617719683,-0.09346290,-0.21433278,-0.16517658,0.00689502,0.00925304,0.00462462,0.95884023,0.08442527,0.26799503,0.04094440
1761617719694,-0.02690356,-0.11561899,-0.13216847,-0.01589361,-0.00493322,0.01527738,0.95885192,0.08433786,0.26796790,0.04102842
1761617719696,-14.20757987,-0.64616854,-28.17674117,0.00602010,0.05218396,0.03679098,0.95883523,0.08434388,0.26802008,0.04106521
1761617719706,2.79859229,0.00115175,5.23446653,-0.02121190,-0.00357674,-0.00532543,0.95885115,0.08423464,0.26800166,0.04103779
1761617719716,0.03025969,-0.00125467,-0.01702415,-0.01372498,-0.00803474,0.00971385,0.95886587,0.08416807,0.26796270,0.04108490
1761617719751,0.12570920,0.01835720,0.25076892,-0.00287171,-0.00186641,0.00276087,0.95887727,0.08411810,0.26793022,0.04113294
1761617719774,-0.27497164,-0.03626878,-0.58908655,-0.01087054,-0.01665428,0.01917985,0.95893224,0.08399309,0.26773870,0.04135351
1761617719795,0.09304886,-0.17529619,0.11971315,-0.06192941,-0.02929478,0.00461424,0.95907538,0.08333045,0.26742524,0.04140288
1761617719806,-0.62862895,-0.03865752,-1.45766748,-0.08935323,-0.07177049,0.01078850,0.95922400,0.08284347,0.26703409,0.04146168
1761617719818,-0.02142652,0.46666650,0.42320985,-0.03715134,-0.04657455,-0.00486296,0.95932469,0.08261499,0.26674766,0.04143177
1761617719829,0.04652476,-0.06235893,0.25707132,-0.05148310,-0.06554360,0.02462021,0.95944010,0.08233956,0.26639700,0.04156349
1761617719851,0.39337348,-0.05423838,0.67562269,-0.02173783,-0.02843441,0.00726724,0.95954250,0.08210370,0.26608849,0.04164234
1761617719862,-0.40111626,-0.21588764,-0.50285366,-0.05938628,-0.04959714,0.01792979,0.95964532,0.08176520,0.26580578,0.04174454
1761617719873,0.16874063,0.15333376,0.22489363,-0.07064941,-0.04956517,0.03049195,0.95974558,0.08138016,0.26553565,0.04191072
1761617719885,0.14161012,0.14002689,0.15081601,-0.03503638,-0.03891797,0.02923514,0.95981966,0.08117169,0.26530409,0.04208467
1761617719895,-0.19259209,0.17061700,-0.22592045,0.00662010,-0.04105021,0.02354084,0.95987084,0.08120645,0.26508858,0.04220826
1761617719907,-0.17879518,0.03881180,0.04246467,0.01722289,-0.03105664,0.00725331,0.95991094,0.08130806,0.26490534,0.04225105
1761617719918,-0.13378692,0.09990603,-0.03767140,0.00972083,-0.02871195,0.02311640,0.95994437,0.08136153,0.26474743,0.04237819
1761617719929,0.03092708,0.02434956,0.13572608,0.01406368,-0.02599062,0.02142331,0.95997277,0.08144099,0.26460058,0.04249923
1761617719941,-0.08877588,0.08667338,0.11229022,-0.00317947,-0.01866809,0.00939521,0.96000076,0.08142318,0.26449604,0.04255185
1761617719942,-43.02710297,7.53040825,-37.41255830,0.14809248,-0.08629557,0.10275903,0.96000607,0.08154166,0.26442700,0.04263405
1761617719973,2.48888157,-0.48474516,2.15569098,-0.00135014,0.00126676,0.00753306,0.95999725,0.08152073,0.26444664,0.04275082
1761617719985,-1.65327599,0.48321549,-1.21871168,0.03200302,-0.01694164,0.02962040,0.96000080,0.08170315,0.26435007,0.04291965
1761617719996,0.89336002,-0.20203865,0.76311657,0.02089971,-0.00656387,0.00500770,0.95999967,0.08182332,0.26431233,0.04294845
1761617720007,0.15685754,0.09749330,0.04166265,0.00335592,-0.00578919,0.00852108,0.96000481,0.08184195,0.26428020,0.04299574
1761617720019,0.06938259,-0.10843170,-0.06191694,0.01742211,-0.01011391,-0.00278747,0.96001278,0.08193951,0.26422356,0.04298013
1761617720030,0.08743028,0.03706284,0.00760263,0.00979144,-0.01891426,0.00375554,0.96003630,0.08199434,0.26411764,0.04300116
1761617720040,-0.00591264,0.08084330,0.05332534,0.00216148,-0.02652270,-0.00273509,0.96007500,0.08200591,0.26397574,0.04298653
1761617720052,0.00516525,-0.09188818,-0.11831209,0.01685678,-0.03734883,0.00489301,0.96012361,0.08210115,0.26376472,0.04301417
1761617720063,0.04985444,0.06489150,0.05321843,0.00639118,-0.03719335,0.00739449,0.96017589,0.08213694,0.26355644,0.04305558
1761617720074,0.04941712,0.01140395,0.00000000,0.02137526,-0.04496239,0.00033932,0.96023464,0.08225664,0.26330465,0.04305748
1761617720085,0.07388944,0.14941508,-0.05570528,0.00313817,-0.04059643,0.00230996,0.96029217,0.08227343,0.26308746,0.04306984
1761617720096,-0.01320193,-0.07282063,0.01467643,0.00868850,-0.04991248,0.01036875,0.96036318,0.08232295,0.26280296,0.04312894
1761617720107,-0.03045288,-0.14074775,-0.07956475,0.01807263,-0.04647938,-0.00590105,0.96042546,0.08242145,0.26254965,0.04309678
1761617720109,-15.17020234,6.08992686,-23.49188568,-0.06714435,-0.27658513,0.08733595,0.96050286,0.08235430,0.26227306,0.04318412
1761617720120,2.95730738,-1.30803980,4.54970365,-0.04187373,-0.06067829,-0.00154030,0.96060796,0.08213656,0.26195753,0.04317611
1761617720131,0.10275912,-0.18211442,0.12191760,-0.01486011,-0.05466065,-0.01921788,0.96070758,0.08204963,0.26163777,0.04306368
1761617720141,-0.08296193,0.01507531,-0.19749607,-0.01826132,-0.07388487,-0.03390916,0.96082117,0.08196015,0.26127573,0.04289753
1761617720163,0.14661430,-0.00645551,0.21250756,-0.01867058,-0.05372519,-0.01220566,0.96100265,0.08175757,0.26069282,0.04276510
1761617720174,-0.22842550,0.13714714,-0.82010879,-0.02761487,-0.11853819,-0.03156464,0.96119631,0.08160845,0.26005271,0.04259465
1761617720186,0.33436528,-0.26102066,0.55621112,-0.02954793,-0.07265436,-0.00675536,0.96133658,0.08142378,0.25959862,0.04255243
1761617720197,0.20180278,-0.20543126,-0.19820401,-0.07598392,-0.09559027,0.03437215,0.96149918,0.08102106,0.25909199,0.04273460
1761617720198,2.81153985,-9.26578102,-22.55557844,-0.48295124,-0.56458038,0.16909334,0.96164723,0.08063470,0.25864033,0.04286987
1761617720208,-0.35290716,1.57118164,3.74791990,-0.08376780,-0.10516686,0.04078541,0.96181775,0.08020749,0.25810398,0.04307788
1761617720230,0.00031351,0.04545171,0.18948284,-0.02173464,-0.05838134,0.00307913,0.96200392,0.07997384,0.25747638,0.04311098
1761617720242,0.20700787,0.13176943,-0.31304059,-0.05446647,-0.14984279,-0.01215338,0.96228122,0.07963887,0.25655484,0.04303624
1761617720276,-0.06704008,-0.01011317,0.15042066,0.00214672,-0.05227392,-0.01241868,0.96251911,0.07967461,0.25568448,0.04282947
1761617720297,0.57632820,0.18268890,-0.32161396,-0.02211685,-0.25244937,0.01632264,0.96323426,0.07944128,0.25302114,0.04300167
1761617720309,0.18507001,0.12311430,0.18551033,0.01671687,-0.23789239,0.04360029,0.96359396,0.07954325,0.25157000,0.04326763
1761617720320,-0.43849698,0.17807298,0.23201671,0.02816407,-0.16717352,0.03548802,0.96381394,0.07969956,0.25064219,0.04346459
1761617720342,-0.25457369,-0.16830844,0.11855384,0.02972047,-0.06319779,0.00192480,0.96396572,0.08002500,0.24995017,0.04348567
1761617720352,0.47085753,0.43192220,0.02178144,-0.00177615,-0.13082503,-0.02020012,0.96414736,0.08001577,0.24926988,0.04338063
1761617720364,0.01321534,0.06840584,0.02461436,0.01192255,-0.13772507,-0.00178117,0.96435689,0.08008790,0.24843664,0.04336985
1761617720375,-0.19324999,-0.05672041,-0.09537760,0.02497047,-0.12083471,0.00827532,0.96451583,0.08022648,0.24776601,0.04341578
1761617720396,-0.17803293,-0.19284707,0.07933908,0.00419316,-0.06062625,-0.00535911,0.96467337,0.08026925,0.24714762,0.04336112
1761617720407,0.47573071,0.69094913,-0.13633902,0.04979031,-0.15975526,-0.02603812,0.96487977,0.08054061,0.24627696,0.04321921
1761617720419,-0.10916058,-0.23803561,0.11521526,0.02080107,-0.10872580,-0.01530397,0.96504239,0.08066750,0.24561373,0.04312585
1761617720430,-0.08023733,0.08373399,-0.11809488,0.05467633,-0.13056964,-0.03327840,0.96520786,0.08096822,0.24489560,0.04294282
1761617720442,-0.02731853,-0.04994974,0.03762741,0.04293240,-0.10525522,-0.00884097,0.96534391,0.08121723,0.24428512,0.04289155
1761617720453,-0.05623327,-0.04912219,0.07838577,0.01746466,-0.10456702,0.00106289,0.96548340,0.08131503,0.24369954,0.04289750
1761617720459,1.45414577,0.42977693,0.04638800,0.02276228,-0.17601120,0.04059395,0.96559927,0.08137990,0.24319791,0.04301319
1761617720494,-0.36305324,-0.30490653,0.02603224,-0.00291206,-0.02665502,0.00896038,0.96571622,0.08132792,0.24272212,0.04317313
1761617720520,0.20149774,0.04543035,0.08654642,-0.02244945,-0.09921116,0.00159257,0.96606307,0.08103608,0.24143237,0.04319384
1761617720530,2.01748958,0.77710842,-0.26072111,-0.06721052,-0.22884108,-0.01742887,0.96636449,0.08071683,0.24034538,0.04311105
1761617720551,-0.77051868,-0.39543239,0.07112313,-0.04097812,-0.09029253,-0.01131168,0.96664748,0.08027631,0.23937473,0.04298945
1761617720564,0.10160378,-0.04945776,0.02343116,-0.04905167,-0.11973693,-0.00849477,0.96686366,0.07996483,0.23861440,0.04293551
1761617720585,-0.23561356,0.00356905,-0.05502854,-0.01546805,-0.07110151,-0.01344786,0.96707308,0.07979778,0.23784651,0.04279027
1761617720595,0.41149281,0.17706995,0.01147941,-0.03295086,-0.17039457,-0.03329735,0.96730315,0.07963302,0.23699453,0.04262378
1761617720607,-0.05209396,0.11833639,0.10978943,0.00383157,-0.13752461,-0.02571664,0.96749780,0.07965467,0.23621752,0.04247848
1761617720619,-0.14667104,-0.03478736,0.01448831,0.02596285,-0.12804950,-0.01256579,0.96767110,0.07980656,0.23546843,0.04240497
1761617720631,-0.02206266,-0.00383874,0.05996518,0.00612223,-0.11186440,0.01466282,0.96783118,0.07984421,0.23478046,0.04249515
1761617720640,0.14727011,0.08259494,0.14260088,0.00467500,-0.12411487,0.02148937,0.96796912,0.07986665,0.23418471,0.04259830
1761617720652,-0.23304581,-0.11586161,-0.08192196,0.03224005,-0.10419529,0.03539396,0.96808750,0.08004880,0.23359601,0.04279828
1761617720654,12.73001417,7.99745420,7.25561112,0.13476022,-0.51016281,0.17123782,0.96820212,0.08019704,0.23303483,0.04298664
1761617720664,-2.84064900,-1.40569427,-1.64552168,0.05008248,-0.09420598,0.01452996,0.96829137,0.08044745,0.23256380,0.04305929
1761617720674,-0.23074161,0.03222165,-0.03114039,0.02796954,-0.06841281,0.00718772,0.96836368,0.08059429,0.23220463,0.04309702
1761617720685,0.04422991,-0.12436899,0.05639314,0.02343524,-0.08053647,0.02003407,0.96845496,0.08072436,0.23175765,0.04320821
1761617720696,0.16850881,-0.11603038,0.10333406,0.00196612,-0.07160426,0.00415826,0.96854469,0.08073488,0.23137457,0.04323046
1761617720707,0.13049316,-0.32403394,0.17711661,-0.02563233,-0.06747252,0.00838587,0.96864205,0.08059518,0.23100685,0.04327616
1761617720718,-0.10853478,-0.02833582,0.01836631,-0.02592976,-0.07429816,0.00531004,0.96874997,0.08045257,0.23059821,0.04330537
1761617720729,-0.01527683,0.00412775,-0.15236801,-0.01241578,-0.04540530,-0.01938560,0.96882234,0.08038180,0.23033940,0.04319487
1761617720741,-0.02660866,0.01543365,-0.07099788,-0.01791574,-0.06170278,-0.01515726,0.96891989,0.08027789,0.22998152,0.04310696
1761617720752,0.07170616,0.04126762,-0.10843727,-0.02422523,-0.06213400,-0.01716003,0.96901266,0.08014949,0.22965221,0.04301601
1761617720763,-0.10338325,-0.03054652,-0.04535940,-0.01955020,-0.07855853,-0.00955854,0.96913443,0.08003415,0.22918871,0.04295961
1761617720774,0.20418503,-0.01010336,-0.14407663,-0.03157165,-0.07048208,0.00236784,0.96923690,0.07986524,0.22881164,0.04297228
1761617720786,0.00686328,0.06727786,-0.07151955,-0.01519040,-0.09293470,0.00819457,0.96937710,0.07977182,0.22824009,0.04302268
1761617720797,0.28295675,0.03775028,-0.12000044,-0.01486505,-0.14479261,0.00283240,0.96956328,0.07969303,0.22747269,0.04303769
1761617720807,0.40144291,0.11045978,-0.00809723,-0.04584364,-0.17492445,0.00931687,0.96978480,0.07946381,0.22659806,0.04308427
1761617720819,-0.07650411,-0.03615364,0.01473697,-0.03983702,-0.16173526,0.00696405,0.97003279,0.07922081,0.22561148,0.04312675
1761617720830,0.23599851,-0.04815643,-0.14133283,-0.02428878,-0.20420488,-0.02852664,0.97030360,0.07909086,0.22451898,0.04297414
1761617720841,0.09096584,0.13519188,-0.04521165,-0.02759836,-0.20091609,-0.01893402,0.97057807,0.07893769,0.22340390,0.04286905
1761617720852,0.11347268,0.11470187,-0.04110208,-0.00776137,-0.22169155,-0.01033786,0.97085871,0.07889578,0.22220676,0.04281323
1761617720864,-0.06342119,-0.10421632,-0.08044821,-0.01335793,-0.19342356,-0.00662768,0.97113640,0.07881430,0.22102688,0.04277280
1761617720875,0.51295042,-0.20926633,0.01653845,-0.03429303,-0.20865085,-0.00859457,0.97141424,0.07862569,0.21987930,0.04272553
1761617720886,0.10802486,-0.14007545,-0.09243841,-0.04938785,-0.23999110,-0.01897315,0.97172683,0.07836393,0.21860735,0.04262497
1761617720897,-0.11892717,0.00296168,0.07196753,-0.03925477,-0.22325956,-0.02547640,0.97204474,0.07813429,0.21730128,0.04247593
1761617720908,0.57805180,0.03922278,-0.38155056,-0.04539293,-0.22526545,-0.02402812,0.97234668,0.07788463,0.21606232,0.04234378
1761617720919,-0.83115868,0.39648715,0.16008286,-0.02891788,-0.24912134,-0.05517807,0.97266706,0.07772992,0.21472952,0.04204858
1761617720930,0.14323234,0.19193374,-0.03497653,-0.02851763,-0.21456939,-0.07227270,0.97296695,0.07756737,0.21350647,0.04163662
1761617720942,-0.07791157,-0.39671249,-0.10347472,-0.00093297,-0.24536767,-0.07848482,0.97328373,0.07756219,0.21214468,0.04120103
1761617720953,0.37278015,0.04708564,0.11382269,-0.02797361,-0.23768625,-0.04335644,0.97358728,0.07740973,0.21084929,0.04096474
1761617720963,0.30080605,0.01929192,0.14989688,-0.06109005,-0.25264376,-0.02986393,0.97390864,0.07708596,0.20951028,0.04080646
1761617720975,-0.09608816,-0.22443847,0.14452658,-0.05232738,-0.22066033,-0.05945825,0.97422412,0.07677984,0.20821942,0.04045863
1761617720986,-0.08006180,-0.06504433,-0.29578648,-0.07240533,-0.24838358,-0.05528463,0.97457109,0.07636713,0.20680363,0.04014351
1761617720997,0.02515360,-0.09496623,-0.06146129,-0.06199897,-0.27510716,-0.05429426,0.97491360,0.07604164,0.20535932,0.03985846
1761617721008,-0.62905993,0.00297170,0.17913115,-0.05909699,-0.25024835,-0.08867188,0.97525063,0.07571365,0.20397044,0.03936633
1761617721019,-0.06743224,0.09466544,0.01427977,-0.05422060,-0.22850994,-0.04926727,0.97555737,0.07540459,0.20266794,0.03908551
1761617721030,-0.17069254,0.26705083,-0.07658759,-0.07681630,-0.25241861,0.00919635,0.97587816,0.07497826,0.20126701,0.03913655
1761617721041,0.42894382,0.05680982,0.02570299,-0.06127809,-0.18942090,-0.01532842,0.97612827,0.07463204,0.20019678,0.03904994
1761617721052,-0.46228204,0.06113172,-0.55149690,-0.03662510,-0.22775315,-0.01364214,0.97639774,0.07443426,0.19896692,0.03897628
1761617721064,0.10200265,-0.02108343,0.09391159,-0.02466271,-0.20919803,-0.02739538,0.97665463,0.07429492,0.19778495,0.03882149
1761617721074,0.23258814,0.24383949,-0.40077950,-0.06814929,-0.23725667,-0.03096747,0.97694776,0.07392691,0.19650376,0.03865427
1761617721087,-0.14997357,-0.30169815,0.04955344,-0.02738588,-0.20243157,-0.01663441,0.97721412,0.07375849,0.19525881,0.03855197
1761617721098,0.05100617,-0.34672258,0.05741397,-0.04571846,-0.22870116,0.00436586,0.97748260,0.07350704,0.19400095,0.03857598
1761617721108,-0.34635717,-0.37355856,0.44562600,-0.08249772,-0.23648476,0.03222357,0.97774109,0.07309455,0.19281853,0.03873710
1761617721119,0.18294054,0.79908922,0.15122902,-0.09479004,-0.18567845,0.06018881,0.97798400,0.07253529,0.19172302,0.03909221
1761617721131,-0.32636397,-0.44528346,-0.04763620,-0.09183722,-0.16582920,0.08352741,0.97818837,0.07201182,0.19077780,0.03956832
1761617721142,-0.03095828,0.05750614,-0.20213935,-0.02981338,-0.17621330,0.08706056,0.97836126,0.07185530,0.18985268,0.04002539
1761617721153,-0.22091563,0.12867034,0.01513769,-0.00781929,-0.14404683,0.05636494,0.97851813,0.07180838,0.18898840,0.04036357
1761617721164,-0.04438199,0.09809524,-0.22047180,-0.01803846,-0.16385774,0.05935182,0.97868399,0.07171007,0.18809537,0.04068704
1761617721176,-0.19055383,-0.00496769,-0.07811268,-0.02376004,-0.14697863,0.04519268,0.97884241,0.07157583,0.18726494,0.04094238
1761617721187,-0.00806769,-0.23515225,-0.10947452,-0.04238301,-0.15209394,0.01554613,0.97901237,0.07134696,0.18644364,0.04102633
1761617721197,0.14566692,-0.22878037,0.08363754,-0.05589170,-0.14166370,0.01270141,0.97918137,0.07103676,0.18565740,0.04109682
1761617721209,0.06731479,-0.22912510,0.16860550,-0.05467990,-0.13879405,-0.00484359,0.97936234,0.07071141,0.18483158,0.04106800
1761617721220,0.11807843,-0.10921631,-0.25313220,-0.09748563,-0.14495664,-0.01121506,0.97954668,0.07019474,0.18406331,0.04100856
1761617721231,0.04812610,0.03935797,0.10987957,-0.12896552,-0.13773453,0.02438471,0.97973705,0.06947253,0.18329199,0.04114512
1761617721243,0.01885742,0.07349965,0.04809276,-0.11757846,-0.11652597,-0.01259761,0.97991443,0.06879058,0.18261614,0.04107205
1761617721254,0.07149963,-0.04290058,-0.09084734,-0.09001166,-0.13328087,0.00300365,0.98008932,0.06828201,0.18186311,0.04108902
1761617721264,0.21956154,-0.11525987,-0.19736674,-0.12912145,-0.15007239,-0.05731926,0.98029084,0.06761704,0.18109023,0.04079383
1761617721275,0.54949476,0.07114797,0.00624912,-0.11525837,-0.16298259,-0.03572226,0.98049588,0.06701769,0.18024272,0.04060807
1761617721286,-0.42205160,-0.24796519,0.09199389,-0.09286332,-0.16343823,-0.03255446,0.98070850,0.06649301,0.17931930,0.04042414
1761617721298,-0.20953809,0.25335140,0.11671849,-0.10519441,-0.18038434,-0.03553343,0.98094680,0.06588815,0.17828209,0.04021982
1761617721309,0.51497708,0.06719027,0.13876043,-0.14061252,-0.17990273,0.01204109,0.98117296,0.06512181,0.17730162,0.04028545
1761617721320,0.02027722,0.21214172,-0.15315420,-0.11124387,-0.17578928,0.02008559,0.98139256,0.06448216,0.17629083,0.04040094
1761617721331,0.27165885,0.41760622,0.08474626,-0.11097106,-0.20373996,0.02352066,0.98162137,0.06388846,0.17520082,0.04052677
1761617721342,-0.46548971,-0.34348568,-0.20144039,-0.05676797,-0.21007198,0.00426903,0.98185637,0.06356205,0.17399291,0.04055132
1761617721353,-0.15112689,0.33656906,-0.21847480,-0.06465980,-0.21156645,-0.01155077,0.98209371,0.06319672,0.17279756,0.04048606
1761617721365,0.19381093,-0.04645249,0.19738677,-0.03416445,-0.19078860,0.00038726,0.98230573,0.06299344,0.17166237,0.04048836
1761617721376,0.07036205,0.02894455,-0.71553176,-0.04776769,-0.21675190,0.01876446,0.98251789,0.06274027,0.17051358,0.04058782
1761617721387,0.31248061,-0.50340785,0.18704159,-0.04832789,-0.17480091,0.03301205,0.98269208,0.06247688,0.16956092,0.04076773
1761617721398,-0.27896663,0.40537456,0.19442901,-0.09108327,-0.18825113,0.01443624,0.98289485,0.06198503,0.16854436,0.04084569
1761617721435,-0.35794105,0.00429624,0.38519965,-0.03181274,-0.04902243,0.00566155,0.98308504,0.06138854,0.16762519,0.04095184
1761617721445,5.70612700,-0.44587996,-4.70903574,-0.24251714,-0.51685653,0.04274828,0.98358321,0.06018808,0.16506675,0.04116344
1761617721455,-3.60023974,-0.47496406,2.48124631,-0.10253650,-0.21668187,-0.00697139,0.98379498,0.05968053,0.16399417,0.04112894
1761617721467,-0.53394978,0.17712568,0.69856967,-0.07866360,-0.15848732,0.01436276,0.98397185,0.05922428,0.16307495,0.04121224
1761617721476,0.10002184,-0.40207618,0.33607339,-0.10468245,-0.17455337,0.00685519,0.98413560,0.05873227,0.16225455,0.04124446
1761617721487,-0.60173501,0.16514443,-0.18283420,-0.09797061,-0.17042594,0.00287654,0.98431766,0.05820323,0.16133425,0.04125999
1761617721499,0.11109518,0.18603693,0.33684396,-0.09286040,-0.13610137,0.02307749,0.98447946,0.05764143,0.16051083,0.04139961
1761617721509,0.69219986,-0.37545990,-0.61640478,-0.10289198,-0.13928460,0.03545556,0.98461662,0.05712182,0.15980745,0.04157866
1761617721520,-0.83785589,-0.06966900,0.15568980,-0.09502333,-0.14269679,0.00347277,0.98477164,0.05660394,0.15902975,0.04159759
1761617721531,0.35215542,0.01892513,0.28288870,-0.10757811,-0.10700195,0.01047847,0.98490361,0.05598537,0.15841449,0.04165784
1761617721543,-0.04405203,0.00183831,0.26996592,-0.13256837,-0.10414808,0.02590223,0.98503186,0.05524962,0.15783647,0.04180160
1761617721555,-0.05238817,-0.11457251,-0.27991470,-0.09423590,-0.08050502,0.04355925,0.98513199,0.05467007,0.15734136,0.04206949
1761617721565,0.25517816,0.22688071,0.35992885,-0.13424912,-0.09675707,0.06000658,0.98523834,0.05396526,0.15683338,0.04238452
1761617721576,-0.40752617,-0.23128483,-0.02009014,-0.09952903,-0.07461514,0.03423572,0.98532372,0.05342780,0.15643046,0.04256939
1761617721587,-0.22893416,0.15023804,0.35157747,-0.13481219,-0.09232136,0.01713899,0.98543793,0.05269981,0.15593193,0.04266194
1761617721598,0.56239258,-0.12722119,0.01345339,-0.12215523,-0.03641023,0.03151817,0.98549995,0.05200353,0.15572439,0.04284160
1761617721610,-0.16272525,0.38491084,-0.14574110,-0.13473499,-0.05380666,0.04063560,0.98557917,0.05122880,0.15541500,0.04307525
1761617721621,0.29396065,-0.04084656,0.09395972,-0.09472151,-0.04522914,0.04801681,0.98563423,0.05070310,0.15516398,0.04334175
1761617721632,-0.19931232,0.01016266,-0.26683851,-0.08202279,-0.03985590,0.03045195,0.98568443,0.05025197,0.15494477,0.04350923
1761617721643,0.30774680,-0.19551274,0.15417630,-0.03922431,-0.02836906,0.02223733,0.98571370,0.05004212,0.15479300,0.04362820
1761617721655,-0.36202912,0.25105612,0.27272414,-0.06953296,-0.02986129,0.00435709,0.98576215,0.04962145,0.15461234,0.04365456
1761617721665,0.07204210,-0.51297300,-0.15847198,-0.02874961,-0.03736188,-0.02517053,0.98580716,0.04946764,0.15441245,0.04351990
1761617721676,0.45365393,0.58575317,0.21369884,-0.07493099,-0.02241342,0.01937578,0.98584107,0.04907050,0.15429366,0.04362259
1761617721688,-0.28721160,-0.22489088,0.09601720,-0.05613901,-0.02597394,0.01038711,0.98587876,0.04873928,0.15414041,0.04368388
1761617721698,-0.03251208,-0.07748593,-0.40395543,-0.02009719,-0.02067135,-0.02441568,0.98590687,0.04863277,0.15403086,0.04355447
1761617721710,0.18656506,0.20238084,0.03970821,-0.01949548,-0.00934265,0.00549137,0.98591982,0.04851677,0.15397527,0.04358715
1761617721722,-0.27415114,0.21102550,0.16109151,-0.05125314,-0.02738034,-0.00673063,0.98596269,0.04820669,0.15380962,0.04354643
1761617721733,0.52617093,-0.19386882,0.16269881,-0.06061529,-0.03245526,-0.00553733,0.98600522,0.04789452,0.15364247,0.04351791
1761617721745,-0.27203722,-0.21718591,-0.25148980,-0.02858398,-0.02676037,-0.02188986,0.98604368,0.04772588,0.15348458,0.04338876
1761617721756,0.09253554,0.19805422,0.23165532,-0.07993392,-0.05198709,-0.02886186,0.98611827,0.04727425,0.15319086,0.04322569
1761617721767,0.18247775,0.03019890,-0.10870577,-0.07007154,-0.04549232,-0.00678457,0.98617768,0.04688535,0.15293838,0.04318803
1761617721777,1.19519730,-0.33332189,-0.33868818,-0.08119163,-0.06731126,0.07945225,0.98622940,0.04649563,0.15261528,0.04356941
1761617721788,-1.01549566,0.22379451,0.57420783,-0.08820901,-0.05205727,-0.00273729,0.98629709,0.04601048,0.15232897,0.04355435
1761617721798,0.05775385,-0.33927597,0.01100073,-0.07192541,-0.05532435,-0.00124084,0.98636152,0.04562209,0.15203021,0.04354765
1761617721810,0.11497263,0.23294754,0.01076228,-0.08246945,-0.06362960,0.02793148,0.98643317,0.04514376,0.15166116,0.04370965
1761617721821,0.41904200,-0.22056045,0.05926733,-0.06433630,-0.06132476,0.05681436,0.98648524,0.04480278,0.15133614,0.04401077
1761617721832,-0.48522211,-0.23390558,-0.06687467,-0.03281274,-0.05451772,0.01028626,0.98653872,0.04461575,0.15102539,0.04406940
1761617721844,-0.07920061,0.35287354,0.11806757,-0.07268702,-0.04828967,0.03575714,0.98659170,0.04419053,0.15074290,0.04427858
1761617721854,0.28118282,-0.53334942,0.29396224,-0.07443721,-0.03761330,0.01975693,0.98663543,0.04379229,0.15054166,0.04438428
1761617721867,-0.21219204,0.20055995,-0.13701013,-0.08768421,-0.02883508,0.03029818,0.98667752,0.04325742,0.15036577,0.04456910
1761617721876,0.51184179,-0.07381528,0.07417419,-0.13265636,-0.03969394,0.04190172,0.98672662,0.04260077,0.15016929,0.04477651
1761617721888,-0.62522630,-0.05044370,-0.15613655,-0.05497755,-0.00417738,-0.00135457,0.98674438,0.04228190,0.15014506,0.04476865
1761617721899,0.43108416,0.17589446,-0.00845816,-0.03586760,-0.00040274,0.02588667,0.98674664,0.04208821,0.15014288,0.04490844
1761617721910,-0.16585004,0.11933670,0.44517641,-0.07021197,-0.00157377,0.03257481,0.98675635,0.04169502,0.15013407,0.04509086
1761617721921,0.26752071,0.19802891,-0.03715029,-0.05930225,0.01401951,0.02774839,0.98675113,0.04135404,0.15021468,0.04525042
1761617721933,0.13249421,-0.38559476,-0.16402930,-0.04749751,0.02171685,0.03029153,0.98673497,0.04107143,0.15034390,0.04543065
1761617721944,0.37841445,-0.30807023,0.32039162,-0.06719830,0.00033286,0.00947875,0.98674715,0.04071528,0.15034566,0.04548089
1761617721955,-0.41299625,0.65820286,0.21335027,-0.08968207,-0.00839265,-0.01456704,0.98677894,0.04020857,0.15029824,0.04539858
1761617721966,0.50338520,-0.03496224,-0.19285837,-0.07418130,-0.00990130,0.01284223,0.98680033,0.03980428,0.15024428,0.04546857
1761617721977,0.30544913,-0.01463644,-0.41780847,-0.05562199,-0.00945270,0.02021268,0.98681458,0.03951505,0.15019513,0.04557368
1761617721988,-0.33106636,0.37226443,0.31794224,-0.05188548,-0.02034933,-0.01406398,0.98684773,0.03921930,0.15007914,0.04549351
1761617721999,0.25669028,-0.39127517,-0.24786857,0.00489613,-0.04318229,-0.01569377,0.98688601,0.03924574,0.14984595,0.04540877
1761617722010,-0.08049455,0.13254599,0.28899222,-0.00909540,-0.06466956,-0.02233299,0.98694759,0.03919572,0.14949027,0.04528594
1761617722021,0.17334101,0.28300314,-0.01120300,-0.02098287,-0.05756833,-0.01111777,0.98700438,0.03907716,0.14916501,0.04522312
1761617722033,-0.18058029,-0.75832548,0.11502309,-0.01285154,-0.05086011,0.01040989,0.98705025,0.03900070,0.14886239,0.04528506
1761617722044,0.64739861,0.64872123,0.24473694,-0.06781608,-0.06906940,0.00415723,0.98711980,0.03863449,0.14848941,0.04530751
1761617722056,-0.45284746,0.11675669,-0.06217531,-0.05396247,-0.06284913,0.02808550,0.98718234,0.03830532,0.14810604,0.04547883
1761617722067,0.46615936,-0.35235912,-0.18810239,-0.01295648,-0.07305794,0.00683280,0.98724191,0.03823600,0.14771518,0.04551539
1761617722077,-0.07080297,0.44355976,0.19991426,-0.03718924,-0.06774210,0.00103577,0.98730350,0.03803704,0.14735275,0.04552093
1761617722088,0.05806516,-0.34644755,-0.27295387,-0.01465155,-0.07066494,0.00631903,0.98736076,0.03795939,0.14697823,0.04555442
1761617722100,-0.13810029,0.12944351,0.13816832,-0.02529018,-0.06723801,-0.00118263,0.98742413,0.03781397,0.14659161,0.04554762
1761617722111,-0.09725506,-0.02077021,0.21964381,-0.02997749,-0.06529772,0.00118036,0.98748500,0.03764459,0.14622268,0.04555429
1761617722122,0.09195809,-0.31265591,-0.08602325,-0.00449681,-0.05355053,-0.00541289,0.98753296,0.03761874,0.14591476,0.04552316
1761617722133,0.30526813,0.00304982,0.42140530,-0.02091579,-0.04997047,-0.00992178,0.98758085,0.03750266,0.14563743,0.04546810
1761617722143,0.06190291,-0.08779066,0.16083588,-0.04963699,-0.06373701,0.00674817,0.98763564,0.03725447,0.14531874,0.04550184
1761617722156,-0.54550171,-0.14543533,-0.13427734,-0.04365602,-0.04548949,0.00553991,0.98768609,0.03698162,0.14503443,0.04553646
1761617722167,0.96640582,0.38398208,0.27615475,-0.08257696,-0.03647101,0.01422508,0.98772726,0.03654396,0.14484114,0.04561186
1761617722179,-0.70752161,0.00425197,-0.46058037,-0.03910052,-0.04432108,0.01434072,0.98777198,0.03630349,0.14456856,0.04570005
1761617722231,-0.56143478,0.13769847,-0.13700678,-0.00605211,-0.00502850,0.00421502,0.98779173,0.03614674,0.14443832,0.04580922
1761617722257,2.95939297,-0.71857774,1.36269620,-0.03064868,-0.01068071,0.05746401,0.98779159,0.03574678,0.14429894,0.04655913
1761617722280,-2.02841398,0.52246171,-0.74836944,-0.02688947,0.01902460,0.04723737,0.98774479,0.03543621,0.14451868,0.04710472
1761617722314,-0.43502726,0.04271361,-0.27941474,-0.03001094,-0.00338372,0.02381829,0.98775205,0.03492152,0.14446064,0.04751320
1761617722323,14.30444790,-2.80454838,7.04604578,-0.18594769,-0.10950990,0.10169094,0.98783285,0.03406616,0.14395690,0.04798098
1761617722345,-5.21484509,1.23141259,-2.60503987,-0.02554052,-0.04130158,0.02656679,0.98789297,0.03379160,0.14351291,0.04826657
1761617722367,0.10003740,-0.02782343,-0.00290275,0.00627727,-0.03376692,0.02416378,0.98793112,0.03386002,0.14314485,0.04852996
1761617722379,0.18619872,0.07585598,-0.06539332,-0.02948187,-0.04424767,-0.03233649,0.98798825,0.03367281,0.14286388,0.04832462
1761617722400,-1.10215613,0.34639862,-0.38102365,-0.04372170,-0.02016282,-0.00485710,0.98803664,0.03321592,0.14265317,0.04827386
1761617722411,1.72372064,-0.53641400,0.88679387,-0.03864341,-0.03755257,0.00305081,0.98807307,0.03300145,0.14244476,0.04829080
1761617722422,-0.27090821,0.00628894,0.06192188,0.00458955,-0.02706746,-0.03081261,0.98810221,0.03302692,0.14229453,0.04811979
1761617722434,-0.08338924,-0.00783379,-0.24574998,0.00606439,-0.02544313,-0.00930703,0.98812412,0.03306088,0.14215205,0.04806767
1761617722445,-0.07134612,-0.06069437,-0.06335506,0.03780884,-0.02244936,-0.01106581,0.98813773,0.03326694,0.14202970,0.04800736
1761617722456,0.48244105,0.26589122,0.37860632,0.00477280,-0.01627599,-0.01875327,0.98815471,0.03329319,0.14194018,0.04790421
1761617722458,41.33138510,-4.76946690,18.75597288,0.01900924,-0.10292102,-0.05268441,0.98817891,0.03332075,0.14179095,0.04782782
1761617722469,-11.82901221,1.26382503,-5.57609452,0.00172054,-0.01037956,-0.02052044,0.98819114,0.03332944,0.14173853,0.04772419
1761617722478,-0.09772664,0.34571166,0.05554884,-0.02910138,-0.01285157,-0.00681047,0.98820659,0.03318684,0.14167556,0.04769082
1761617722489,-0.59914970,-0.10602349,-0.46400315,-0.00984209,-0.01900160,-0.03115955,0.98823141,0.03313321,0.14157200,0.04752100
1761617722502,0.46386530,-0.24004350,0.35838091,0.00831916,-0.01312776,-0.00725318,0.98824340,0.03318437,0.14149126,0.04747640
1761617722512,0.55390645,0.32733611,0.57507337,0.02620563,-0.01252111,-0.05336341,0.98826073,0.03331540,0.14142866,0.04720958
1761617722522,-0.42591115,-0.55900839,-0.25242323,0.03707264,0.00072124,-0.04116096,0.98826394,0.03351188,0.14143248,0.04699143
1761617722535,-0.44962672,0.27024691,-0.37955788,0.00994739,0.00574974,-0.01093195,0.98825984,0.03357554,0.14146928,0.04692146
1761617722545,0.51911590,-0.04639392,0.67892865,-0.01934936,-0.01577825,-0.01954997,0.98827981,0.03347493,0.14138723,0.04681980
1761617722556,0.19560034,-0.04483163,-0.13868127,0.00766518,0.00440704,-0.03535941,0.98828403,0.03351632,0.14141103,0.04662886
1761617722568,-0.51330816,0.09082313,-0.42996613,0.01097657,-0.00714560,-0.03436326,0.98829718,0.03357998,0.14136959,0.04642955
1761617722578,0.73119505,0.32222581,0.52474831,0.00217937,0.01037503,-0.06172266,0.98830417,0.03359143,0.14142406,0.04610551
1761617722590,-0.31585771,-0.07605535,-0.27696517,0.01748547,0.00609170,-0.03074719,0.98830397,0.03369109,0.14145878,0.04593025
1761617722601,-0.31616076,0.04328992,-0.08305064,0.00582322,-0.00522057,-0.04138343,0.98831840,0.03372516,0.14142824,0.04568816
1761617722612,0.19492172,0.45335916,0.38538721,0.00433309,0.01483822,-0.04211580,0.98831670,0.03374747,0.14150465,0.04547126
1761617722624,-0.45659307,-0.08825543,-0.29431914,0.02863423,0.02606834,-0.01706863,0.98829292,0.03392071,0.14166237,0.04536800
1761617722635,0.43302064,-0.29949074,-0.07244099,0.06735511,0.02563469,-0.03179852,0.98826816,0.03428780,0.14180208,0.04519469
1761617722646,-0.18232055,0.21088128,0.11229229,0.02640738,0.02240394,-0.02356476,0.98825042,0.03444096,0.14193202,0.04505802
1761617722656,0.64652006,-0.16962891,0.08905568,0.06031143,0.03683719,-0.03246819,0.98822049,0.03474553,0.14211805,0.04489405
1761617722668,-0.70146048,0.13288011,-0.46391059,0.01859853,0.01503194,-0.01810004,0.98820871,0.03485526,0.14220674,0.04478726
1761617722679,0.28329473,0.03174744,0.17434513,0.02691585,0.00151125,-0.03316511,0.98821056,0.03500599,0.14221520,0.04460154
1761617722690,0.30897102,-0.12049329,-0.16273014,0.05220956,0.02850588,-0.02380921,0.98818490,0.03528009,0.14236486,0.04447654
1761617722701,-0.58590116,-0.12815033,-0.04299462,0.05031364,0.01437863,-0.04035087,0.98817282,0.03557443,0.14244897,0.04424049
1761617722712,0.23250405,0.11725404,0.06572501,0.03960600,0.04301593,-0.05529827,0.98814543,0.03578434,0.14267695,0.04394741
1761617722723,0.08046863,-0.02456199,0.39259892,-0.01828044,0.04281484,-0.01709045,0.98811993,0.03568654,0.14290601,0.04385597
1761617722735,-0.56632731,-0.04828201,-0.51630269,0.00560958,0.04421806,-0.03014719,0.98808726,0.03572132,0.14318017,0.04366906
1761617722746,0.61400776,0.40612406,-0.01476995,0.01539969,0.04764967,-0.01606388,0.98805076,0.03580448,0.14343747,0.04358232
1761617722758,-0.05394264,-0.51017463,-0.49585227,0.03907263,0.04224265,0.01230002,0.98800378,0.03603110,0.14368248,0.04365366
1761617722780,-0.93661648,0.05802265,-0.18903682,0.01648224,0.01759198,-0.02047331,0.98797789,0.03621982,0.14388391,0.04341924
1761617722791,4.46338598,-0.45951683,1.24243015,0.01704157,0.03318065,-0.00445916,0.98795104,0.03630673,0.14405313,0.04339650
1761617722792,119.43368351,-17.98579895,23.14997654,0.13985696,0.25498727,-0.17221316,0.98792494,0.03641162,0.14424437,0.04326734
1761617722802,-22.48175007,3.07581744,-4.49436526,0.01779824,0.03166160,-0.02364698,0.98790519,0.03649439,0.14439160,0.04315738
1761617722812,0.80417081,0.52129997,-0.05116731,0.00509216,0.04914715,-0.02019562,0.98787011,0.03652188,0.14465699,0.04304832
1761617722823,-0.13490763,-0.47524280,-0.26981526,0.03578743,0.04128099,-0.00703827,0.98783193,0.03671514,0.14487991,0.04301031
1761617722835,-0.34898655,0.14496263,0.11838506,0.04010831,0.04144497,-0.03124387,0.98779585,0.03694776,0.14512029,0.04282910
1761617722846,0.19501182,-0.29840010,-0.02213076,0.02313488,0.07017989,-0.02090251,0.98773670,0.03708079,0.14552383,0.04270891
1761617722857,0.14602141,0.45558853,0.35223018,-0.03339869,0.04747157,-0.00440877,0.98770779,0.03690712,0.14577068,0.04268598
1761617722868,-0.21612460,-0.22497121,-0.32560523,0.00201167,0.07267304,-0.01587707,0.98765055,0.03691848,0.14618128,0.04259628
1761617722880,-0.07472270,-0.37636087,-0.08088794,-0.00750890,0.05967696,-0.01340820,0.98760384,0.03687456,0.14653039,0.04251784
1761617722890,-0.05143399,0.40387927,0.10972584,-0.03340811,0.04423874,-0.05338285,0.98758806,0.03670083,0.14676043,0.04224025
1761617722901,0.41971764,0.30364807,-0.05457873,-0.01509512,0.04693153,-0.04133427,0.98756175,0.03661555,0.14702559,0.04200671
1761617722913,-0.03609533,0.19367527,0.01718526,-0.02276844,0.03930633,-0.03614680,0.98754157,0.03648349,0.14725357,0.04179706
1761617722923,0.65920206,-0.56501304,-0.51750442,0.06159695,0.04288131,-0.04550042,0.98750673,0.03680071,0.14747441,0.04156273
1761617722935,-0.57743909,0.16149415,0.38507813,0.02443726,0.00043924,-0.05473888,0.98751424,0.03694001,0.14747691,0.04125072
1761617722946,0.10469686,0.13451204,0.08779056,-0.00221093,0.02071696,-0.07241150,0.98751423,0.03692773,0.14759189,0.04084884
1761617722957,0.02147103,0.13366610,0.07548967,-0.00136881,0.01831733,-0.06314448,0.98751373,0.03691986,0.14769722,0.04048576
1761617722968,0.25640369,-0.26377794,-0.31815730,0.00263339,-0.00511926,-0.05394072,0.98752966,0.03693448,0.14766881,0.04018639
1761617722979,-0.22446681,0.68501077,0.18576563,-0.00365868,-0.00818552,-0.09100368,0.98755763,0.03691417,0.14762338,0.03968132
1761617722991,-0.18214132,-0.07354704,-0.20643131,0.02196384,-0.02126357,-0.07598552,0.98758809,0.03703827,0.14750324,0.03925200
1761617723002,0.18871797,-0.31765623,-0.09266354,0.04463225,-0.02691586,-0.02774793,0.98760821,0.03729937,0.14734578,0.03908967
1761617723013,0.09717123,0.16957795,0.08302008,0.04399865,-0.02887434,-0.05835921,0.98763488,0.03753696,0.14718986,0.03877453
1761617723024,0.04721517,-0.31563881,0.13551835,0.03992810,-0.05077411,-0.03991374,0.98767479,0.03774658,0.14692329,0.03856498
1761617723035,-0.26106706,-0.00966147,0.02919174,0.01421621,-0.04025593,-0.04817468,0.98771538,0.03782548,0.14669987,0.03829762
1761617723046,-0.24690808,0.18696886,0.10139385,-0.00326977,-0.03510456,-0.02002972,0.98775082,0.03780652,0.14649627,0.03818144
1761617723057,0.27911924,-0.04038771,-0.13166534,0.02109783,-0.02527580,-0.04444314,0.98777594,0.03792045,0.14635978,0.03794145
1761617723068,-0.23821584,0.13800891,-0.01407895,0.02416524,-0.01628989,-0.04013860,0.98779285,0.03805577,0.14626855,0.03771667
1761617723079,-0.21195890,-0.30789282,-0.36733913,0.05271452,-0.01502171,-0.02469023,0.98779905,0.03834570,0.14618593,0.03758088
1761617723090,0.13792810,0.41624731,0.29161942,0.01229659,-0.01890103,-0.00447602,0.98781273,0.03841333,0.14608198,0.03755626
1761617723102,-0.62371145,-0.36852762,-0.17600468,0.03307261,-0.01217451,-0.02902257,0.98782216,0.03860681,0.14601076,0.03738648
1761617723114,0.21264532,0.06924144,0.16168655,0.02191636,0.01482139,-0.01311527,0.98780710,0.03873611,0.14609820,0.03730910
1761617723124,0.19794963,-0.77798818,-0.50404464,0.06029629,-0.00531828,-0.02634583,0.98780410,0.03904061,0.14607135,0.03717605
1761617723135,-0.33503279,0.48445438,0.42667149,0.00172628,0.01029984,-0.02364589,0.98780005,0.03905054,0.14613057,0.03704009
1761617723146,-0.13182752,-0.02745652,-0.19498884,0.00408059,0.01611370,-0.04822036,0.98779607,0.03907237,0.14621678,0.03678211
1761617723157,-0.03092477,-0.07747921,-0.11161852,0.02726411,0.01832837,-0.02150433,0.98777945,0.03922368,0.14631850,0.03666276
1761617723169,-0.15480469,-0.35895338,0.10836329,0.01843611,0.01642183,-0.04008991,0.98777011,0.03932600,0.14640964,0.03644026
1761617723180,-0.41256473,0.22674376,0.08882276,0.00534979,0.01531107,-0.05413776,0.98776717,0.03935784,0.14650074,0.03611814
1761617723191,0.93555094,-0.24166533,0.41433393,-0.02038818,0.02885166,-0.01529301,0.98775246,0.03925488,0.14664644,0.03604091
1761617723202,-0.79168842,0.16175638,-0.53933450,-0.01780847,0.00174118,-0.00693123,0.98775656,0.03915070,0.14665663,0.03600036
1761617723213,0.27693403,-0.16680206,0.12354586,-0.00573683,0.02531614,-0.01361820,0.98773986,0.03911914,0.14679587,0.03592546
1761617723225,-0.09136243,0.10535996,0.12551059,-0.02478459,0.00992780,0.00737814,0.98773542,0.03897539,0.14685345,0.03596826
1761617723236,0.07330404,0.07712784,-0.28391220,0.00001988,0.01294701,-0.00479194,0.98772596,0.03897550,0.14692336,0.03594238
1761617723247,-0.15630831,0.35696434,0.29211826,-0.00745805,0.00928388,-0.01456982,0.98772276,0.03893262,0.14697675,0.03585860
1761617723258,-0.27116206,-0.26693102,-0.60851624,0.01849170,-0.00535849,-0.01781392,0.98772650,0.03902970,0.14694861,0.03576508
1761617723270,-0.22314807,-0.11221565,0.64224859,0.01554939,-0.00363897,-0.01082023,0.98772846,0.03912533,0.14692623,0.03569854
1761617723280,0.17751523,-0.35572827,-0.21321987,0.02525740,-0.00248577,-0.00831789,0.98772680,0.03925161,0.14691381,0.03565695
1761617723320,-0.42119376,0.12278105,-0.07140578,0.00354849,0.00376398,-0.00213191,0.98771425,0.03932294,0.14698946,0.03561409
1761617723338,1.82445582,0.04214603,0.83749907,-0.02827506,0.05348804,0.06733461,0.98763102,0.03906988,0.14746818,0.03621674
1761617723358,-1.21343641,0.18527236,-0.50335322,0.02707393,0.03658513,0.02056366,0.98755691,0.03934468,0.14783952,0.03642546
1761617723369,2.16174773,-0.08720341,0.70759558,0.11775542,0.11746852,0.05171387,0.98743073,0.03995700,0.14845036,0.03669437
1761617723380,-0.96791075,0.14406362,0.03554799,0.15783176,0.11557306,0.02795567,0.98728997,0.04084875,0.14910334,0.03685232
1761617723393,-0.89272703,-0.04896041,-0.40908153,0.09887925,0.09921148,0.02215117,0.98716318,0.04147664,0.14973334,0.03699298
1761617723405,-0.46284485,0.28645589,-0.10352710,0.09880346,0.09442522,0.02105296,0.98704531,0.04207934,0.15030933,0.03712141
1761617723416,0.01522669,-0.10827208,-0.03717850,0.09931431,0.09047355,0.02557310,0.98693971,0.04263053,0.15081146,0.03726334
1761617723426,0.11478926,-0.05057098,0.11899742,0.09850095,0.09921626,0.02737913,0.98683206,0.04314766,0.15133234,0.03740708
1761617723437,0.06561989,-0.12441180,0.02519733,0.06299676,0.10609122,0.04635611,0.98672688,0.04346580,0.15186810,0.03764117
1761617723448,-0.02896840,-0.16937032,-0.05034984,0.07740202,0.10774440,0.03633859,0.98660793,0.04389538,0.15246609,0.03784285
1761617723459,-0.05553737,-0.14171793,0.02234511,0.05930380,0.10228457,0.01357366,0.98650435,0.04421858,0.15302354,0.03791683
1761617723471,-0.18393262,-0.19671697,-0.44657372,0.04613945,0.08267719,0.02899942,0.98640571,0.04450234,0.15353200,0.03809518
1761617723481,0.11953474,-0.13831621,-0.06623694,0.05339183,0.08685833,0.02696869,0.98631731,0.04477998,0.15398366,0.03823541
1761617723493,0.00559786,0.06477048,0.02212799,0.02829283,0.08220754,0.01435779,0.98623059,0.04494691,0.15446869,0.03832013
1761617723504,0.17421297,0.19081068,0.44610605,0.04776209,0.09851522,0.00369618,0.98613633,0.04520005,0.15499082,0.03833971
1761617723515,-0.05108244,0.07810297,-0.15538689,0.04529918,0.07729172,0.00189115,0.98605327,0.04546278,0.15543911,0.03835068
1761617723525,0.30504593,0.03173868,0.12201837,0.05720180,0.07693298,0.01243257,0.98597614,0.04575165,0.15582762,0.03841347
1761617723536,-0.11516860,0.11656587,-0.10688851,0.02414253,0.05413376,0.01308707,0.98591904,0.04588685,0.15613077,0.03848676
1761617723548,0.09227448,-0.08919015,-0.10278677,0.05508545,0.06849941,-0.01928849,0.98585056,0.04618431,0.15650067,0.03838260
1761617723560,-0.11669736,-0.02082398,-0.05042845,0.04198230,0.04118130,-0.01436854,0.98580203,0.04644040,0.15675188,0.03829495
1761617723570,0.37703336,0.48435184,0.02842307,0.00105462,0.04058559,0.01484573,0.98576341,0.04644615,0.15697307,0.03837586
1761617723581,0.09368304,0.06797080,-0.01007857,0.05671297,0.03659906,-0.02707495,0.98572425,0.04674389,0.15716521,0.03823372
1761617723592,0.14695790,0.08029940,0.03015143,0.04046180,0.03835011,-0.01760217,0.98568524,0.04695834,0.15736847,0.03814042
1761617723603,-0.24604331,-0.31947055,0.00472076,0.01806347,-0.00145762,-0.03821797,0.98569002,0.04706040,0.15736023,0.03792449
1761617723615,0.01295167,0.05448403,-0.03869821,0.02326808,-0.01066271,-0.03538015,0.98570131,0.04719535,0.15729839,0.03771929
1761617723625,0.20957247,0.21477409,-0.03367808,0.05957427,-0.00760295,-0.01500749,0.98569556,0.04751408,0.15725771,0.03763900
1761617723637,-0.15078842,-0.08604180,-0.08941988,0.05529868,-0.02481829,-0.01677412,0.98570671,0.04783481,0.15711377,0.03754171
1761617723648,0.03192847,0.13748926,0.05778486,0.02010757,-0.01671701,-0.02386758,0.98572111,0.04794640,0.15702099,0.03740924
1761617723660,-0.03946794,-0.18759577,-0.06121558,0.04655163,-0.01232699,0.02244208,0.98571414,0.04822571,0.15694702,0.03754389
1761617723670,0.11407329,0.16833920,0.00216253,0.05798092,-0.02240632,-0.00176843,0.98571828,0.04853011,0.15682939,0.03753461
1761617723681,-0.12002106,-0.07473126,-0.04128113,0.07141875,-0.00968160,-0.00307113,0.98570807,0.04891935,0.15677663,0.03751787
1761617723693,-0.27478443,0.04698824,0.03294635,0.01440225,-0.01554721,-0.02026642,0.98572260,0.04900216,0.15668723,0.03740134
1761617723703,0.02458377,-0.23801113,-0.05088723,0.04614520,-0.01480260,0.01361653,0.98572021,0.04923981,0.15661100,0.03747147
1761617723714,-0.09854366,-0.00125664,-0.00272758,0.02504511,0.00832344,-0.00865481,0.98570796,0.04937630,0.15665636,0.03742430
1761617723725,-0.13991763,-0.05488444,-0.09620194,0.02102113,0.00730007,0.00082150,0.98569527,0.04949507,0.15669761,0.03742894
1761617723738,-0.19660882,-0.15649711,-0.04439903,0.00825552,0.00049673,-0.00255505,0.98569279,0.04954667,0.15670071,0.03741297
1761617723748,0.09255615,-0.09653520,-0.06089675,0.01899220,0.02315379,-0.01145077,0.98567072,0.04964638,0.15682227,0.03735285
1761617723759,-0.05793436,-0.05780296,-0.04859011,0.00299896,0.00668168,0.01102159,0.98566191,0.04966257,0.15685835,0.03741237
1761617723770,0.10122765,0.30634036,0.04026580,-0.01404251,0.02119308,-0.01026613,0.98564916,0.04958393,0.15697703,0.03735488
1761617723782,-0.04011948,-0.02184740,-0.02759006,-0.01035697,0.01180267,-0.02127656,0.98564594,0.04952386,0.15704548,0.03723148
1761617723792,0.18909692,0.17025044,-0.01691046,-0.01138531,0.01013339,-0.01948531,0.98564437,0.04946580,0.15709717,0.03713210
1761617723803,-0.14586621,-0.25929079,-0.01684505,-0.00041405,0.00643327,-0.02773100,0.98564458,0.04946348,0.15713319,0.03697681
1761617723815,-0.03151501,0.06081873,-0.07927892,0.01526546,0.00158504,-0.02512002,0.98564413,0.04955049,0.15714223,0.03683362
1761617723825,0.14437483,0.21419545,0.03959012,0.00942456,-0.00595968,-0.00956967,0.98564863,0.04960139,0.15711004,0.03678195
1761617723837,0.00286991,-0.05821067,-0.04674833,0.01940922,-0.00343744,-0.01786842,0.98564996,0.04971105,0.15709062,0.03668099
1761617723848,0.05459263,-0.07630210,-0.01089113,0.00732251,-0.02047594,-0.01177420,0.98566845,0.04975169,0.15697698,0.03661564
1761617723859,-0.02799824,-0.14887034,-0.02068741,-0.00742139,-0.04181679,-0.02793479,0.98571522,0.04970864,0.15673444,0.03645362
1761617723870,0.03417627,0.09650721,0.29596789,-0.01639223,-0.03586995,-0.02879959,0.98575696,0.04961849,0.15653716,0.03629522
1761617723882,0.03409222,-0.03681449,-0.03947520,-0.02262044,-0.03894770,-0.01987709,0.98580163,0.04949294,0.15632100,0.03618491
1761617723893,-0.01675263,-0.00381022,0.01795585,-0.02212834,-0.03475793,-0.01797366,0.98584456,0.04936239,0.15611593,0.03607886
1761617723904,0.07106623,-0.08908454,-0.29778766,-0.01695266,-0.05432038,-0.02318782,0.98589909,0.04927254,0.15582803,0.03595597
1761617723915,-0.00161094,-0.00924328,-0.07284612,0.00505738,-0.04109716,-0.03574346,0.98593942,0.04929959,0.15560816,0.03576474
1761617723926,-0.10941251,0.11971683,0.06735762,-0.00705692,-0.03261895,-0.02646405,0.98597589,0.04925972,0.15542386,0.03561522
1761617723937,0.02708018,0.15436121,0.02085678,-0.00190260,-0.02342354,-0.02146083,0.98600143,0.04924907,0.15529269,0.03549504
1761617723949,-0.09017437,-0.08705199,-0.06455566,0.02319187,-0.03993930,-0.03080028,0.98603912,0.04938938,0.15505106,0.03530869
1761617723960,0.03556403,0.18878484,-0.08242156,0.00143119,-0.02905972,-0.04096686,0.98607070,0.04939696,0.15489704,0.03509157
1761617723970,-0.38618887,-0.18142389,0.22916702,0.01213641,-0.01915665,-0.03957848,0.98609086,0.04946129,0.15479551,0.03488180
1761617723982,-0.32310705,-0.04106017,0.02421857,-0.01617720,-0.04336930,-0.02485520,0.98613968,0.04936827,0.15454614,0.03473889
1761617723993,0.01103397,-0.08170764,-0.06871320,-0.02155107,-0.01186445,-0.00438243,0.98615607,0.04925405,0.15448326,0.03471566
1761617724004,0.18933977,-0.17704307,-0.34794212,0.00223987,0.00545367,0.02278187,0.98614598,0.04926681,0.15451434,0.03484552
1761617724015,-0.10051328,0.00924324,-0.00278325,0.00372960,-0.00575189,0.01488720,0.98614706,0.04928826,0.15448127,0.03493112
1761617724026,-0.04132286,-0.09092115,0.07547488,0.00559711,0.00994933,0.05268892,0.98612720,0.04931820,0.15453450,0.03521300
1761617724038,-0.17006218,0.16143948,0.02958150,-0.00481361,0.00583979,0.03784508,0.98611512,0.04928956,0.15456924,0.03543818
1761617724050,-0.02354228,-0.08335996,-0.10083488,0.02489367,0.01992766,0.04816808,0.98607999,0.04943270,0.15468383,0.03571515
1761617724060,-0.09228464,0.10709071,0.07913159,-0.02115131,-0.00811821,0.01352146,0.98608994,0.04931849,0.15463999,0.03578816
1761617724071,-0.17198346,-0.10314177,0.01226330,-0.01862238,0.00708684,0.02387669,0.98608422,0.04921699,0.15467861,0.03591829
1761617724082,-0.04718204,-0.09008844,-0.00420063,-0.00931804,0.00816463,0.01797986,0.98607627,0.04916668,0.15472270,0.03601538
1761617724094,-0.05604259,-0.02373935,-0.01312473,-0.03222743,0.02826974,0.04101833,0.98605112,0.04897976,0.15488667,0.03625329
1761617724104,-0.15171760,-0.00476968,-0.16235911,-0.03057881,0.04729784,0.01913392,0.98601667,0.04882075,0.15513262,0.03635279
1761617724115,-0.04183242,-0.11119456,-0.04368478,-0.02691287,0.03142889,0.02571878,0.98599178,0.04867407,0.15530390,0.03649295
1761617724127,-0.03330186,0.03074552,0.03781213,-0.04333261,0.02793318,0.01079750,0.98597590,0.04841624,0.15547011,0.03655720
1761617724138,0.02258429,-0.04097596,-0.02280790,-0.04105797,0.04552321,0.01522849,0.98594377,0.04818632,0.15572504,0.03664248
1761617724149,-0.12012412,-0.01936975,0.00408155,-0.05442136,0.04544163,0.03189149,0.98591231,0.04788700,0.15597496,0.03681788
1761617724160,0.00393945,-0.05776314,0.03701598,-0.04440175,0.05235910,0.00865047,0.98587741,0.04764723,0.15625770,0.03686459
1761617724171,-0.07874308,-0.22406931,0.11340755,-0.04272613,0.05005028,-0.00216236,0.98584552,0.04741224,0.15653298,0.03685270
1761617724182,-0.07093445,-0.06403805,0.02364482,-0.08119159,0.03623239,0.02553337,0.98582997,0.04696568,0.15673226,0.03699313
1761617724193,0.06932283,-0.01813698,0.02695510,-0.08689440,0.06499694,0.04193923,0.98578586,0.04647473,0.15709949,0.03723009
1761617724204,-0.15627739,-0.14921785,-0.21679507,-0.04451465,0.04739447,0.03417015,0.98574835,0.04622767,0.15736253,0.03741973
1761617724215,-0.06063553,0.20568443,0.07614694,-0.07401027,0.06343016,0.06069363,0.98569932,0.04582432,0.15770822,0.03775052
1761617724227,0.02648544,0.07221052,-0.03405719,-0.02976878,0.07213406,0.03927335,0.98563038,0.04564868,0.15813382,0.03798223
1761617724239,-0.11069142,0.17691293,0.02499760,-0.01871736,0.05108430,0.03685837,0.98557824,0.04553731,0.15843777,0.03820154
1761617724251,0.10438494,0.09049501,-0.01346902,-0.01011189,0.05466970,0.00064456,0.98552852,0.04547715,0.15876305,0.03820537
1761617724261,-0.10380129,0.08128557,-0.03256511,-0.02921465,0.03025693,0.00593930,0.98550878,0.04532377,0.15892190,0.03823655
1761617724272,0.03460043,0.05027875,-0.00865011,-0.04781507,0.02874053,0.00660399,0.98549460,0.04507274,0.15907279,0.03827122
1761617724283,0.06492942,-0.05897130,-0.00225189,-0.00781025,0.02945550,0.01894275,0.98546635,0.04502979,0.15923479,0.03837541
1761617724295,0.11078945,-0.12676870,0.04130021,-0.02449020,0.03027461,0.02126865,0.98543986,0.04488897,0.15940887,0.03849770
1761617724362,0.11164934,0.04328989,0.08342418,-0.00761708,0.00242905,0.00499273,0.98543168,0.04463189,0.15949085,0.03866621
1761617724371,-4.61649012,-2.93534479,-5.92847910,-0.13529935,-0.11035888,-0.00200856,0.98553966,0.04402304,0.15899424,0.03865717
1761617724404,1.18811234,0.59347710,1.35944083,-0.02972213,-0.03104416,0.00073461,0.98564567,0.04352223,0.15847114,0.03866955
1761617724438,-0.00083973,0.11315378,0.04786468,-0.02882542,-0.03224412,0.00286214,0.98575230,0.04303652,0.15792783,0.03871777
1761617724461,0.00770567,-0.02417072,0.00872638,-0.03365616,-0.01177005,-0.00843077,0.98579423,0.04265284,0.15779365,0.03862166
1761617724473,0.12583203,-0.36880374,0.31614861,-0.06955580,-0.02006293,-0.00992132,0.98583379,0.04223550,0.15767327,0.03856214
1761617724485,-0.08799467,0.05967539,-0.00886354,-0.06477157,-0.03677327,-0.01582555,0.98589026,0.04184040,0.15744896,0.03846560
1761617724496,0.25094276,0.17103172,0.02448901,-0.05221408,-0.02780148,-0.00652161,0.98592683,0.04156366,0.15730161,0.03843103
1761617724506,0.01684457,0.18170448,-0.21452729,-0.01655816,-0.03196307,-0.01001823,0.98595745,0.04148170,0.15714339,0.03838144
1761617724517,-0.01259426,0.16367260,0.06611987,-0.01720723,-0.03904772,-0.01550953,0.98599970,0.04138534,0.15692473,0.03829459
1761617724529,-0.05166190,-0.02003738,-0.06904602,-0.02188897,-0.03190907,-0.00295259,0.98603787,0.04124853,0.15672529,0.03827614
1761617724540,0.09932407,0.12166865,0.01246132,-0.01182639,-0.02614864,-0.00347755,0.98606346,0.04118526,0.15658540,0.03825753
1761617724553,0.01508327,0.02624740,0.07235753,-0.01239107,-0.01817340,-0.00163934,0.98608599,0.04110472,0.15646727,0.03824688
1761617724573,-0.05486308,-0.00468332,0.07054098,-0.00442028,-0.02028254,-0.00972459,0.98612300,0.04106140,0.15626850,0.03815158
1761617724583,0.59586290,-0.36450924,0.07525460,-0.04526124,-0.02709678,0.00509431,0.98615526,0.04081699,0.15612218,0.03817909
1761617724595,-0.11549762,0.09018329,0.14515950,0.00956971,-0.02690074,-0.01899167,0.98618191,0.04087249,0.15596616,0.03806893
1761617724596,23.81079955,-15.05257069,-5.03145415,0.10886501,-0.14348067,-0.08393135,0.98619796,0.04095414,0.15585854,0.03800598
1761617724606,-4.06632483,2.64106776,0.31331816,0.01824147,-0.03662252,-0.00871913,0.98622450,0.04104444,0.15567726,0.03796283
1761617724618,0.01638897,0.06820544,0.05477559,0.01618279,-0.01066098,-0.00927294,0.98623235,0.04113749,0.15561596,0.03790951
1761617724628,-0.00644884,-0.02933246,-0.17892606,0.00491101,-0.01969798,0.00814151,0.98624568,0.04116278,0.15551452,0.03795143
1761617724672,-0.01686083,-0.00451068,0.10057888,-0.00236866,-0.00431656,-0.00330939,0.98626558,0.04111079,0.15541977,0.03787879
1761617724701,-0.06774934,-0.06117771,-0.14140210,-0.01917384,-0.00852668,0.00097817,0.98629585,0.04083469,0.15529699,0.03789288
1761617724719,0.03358269,0.01747740,0.01874970,-0.00909249,-0.01444307,-0.00349551,0.98632104,0.04075240,0.15516628,0.03786124
1761617724730,0.25763008,-0.11355106,-0.57376093,-0.02126999,-0.05496367,-0.05477818,0.98638547,0.04063435,0.15486123,0.03755723
1761617724752,-0.03828125,0.09863333,0.24659094,-0.01026705,-0.02287897,-0.00188931,0.98642917,0.04052449,0.15461642,0.03753701
1761617724763,-0.01927138,-0.21166805,-0.09896302,0.00497231,-0.01355736,0.00897470,0.98643816,0.04055283,0.15453915,0.03758817
1761617724783,-0.01995593,0.03818375,0.18936731,-0.00251807,-0.00625752,0.00925895,0.98644565,0.04052702,0.15447501,0.03768307
1761617724795,-0.10173784,-0.19292619,-0.31936756,-0.00222216,-0.02901175,-0.00866525,0.98647369,0.04051447,0.15431109,0.03763411
1761617724806,0.13339918,0.11731507,-0.13521437,-0.02360553,-0.03632102,-0.01297671,0.98651332,0.04038346,0.15410951,0.03756209
1761617724817,0.06524239,-0.08779009,0.07211497,-0.03392707,-0.03790590,-0.00378601,0.98655688,0.04018498,0.15388776,0.03753994
1761617724829,0.06830184,0.04615784,0.06303338,-0.03963812,-0.02387461,-0.00522360,0.98658841,0.03995905,0.15375167,0.03751017
1761617724839,-0.04988710,-0.10968395,-0.22290640,-0.03957931,-0.04150067,0.02039501,0.98662629,0.03975323,0.15353587,0.03761622
1761617724850,-0.00740868,0.06374970,0.03259820,-0.03999933,-0.02973348,0.00076924,0.98665947,0.03953924,0.15337680,0.03762034
1761617724852,1.66961090,-3.91000744,-11.68418153,-0.18698108,-0.11961605,-0.00097408,0.98669079,0.03931486,0.15323326,0.03761917
1761617724862,-0.69592540,1.25665839,2.52965985,-0.02919925,-0.04182316,0.02456044,0.98672369,0.03917178,0.15302832,0.03773951
1761617724873,-0.03274683,0.16180334,0.13778385,-0.04705450,-0.03771053,0.02678219,0.98675876,0.03892475,0.15283034,0.03788012
1761617724884,-0.18993141,0.02990971,-0.30104645,-0.01626017,-0.03948721,-0.00539872,0.98679669,0.03883613,0.15261514,0.03785070
1761617724895,0.03756499,-0.06592958,-0.05467872,-0.01678751,-0.04369475,0.01388540,0.98683486,0.03874296,0.15237263,0.03792776
1761617724906,0.21555771,-0.09792600,0.19601960,-0.01758159,-0.01958032,0.00493135,0.98685529,0.03864099,0.15225907,0.03795636
1761617724917,-0.09634584,-0.00342272,-0.07691360,-0.01115903,-0.03439766,0.00716804,0.98688535,0.03857961,0.15206988,0.03799579
1761617724928,0.09446185,-0.15278904,-0.04319924,-0.00866156,-0.02122413,-0.00033672,0.98690508,0.03853241,0.15195421,0.03799395
1761617724939,-0.11237640,0.05869660,0.10434952,-0.05352579,-0.03567478,-0.02401671,0.98695137,0.03824069,0.15175978,0.03786306
1761617724950,-0.05221216,0.24838034,0.00185004,-0.04415283,-0.02029156,-0.00232408,0.98697913,0.03799123,0.15164513,0.03784993
1761617724962,0.04973408,0.05488553,0.05965705,0.00918831,-0.00656774,-0.00639780,0.98698449,0.03804590,0.15160605,0.03781186
1761617724974,0.12723230,0.21986145,0.27637808,-0.00959340,-0.01011193,0.00287036,0.98699464,0.03799218,0.15154943,0.03782794
1761617724984,-0.02487726,0.00181069,-0.01133647,-0.02853192,0.00834548,0.00697582,0.98699228,0.03784381,0.15159282,0.03786421
1761617724995,-0.09854182,-0.22453354,-0.01988381,-0.01439932,-0.00361788,0.01515354,0.98699522,0.03776317,0.15157256,0.03794907
1761617725008,-0.12700217,-0.29722282,-0.19956316,-0.00151523,-0.00286610,0.00322274,0.98699756,0.03775370,0.15155465,0.03796921
1761617725018,-0.09722720,-0.02822097,-0.17438616,-0.00692449,-0.01350062,0.00320618,0.98700918,0.03771735,0.15148377,0.03798605
1761617725029,-0.05307148,0.10731859,-0.07406494,-0.01200354,-0.01300227,-0.01096691,0.98702413,0.03765493,0.15141616,0.03792902
1761617725040,0.09852898,0.06649988,0.13687772,-0.00646031,-0.00918885,-0.00005874,0.98703350,0.03761843,0.15136424,0.03792869
1761617725052,-0.05885249,-0.07545038,-0.01406500,-0.00220719,-0.01308869,0.01229202,0.98704313,0.03760530,0.15128637,0.03800182
1761617725062,-0.04412332,-0.14353047,-0.14144656,-0.00235209,-0.00181734,0.01272316,0.98704249,0.03759307,0.15127692,0.03806799
1761617725074,0.05833104,-0.00821474,0.36323172,-0.02008228,-0.00841365,0.02879477,0.98704813,0.03747257,0.15122643,0.03824075
1761617725084,-0.09900659,0.01988646,-0.18195806,-0.05595656,-0.00059483,0.02825157,0.98705363,0.03719559,0.15122349,0.03838060
1761617725095,0.13111663,-0.10009148,0.12032855,-0.03386768,-0.00088026,0.01216307,0.98705891,0.03700424,0.15121852,0.03844932
1761617725107,0.04262873,0.03413330,-0.02769591,-0.03764500,-0.00173414,0.00326774,0.98706780,0.03678778,0.15120854,0.03846811
1761617725118,0.00460673,0.00288357,-0.08571318,-0.01751424,0.00469483,-0.00089054,0.98706762,0.03669232,0.15123413,0.03846326
1761617725129,0.03890050,0.05315327,0.18219726,-0.03834403,-0.01194723,0.01975366,0.98708188,0.03647185,0.15116543,0.03857684
1761617725140,0.11741110,0.03830240,0.08382730,-0.03444862,-0.00348712,-0.01511704,0.98709529,0.03627893,0.15114591,0.03849218
1761617725170,0.03152691,0.06466228,0.17941954,-0.00990806,-0.00827078,-0.00348556,0.98712159,0.03613130,0.15102267,0.03844025
1761617725197,-0.01805937,0.06577070,-0.02531339,0.00032498,-0.01131349,-0.01311619,0.98715188,0.03613572,0.15086881,0.03826187
1761617725208,-0.17873101,0.45464046,-0.21607669,0.00436728,-0.02741756,-0.01561873,0.98717713,0.03615952,0.15071938,0.03817675
1761617725218,0.17791713,-0.10237781,-0.05590806,0.03849034,-0.03283065,-0.01808043,0.98719861,0.03635198,0.15055523,0.03808635
1761617725229,-0.06272386,0.18061756,-0.04871921,0.07139180,-0.03978979,-0.01176863,0.98721914,0.03673035,0.15034434,0.03802397
1761617725240,-0.00738746,-0.13199713,0.17170475,0.04077793,-0.02266052,0.01326068,0.98722708,0.03695871,0.15021744,0.03809823
1761617725252,-0.02796974,-0.08708902,0.11516950,0.03804418,-0.00424190,0.01049952,0.98722018,0.03717937,0.15019284,0.03815913
1761617725263,-0.04472515,-0.11424050,0.08919726,0.01302845,-0.00183622,0.03643242,0.98721093,0.03725363,0.15018238,0.03836679
1761617725274,-0.12992087,-0.12085619,0.22469983,-0.00454888,0.01082538,0.05241500,0.98719227,0.03722952,0.15023975,0.03864459
1761617725285,-0.02419425,-0.05637278,0.08185909,-0.01586307,0.02486902,0.01714645,0.98717123,0.03714307,0.15037529,0.03873804
1761617725296,-0.05269532,-0.03196681,0.09820649,-0.01217053,0.01276124,0.00838642,0.98716106,0.03707491,0.15044675,0.03878500
1761617725307,-0.01809633,0.02933486,-0.02064056,0.01258397,0.01868527,0.00842737,0.98714115,0.03714349,0.15054858,0.03883093
1761617725319,0.00768602,0.08307283,-0.00206581,0.00118625,0.03905000,0.01936938,0.98710054,0.03715061,0.15078288,0.03894715
1761617725330,-0.15128387,0.09982933,0.02583995,0.03011937,0.03490850,0.03204228,0.98705604,0.03732380,0.15098361,0.03913139
1761617725340,-0.12144785,0.10280217,0.10439421,0.02666525,0.07702903,0.02315663,0.98698877,0.03745446,0.15136105,0.03924486
1761617725352,0.07859433,0.00374219,-0.01067748,0.01504679,0.04432235,0.02955557,0.98693746,0.03754474,0.15162698,0.03942219
1761617725363,-0.02003242,0.02852977,0.00328400,0.02788077,0.06315390,0.02535367,0.98687260,0.03769808,0.15197433,0.03956164
1761617725374,0.25543656,0.35100847,-0.02921943,0.01341193,0.05612859,0.01773458,0.98681630,0.03777453,0.15229426,0.03966273
1761617725385,-0.07466180,0.10567227,-0.11231544,0.06779564,0.07000040,0.00260787,0.98674324,0.03814063,0.15267227,0.03967681
1761617725396,0.04504387,0.03742457,0.00580518,0.06365573,0.06401165,0.01426240,0.98667130,0.03849392,0.15302753,0.03975597
1761617725407,-0.24252437,-0.04306327,0.08397199,0.03228562,0.06029623,-0.00285559,0.98661455,0.03866826,0.15335313,0.03974055
1761617725418,0.07841975,-0.17764116,-0.01323421,0.06570921,0.05929503,0.01303360,0.98654545,0.03903623,0.15368518,0.03981353
1761617725430,0.01232978,-0.15881427,-0.03972570,0.07706178,0.04621968,0.01586465,0.98648269,0.03947933,0.15395094,0.03990475
1761617725441,0.05882335,0.00168867,0.04707080,0.04933839,0.04979652,0.01184351,0.98642279,0.03976796,0.15424225,0.03997404
1761617725452,-0.07556420,0.07528510,0.00634598,0.07148866,0.06429245,0.00717334,0.98635521,0.04013256,0.15457015,0.04001062
1761617725463,0.16311406,-0.08970989,-0.00523604,0.06245107,0.05578881,0.01885580,0.98628822,0.04047916,0.15487977,0.04011527
1761617725474,0.14208945,0.12782250,0.21700130,0.05301265,0.04931323,0.01271673,0.98623178,0.04076543,0.15514607,0.04018394
1761617725486,0.06868535,-0.10755058,0.00114858,0.02875063,0.01409289,-0.00521500,0.98621197,0.04094368,0.15523344,0.04015161
1761617725496,0.02638783,-0.10331778,-0.11376925,0.03091976,0.03447838,0.00904454,0.98617619,0.04109983,0.15540756,0.04019729
1761617725508,-0.00045612,-0.24610573,-0.27359992,0.03374053,0.00544032,0.00871879,0.98616098,0.04129552,0.15543911,0.04024785
1761617725518,0.08441064,-0.09618271,-0.02692811,0.03664201,0.02532838,-0.00711796,0.98613293,0.04149156,0.15557462,0.04020977
1761617725530,0.05608482,0.03541074,0.09213685,0.00140117,-0.00149252,-0.00287599,0.98613459,0.04149947,0.15556619,0.04019352
1761617725542,0.08998162,-0.00511226,-0.14606882,0.01782110,0.00636458,0.01279473,0.98612082,0.04160729,0.15560469,0.04027093
1761617725553,-0.00678070,0.05268637,-0.01023502,0.05524664,-0.00316967,-0.01586410,0.98611420,0.04191391,0.15558710,0.04018289
1761617725564,-0.18726953,0.16362164,-0.29634437,0.06472734,0.00387361,0.00587468,0.98609487,0.04226020,0.15560782,0.04021432
1761617725575,-0.28176151,0.20765465,-0.12006198,0.01890044,-0.00755446,0.02612430,0.98609085,0.04237077,0.15556363,0.04036714
1761617725586,-0.06043337,0.16714689,0.07164679,0.00509864,0.01526639,-0.02093007,0.98608101,0.04239907,0.15564836,0.04025098
1761617725597,0.19704973,-0.31996955,-0.11392542,0.05320887,0.00509552,-0.00099260,0.98606572,0.04266511,0.15567384,0.04024602
1761617725607,0.41928439,-0.27465495,0.17610988,-0.01315802,0.00812632,-0.00617909,0.98606320,0.04259340,0.15571812,0.04021234
1761617725619,-0.10734025,-0.03328127,-0.02341969,-0.00539575,-0.01403121,-0.01026776,0.98607968,0.04256237,0.15563744,0.04015330
1761617725630,0.09734676,0.03872385,-0.02631172,-0.01650462,-0.01663697,-0.00630130,0.98609981,0.04246995,0.15554428,0.04011802
1761617725641,0.08366875,0.02624067,0.04429136,-0.01198545,-0.00387368,-0.00998753,0.98610854,0.04240163,0.15552220,0.04006109
1761617725652,-0.12567704,-0.01211726,0.00238250,-0.00563914,-0.01824090,-0.00983186,0.98612718,0.04237174,0.15542552,0.04000898
1761617725664,-0.02339298,-0.11327763,0.08583470,-0.00948992,-0.01396170,0.00502403,0.98614185,0.04231385,0.15534035,0.04003962
1761617725707,0.00668948,-0.01693585,0.06734280,-0.00077904,-0.00342037,0.00264649,0.98615174,0.04229726,0.15526750,0.04009599
1761617725734,-0.05081800,0.00645805,-0.17244969,0.00515484,-0.00965277,-0.00707735,0.98617362,0.04236840,0.15513429,0.03999833
1761617725744,-0.49952223,0.32722462,-1.54739216,0.02415098,0.03341016,0.01389997,0.98614205,0.04247949,0.15528798,0.04006227
1761617725764,0.04600307,-0.08941248,0.59746488,0.01793244,0.01659698,-0.01103670,0.98611146,0.04266599,0.15546059,0.03994749
1761617725777,-0.20571614,0.06964854,-0.06891551,0.01469955,0.03004982,0.00871909,0.98607622,0.04275639,0.15564539,0.04000111
1761617725797,0.13173337,-0.05398031,0.15468165,0.01690590,0.01764232,0.00326118,0.98603859,0.04293052,0.15582711,0.04003470
1761617725808,0.00408811,-0.15266908,-0.41309757,0.02906257,0.03082810,0.00599338,0.98600411,0.04308746,0.15599358,0.04006706
1761617725820,0.12511068,0.07656135,0.22061280,-0.03176996,0.01354631,-0.01160628,0.98600243,0.04290161,0.15607283,0.03999917
1761617725831,0.01175168,-0.08939455,-0.09704223,0.02043698,0.00339611,-0.00486223,0.98599529,0.04302014,0.15609252,0.03997096
1761617725842,0.12607747,0.12097417,0.07487147,-0.01392716,0.00551427,-0.00563998,0.98599509,0.04294424,0.15612258,0.03994023
1761617725853,-0.16239119,-0.07973953,-0.27001833,0.00463572,-0.01143665,-0.00748072,0.98600503,0.04296834,0.15606311,0.03990133
1761617725864,0.14754044,0.13498081,0.09680798,-0.02114977,-0.00102452,0.00844472,0.98600925,0.04284779,0.15605727,0.03994946
1761617725866,-12.28417057,-5.66601864,-33.77046173,0.07340718,-0.02207379,0.04342813,0.98600786,0.04291753,0.15603630,0.03999072
1761617725876,1.98038001,0.80409803,5.79030890,0.01501177,-0.01053354,0.00679381,0.98601155,0.04299259,0.15598363,0.04002469
1761617725886,0.00559152,0.04493837,0.14776269,-0.00699886,-0.01082128,-0.00052345,0.98602194,0.04295689,0.15592844,0.04002202
1761617725897,0.04211598,-0.14969671,-0.06488138,0.00845211,-0.01955117,0.00095991,0.98603683,0.04300380,0.15581993,0.04002735
1761617725909,0.15684204,0.01002551,0.11916227,-0.00653171,-0.02046689,-0.00081123,0.98605689,0.04296690,0.15570429,0.04002276
1761617725919,0.12206445,-0.09542843,0.10071946,-0.03138141,-0.01551921,0.01212929,0.98607483,0.04279744,0.15562049,0.04008826
1761617725931,-0.05547106,0.05327123,0.01436053,-0.05196816,-0.02417307,0.01376328,0.98610564,0.04250641,0.15548512,0.04016533
1761617725942,0.04127094,0.08961220,0.09097636,-0.03091446,-0.01832621,-0.00036451,0.98612998,0.04232866,0.15537975,0.04016324
1761617725954,-0.04743774,0.05207208,-0.10762084,-0.00379122,-0.01520516,0.01252494,0.98614206,0.04230629,0.15529003,0.04023714
1761617725964,-0.14488930,0.09368048,-0.19008244,0.01414115,-0.00861485,-0.02245899,0.98615079,0.04238053,0.15524481,0.04011923
1761617725975,-0.62770010,0.17302926,0.18244651,-0.00969014,-0.02128743,-0.00525013,0.98617228,0.04232820,0.15512985,0.04009088
1761617725987,-0.04239857,-0.11493988,-0.01916089,-0.00955814,-0.01527928,-0.00054944,0.98618844,0.04227372,0.15504276,0.04008774
1761617725998,0.11582228,-0.13560781,0.00360585,-0.01529790,0.00188644,-0.00395890,0.98619146,0.04218499,0.15505370,0.04006478
1761617726009,0.36054048,-0.28563291,-0.24495829,-0.03608642,-0.00447751,0.00194407,0.98620261,0.04199915,0.15503065,0.04007479
1761617726020,0.03624168,-0.09097326,0.09602938,-0.03500335,-0.00554094,0.00810293,0.98621397,0.04180313,0.15499962,0.04012017
1761617726031,0.11276356,0.03370904,0.05528149,-0.03665494,0.00239159,0.01650130,0.98621680,0.04159603,0.15501313,0.04021340
1761617726042,0.00407044,0.07670334,0.00504600,-0.01956238,0.00700136,0.00484362,0.98621415,0.04148648,0.15505234,0.04024053
1761617726053,-0.17447470,0.13718894,-0.01080429,-0.02890815,-0.02672239,0.01017359,0.98624113,0.04133038,0.15490804,0.04029546
1761617726064,-0.04082896,-0.03963225,-0.02759474,-0.01035081,-0.00668894,0.00698575,0.98624785,0.04127241,0.15487058,0.04033458
1761617726075,-0.14541564,-0.00861815,-0.05719156,-0.01007812,-0.01656358,0.01449581,0.98626108,0.04121749,0.15478031,0.04041359
1761617726086,0.01987844,-0.12750976,-0.03557195,-0.00235908,-0.00647730,0.00813826,0.98626546,0.04120427,0.15474403,0.04045916
1761617726098,0.09883423,0.02803471,0.09883423,-0.00800345,-0.00025034,0.00361680,0.98626672,0.04115946,0.15474263,0.04047941
1761617726109,0.05337005,0.02442628,0.14511927,-0.01884221,-0.00692798,0.00025738,0.98627761,0.04104923,0.15470210,0.04048092
1761617726120,0.05658445,-0.00336424,-0.00058035,-0.01363655,0.00894677,-0.00742867,0.98627479,0.04097695,0.15474952,0.04044155
1761617726131,-0.01146431,0.22446681,0.16984704,-0.03283193,0.00803483,0.00729451,0.98627368,0.04079474,0.15479411,0.04048203
1761617726142,-0.01943635,0.07909653,-0.02955119,-0.01247563,0.00808621,0.00787621,0.98626754,0.04072363,0.15484020,0.04052693
1761617726153,-0.01486940,0.11759301,0.01486940,0.00192622,0.01157656,0.01067159,0.98625458,0.04073432,0.15490445,0.04058615
1761617726165,-0.13616020,0.28818314,0.09245485,0.00869338,0.01446427,0.00220238,0.98623879,0.04078474,0.15498835,0.04059893
1761617726175,-0.26786213,0.31130231,-0.05077523,0.00554841,0.01219818,-0.00138494,0.98622792,0.04081359,0.15505178,0.04059173
1761617726187,0.07123961,-0.00994626,0.14614174,0.01040397,0.01685640,-0.01623218,0.98621428,0.04087237,0.15514702,0.04050002
1761617726228,0.18999534,-0.13859489,0.13390679,0.00875527,0.00143499,-0.00005614,0.98620230,0.04105098,0.15517629,0.04049887
1761617726254,-0.19637549,0.32962488,-0.27933197,0.10366421,0.02587307,-0.00060126,0.98609177,0.04240898,0.15551523,0.04049099
1761617726265,-0.61905857,0.91339931,-0.64244805,0.15852941,0.06366452,-0.03144652,0.98600332,0.04330467,0.15587493,0.04031332
1761617726276,0.28486264,-0.91859283,0.38923091,0.04116578,0.03159256,-0.04308769,0.98597654,0.04352285,0.15604237,0.04008496
1761617726289,0.44464162,-0.42103174,0.36637575,0.06099192,0.01477020,-0.00387745,0.98594331,0.04393760,0.15614281,0.04005859
1761617726309,0.08174174,-0.08515126,0.11958819,0.03286454,0.01060327,-0.00282111,0.98591281,0.04426788,0.15624937,0.04003024
1761617726320,-0.26767968,0.11304082,-0.27835758,0.01647599,0.00639276,0.01609443,0.98589981,0.04435686,0.15628389,0.04011715
1761617726332,0.11789400,-0.17245723,0.09195605,0.02324703,0.01245621,-0.00106712,0.98588223,0.04449401,0.15635739,0.04011085
1761617726344,0.02710927,-0.13884582,-0.06243692,0.03493217,0.00518775,0.00471730,0.98586679,0.04470186,0.15638825,0.04013892
1761617726356,-0.00336627,0.05103196,0.04449334,0.01162555,0.01505431,-0.00626031,0.98585122,0.04476987,0.15647632,0.04010230
1761617726366,-0.11415261,-0.08435658,-0.21887112,0.04014928,0.01865505,-0.00035088,0.98582543,0.04498667,0.15657706,0.04010040
1761617726377,0.07725878,0.22145472,0.12040329,-0.00037457,0.01404814,0.00551412,0.98581214,0.04498463,0.15665362,0.04013045
1761617726387,0.01588997,-0.26683217,-0.17148675,0.01735071,0.01248650,0.01924874,0.98579451,0.04507052,0.15671543,0.04022573
1761617726389,-6.21771134,1.83219971,-13.42062343,-0.04747799,0.06808193,0.00382613,0.98578481,0.04501829,0.15679032,0.04022994
1761617726400,1.33777055,-0.62324928,2.76012220,-0.01361637,0.00890634,0.00098965,0.98578051,0.04494817,0.15683619,0.04023504
1761617726410,0.04574310,-0.14827574,-0.01059033,-0.00450985,-0.00187015,-0.00890277,0.98578493,0.04492517,0.15682665,0.04018964
1761617726421,0.08824450,0.01990713,0.05197393,-0.02547454,-0.00410546,0.00236429,0.98579488,0.04477742,0.15680284,0.04020335
1761617726433,0.03517282,0.10460118,-0.05288575,-0.03617101,0.00093152,-0.00714318,0.98580504,0.04457124,0.15680815,0.04016263
1761617726446,0.01400861,0.07386694,0.12226594,-0.01809534,-0.00402617,-0.01092557,0.98581740,0.04445362,0.15678198,0.04009162
1761617726494,0.04455902,0.01986813,0.14097303,-0.00110673,-0.00040020,-0.00201365,0.98582210,0.04442701,0.15677235,0.04004319
1761617726512,-0.32477272,0.21617603,-1.10668420,-0.02149488,-0.05585935,-0.05344836,0.98593004,0.04423355,0.15626962,0.03956215
1761617726521,0.39787797,-0.36118690,-0.51895851,-0.00912348,-0.06062123,-0.03619889,0.98598446,0.04419021,0.15598167,0.03939021
1761617726568,0.04772092,0.00774292,0.47377585,0.00558766,-0.01054807,-0.01196508,0.98602819,0.04431929,0.15573801,0.03911381
1761617726578,-0.72601922,-0.65807165,-3.38258509,-0.02542277,-0.06689901,-0.05424446,0.98610084,0.04418582,0.15538679,0.03882903
1761617726599,0.18571568,0.18070793,1.30207641,-0.00976735,-0.00472312,-0.01683961,0.98611991,0.04408473,0.15533790,0.03865474
1761617726621,0.01926827,0.12340334,0.13391836,-0.01173988,-0.00108376,-0.01325691,0.98613350,0.04395324,0.15532576,0.03850626
1761617726634,-0.08002147,0.04930735,-0.04529935,0.01433227,0.00046185,-0.02437111,0.98613498,0.04404210,0.15532863,0.03835516
1761617726646,0.04687003,0.10936794,0.09960561,0.01029503,0.00619322,-0.01461255,0.98612981,0.04410336,0.15536548,0.03826822
1761617726656,-0.11234268,-0.05693440,-0.04957782,0.01416438,-0.00209413,-0.02276727,0.98613296,0.04418055,0.15535406,0.03814414
1761617726666,0.11890700,-0.42564265,-0.20183838,0.00521790,0.00649458,-0.01477140,0.98612956,0.04420638,0.15538621,0.03807102
1761617726678,0.00233489,0.03687175,0.23304389,0.00173606,-0.00468403,-0.00661450,0.98613478,0.04421628,0.15535951,0.03803332
1761617726689,0.01703452,-0.06621858,-0.19695383,-0.00254316,0.00218271,-0.00242814,0.98613399,0.04420153,0.15537217,0.03801923
1761617726699,-0.18974830,0.25469681,-0.03354303,-0.00548281,-0.01088356,-0.00786552,0.98614531,0.04417411,0.15531775,0.03797990
1761617726710,0.10252980,0.01694522,0.11479413,-0.01021815,-0.01229561,0.00465125,0.98615727,0.04411893,0.15525136,0.03800502
1761617726722,0.04267116,-0.03541416,0.02264184,0.00127981,-0.01349860,-0.01164224,0.98617198,0.04412642,0.15517239,0.03793691
1761617726733,0.01444730,0.12019349,-0.05118644,-0.00460517,-0.02008769,-0.00209565,0.98619197,0.04409971,0.15505588,0.03792476
1761617726745,-0.12754073,0.10868161,-0.09988287,0.00699911,-0.02287786,-0.01333103,0.98621322,0.04413891,0.15492777,0.03785011
1761617726756,0.00760263,-0.10453621,-0.09123160,0.03135752,-0.01571266,-0.01387669,0.98622214,0.04431451,0.15483978,0.03777240
1761617726766,-0.02676127,0.11856729,-0.12596719,0.02105612,-0.02163342,-0.01193932,0.98623739,0.04442505,0.15472620,0.03770972
1761617726779,0.12129672,-0.14177680,0.16702231,0.00902870,-0.00970569,-0.01454154,0.98624800,0.04448239,0.15466457,0.03761738
1761617726800,0.08394917,-0.02852236,0.25553849,0.00379069,-0.00369830,-0.00477999,0.98625430,0.04452276,0.15462518,0.03756647
1761617726823,-0.09438837,-0.06272487,-0.09502391,0.00231295,-0.01701116,-0.00701972,0.98628625,0.04454889,0.15443296,0.03748715
1761617726833,-0.77115549,-0.39632091,-1.60298780,-0.02140821,-0.05597645,0.00260242,0.98633533,0.04443971,0.15414748,0.03750042
1761617726835,-7.14310403,-8.55754482,-21.63909869,-0.10969360,-0.06549419,-0.00708383,0.98635000,0.04433550,0.15408526,0.03749369
1761617726845,1.86600963,1.69714759,5.23698549,-0.01546590,-0.03678366,0.00938540,0.98638162,0.04425508,0.15389398,0.03754249
1761617726856,0.00174666,0.06434557,0.09856132,-0.03339398,-0.01289087,0.01379512,0.98639726,0.04407976,0.15382631,0.03761492
1761617726866,0.07699793,-0.20833963,-0.25535027,-0.01586346,-0.01161220,0.01589578,0.98640701,0.04399886,0.15376708,0.03769599
1761617726878,-0.09326918,0.04161524,-0.04149773,0.01168923,-0.01159250,-0.00760272,0.98641631,0.04406782,0.15369869,0.03765113
1761617726889,0.05478079,0.19552247,0.01455757,-0.01977352,-0.00805084,0.02385464,0.98642323,0.04395610,0.15365320,0.03778591
1761617726900,-0.25782571,0.22293253,-0.04431007,0.00811429,-0.00655520,-0.02094882,0.98643075,0.04399789,0.15361944,0.03767802
1761617726911,-0.01125633,-0.04104868,0.17308908,0.01274556,-0.01120331,-0.01398202,0.98644032,0.04406927,0.15355670,0.03759972
1761617726922,0.02103474,-0.06899001,0.04565291,-0.03059671,-0.00831768,-0.01008572,0.98645690,0.04390252,0.15351137,0.03754476
1761617726934,0.00746548,-0.00267831,0.17946540,-0.03025721,-0.01054086,-0.01155148,0.98647778,0.04371795,0.15344707,0.03747429
1761617726944,-0.11025342,0.18454596,-0.15265312,-0.02454317,-0.00823431,0.00043700,0.98649012,0.04358909,0.15340384,0.03747659
1761617726955,-0.04663238,0.10967688,0.13080002,-0.00353044,-0.00613849,-0.01149310,0.98649855,0.04356985,0.15337039,0.03741395
1761617726967,0.04409255,0.13424761,0.10976888,-0.01080036,-0.00584855,0.00643350,0.98650500,0.04350883,0.15333734,0.03745030
1761617726977,-0.02651845,0.02566827,-0.10809976,0.00949390,-0.00370897,0.01600696,0.98650257,0.04356010,0.15331731,0.03753674
1761617726989,0.10762723,0.21070087,0.15090127,0.01292167,-0.01017376,0.01405965,0.98650543,0.04363827,0.15325576,0.03762180
1761617727000,-0.28177188,0.19149979,-0.26472188,0.04212174,-0.01619073,-0.00257815,0.98650935,0.04385941,0.15317076,0.03760826
1761617727011,0.09350062,-0.02058330,0.12049452,0.04559759,-0.01243245,-0.01210485,0.98651137,0.04411704,0.15310052,0.03753987
1761617727022,-0.07678817,-0.09758349,-0.01200481,0.04031554,-0.02448588,0.00943589,0.98652026,0.04433676,0.15296707,0.03759129
1761617727034,0.07631339,-0.14092306,0.10936632,0.01144432,-0.00561902,0.01665296,0.98651859,0.04440543,0.15293336,0.03769121
1761617727046,0.02604011,-0.09144205,0.05387610,0.02906346,-0.00410037,0.02901328,0.98650796,0.04457835,0.15290896,0.03786384
1761617727058,-0.04102551,-0.07606757,-0.05949931,0.02207706,0.00174360,0.03506940,0.98649211,0.04471192,0.15291951,0.03807601
1761617727068,-0.54357428,0.01907375,-0.12826407,0.02899839,0.01270306,0.01520205,0.98647294,0.04485546,0.15298239,0.03815126
1761617727110,0.28482128,-0.04404975,0.19112959,0.00843672,0.00458930,0.00321934,0.98644754,0.04503095,0.15307785,0.03821822
1761617727137,-0.52578648,-0.02287352,-0.36871365,0.01812179,0.03676787,0.02563146,0.98634383,0.04528012,0.15358340,0.03857066
1761617727146,-2.84256528,-1.22190732,-2.40977841,-0.06137759,0.13491757,-0.00995719,0.98626260,0.04500085,0.15419728,0.03852535
1761617727167,1.54956944,0.43652185,1.16408965,-0.01722275,0.01994786,0.01058233,0.98623358,0.04481915,0.15440773,0.03863699
1761617727180,0.11476702,0.14288782,0.01204977,-0.00671468,0.00946987,0.00805219,0.98622410,0.04477651,0.15446786,0.03868813
1761617727201,0.26101444,0.04979175,0.19321233,-0.00331567,0.00245574,0.00005095,0.98622168,0.04474253,0.15449303,0.03868865
1761617727211,-0.27191588,-0.10181319,-0.54047810,0.00959224,-0.01228984,-0.00291710,0.98623018,0.04479337,0.15442790,0.03867319
1761617727223,0.13930154,-0.06288533,0.12474372,0.01564659,-0.00137638,-0.00397260,0.98622819,0.04488490,0.15441984,0.03864995
1761617727234,0.07659794,-0.01059696,0.11969753,-0.00439084,-0.00220992,-0.00136241,0.98623166,0.04485943,0.15440703,0.03864205
1761617727246,0.01219043,-0.16465272,-0.02936189,-0.00693026,-0.00753003,0.00532261,0.98623886,0.04482062,0.15436486,0.03867185
1761617727256,0.01312681,0.00202201,-0.00832976,-0.02212550,0.00516595,-0.00373171,0.98624069,0.04470225,0.15439250,0.03865189
1761617727268,-0.05877429,0.12947747,0.03717114,-0.02727326,-0.00212346,-0.01166361,0.98625222,0.04454679,0.15438039,0.03858541
1761617727270,-21.22211543,-7.50424129,-26.59368822,-0.03806735,-0.01122130,-0.11897969,0.98625994,0.04451063,0.15436973,0.03847237
1761617727280,3.73457899,1.47820678,4.72931546,-0.00532810,-0.00839044,-0.02212809,0.98627238,0.04448319,0.15432652,0.03835841
1761617727290,0.08255109,0.09397051,0.08123499,-0.00494320,-0.00725633,-0.01168055,0.98628153,0.04445823,0.15428988,0.03829943
1761617727301,0.14836271,0.03046994,0.08733201,0.00946211,-0.01873405,-0.01804750,0.98629978,0.04451216,0.15418309,0.03819656
1761617727313,0.15915130,0.01393206,-0.02188647,0.00780200,-0.01157797,-0.00262886,0.98630875,0.04455702,0.15411652,0.03818144
1761617727323,-0.12839883,-0.08871133,-0.01839203,0.00528299,-0.01951415,-0.00868976,0.98632416,0.04458291,0.15402090,0.03813886
1761617727334,0.06089251,0.03152274,0.24014056,-0.00472516,-0.01518482,-0.01236041,0.98634146,0.04455621,0.15393511,0.03806903
1761617727345,0.06192024,-0.05021887,0.02000150,-0.01610615,-0.00785260,0.01166031,0.98635002,0.04446441,0.15389035,0.03813549
1761617727356,-0.06691591,0.14319143,0.08004089,-0.01243289,-0.02503974,-0.00047332,0.98637423,0.04439727,0.15375513,0.03813293
1761617727368,0.10978252,0.04777701,0.00041493,0.02329498,-0.01258121,0.00755122,0.98637772,0.04452889,0.15368405,0.03817560
1761617727379,-0.12863859,0.10114106,0.06020944,0.01861810,-0.01738298,0.00030717,0.98638802,0.04463222,0.15358757,0.03817730
1761617727390,0.03483106,0.04886023,0.05418164,0.01586560,-0.00463230,0.01619978,0.98638455,0.04472027,0.15356186,0.03826721
1761617727403,0.09479171,-0.04975790,0.07790887,0.02316964,0.01341819,0.01170382,0.98636135,0.04486971,0.15364841,0.03834270
1761617727413,-0.17581389,0.14301428,0.03888393,0.01197648,0.00673543,0.00563628,0.98635201,0.04493139,0.15368310,0.03837173
1761617727424,-0.00512993,-0.08410874,0.03018910,0.03013695,0.01080338,-0.00092466,0.98633508,0.04510016,0.15374360,0.03836655
1761617727436,0.11588501,-0.00721606,0.04635400,0.01988167,0.01748735,0.00881188,0.98631160,0.04521746,0.15384677,0.03841854
1761617727447,-0.02728350,-0.00078092,0.03656624,0.02573332,0.03331261,0.00280568,0.98627688,0.04535514,0.15402500,0.03843355
1761617727458,-0.05808793,-0.06963499,-0.06358567,0.03204690,0.02900008,-0.00188468,0.98624394,0.04553300,0.15418595,0.03842309
1761617727468,-0.15878055,-0.07800912,0.22618487,0.02530221,0.03169091,-0.00586296,0.98621268,0.04566710,0.15435391,0.03839202
1761617727479,-0.03328129,-0.17579164,-0.07178762,0.02622201,0.02127962,-0.01780353,0.98619166,0.04581001,0.15446988,0.03829499
1761617727490,0.05082930,0.05641417,0.11760971,0.00557784,0.03068397,-0.00534551,0.98616614,0.04583929,0.15463097,0.03826692
1761617727502,0.18543667,-0.04292954,-0.10217939,0.00827217,0.02621760,-0.00134013,0.98613947,0.04588892,0.15478828,0.03825888
1761617727513,0.13735424,-0.08375568,0.07754686,-0.01214040,0.02036902,0.00769997,0.98612305,0.04582094,0.15490234,0.03830200
