UnixTime(ms),Ax,Ay,Az,Gx,Gy,Gz,QuatW,QuatX,QuatY,QuatZ
1761623574533,0.00000000,0.00000000,0.00000000,0.00000000,0.00000000,0.00000000,0.99547398,0.08475468,0.02125548,0.03736859
1761623574534,-28.26621501,2.17308601,43.23176392,-0.01569482,-0.02702464,0.18145937,0.99546955,0.08474055,0.02123116,0.03753190
1761623574545,3.82875490,-0.35167794,-5.85087518,-0.01229600,-0.00252785,0.03358071,0.99546863,0.08467354,0.02121738,0.03771492
1761623574557,-0.07478672,0.01848968,-0.12320147,-0.01929961,-0.00412746,-0.00150927,0.99547890,0.08456256,0.02119365,0.03770624
1761623574568,-0.00729894,0.08717566,0.03304666,0.00562936,-0.00668819,0.00761504,0.99547540,0.08459409,0.02115620,0.03774888
1761623574579,0.07606436,0.19540759,0.02494665,0.02396691,-0.00031251,-0.00393730,0.99546467,0.08473070,0.02115442,0.03772644
1761623574591,0.08963836,0.06129022,0.02347062,0.07649219,0.00688860,0.00524989,0.99542584,0.08516288,0.02119334,0.03775610
1761623574602,-0.08262215,0.06963950,-0.00933584,0.06509625,0.01268525,0.00874389,0.99539090,0.08553068,0.02126501,0.03780550
1761623574613,-0.09352963,-0.10018456,0.13045580,0.05052753,0.02247796,0.03099336,0.99535724,0.08581363,0.02139088,0.03797907
1761623574624,-0.06747337,-0.12440403,0.07887732,0.03345207,0.02428431,0.02294200,0.99533323,0.08600096,0.02152688,0.03810754
1761623574636,0.02028246,-0.19128138,0.01239962,0.02562788,0.02475370,0.03657016,0.99530954,0.08614704,0.02166797,0.03831599
1761623574647,0.17868689,-0.01784993,0.00068357,-0.01360666,0.02488959,0.02579962,0.99530751,0.08607084,0.02180735,0.03846047
1761623574658,0.06010832,-0.00344494,-0.03421185,-0.00650749,0.01069419,0.01089438,0.99530699,0.08603440,0.02186724,0.03852148
1761623574669,0.12532735,-0.01129261,-0.06539253,0.01964100,0.01437149,0.02096212,0.99529101,0.08614537,0.02194844,0.03863992
1761623574681,0.00771813,0.09857974,0.02785590,0.01130848,0.01399928,0.00793677,0.99528223,0.08620757,0.02202544,0.03868357
1761623574692,0.02066035,0.10603281,0.01946190,0.00442481,0.01275567,-0.01962427,0.99528278,0.08623301,0.02209878,0.03857073
1761623574703,0.11266527,0.01779568,-0.03105180,0.01393609,0.00856723,0.01051860,0.99527257,0.08631175,0.02214719,0.03863016
1761623574714,0.08993398,-0.03735826,0.00531870,0.01652487,0.00696858,0.00120764,0.99526366,0.08640181,0.02218516,0.03863674
1761623574725,0.02667993,-0.02073771,-0.04994244,0.00231537,0.00326863,-0.00631926,0.99526350,0.08641489,0.02220363,0.03860104
1761623574737,0.03098872,-0.08940032,-0.05212513,0.00177534,0.00727010,0.00105196,0.99526149,0.08642483,0.02224435,0.03860693
1761623574748,0.20453527,0.10454716,0.14867125,-0.00605789,-0.00142049,-0.00344244,0.99526533,0.08639121,0.02223646,0.03858782
1761623574759,0.16744414,0.06964318,0.05222530,-0.00310837,0.00890367,-0.01039308,0.99526798,0.08637381,0.02228632,0.03852962
1761623574770,-0.04656457,0.04274427,-0.09946000,0.01737512,0.01352184,-0.00835647,0.99525957,0.08647198,0.02236272,0.03848241
1761623574782,-0.26105921,-0.03317390,-0.23870271,0.04500953,0.02743735,-0.01053445,0.99523501,0.08673978,0.02252597,0.03841973
1761623574792,-0.22187646,0.06520844,0.08888153,0.04306088,0.03345335,-0.00291993,0.99521254,0.08695939,0.02269658,0.03840483
1761623574804,0.00611658,-0.03985385,-0.10425670,0.03725061,0.03593083,-0.00236599,0.99519019,0.08716800,0.02289780,0.03839158
1761623574815,-0.02939746,-0.08700171,0.06162485,0.02409701,0.04257727,0.00523482,0.99517155,0.08730414,0.02313836,0.03842116
1761623574826,-0.09079100,-0.31925642,0.08962403,0.02789340,0.05886399,-0.00237926,0.99515044,0.08746174,0.02347094,0.03840772
1761623574837,-0.10118142,0.09940229,0.02884110,0.01076307,0.07911104,-0.00918301,0.99513683,0.08752094,0.02390605,0.03835721
1761623574848,-0.22634222,0.03766479,-0.10465965,0.03941153,0.09498875,-0.00886482,0.99510721,0.08773573,0.02442374,0.03830890
1761623574859,-0.06967831,0.23179050,-0.15491492,0.04650591,0.11291156,-0.00004567,0.99506815,0.08799849,0.02506169,0.03830864
1761623574871,-0.06848467,0.08774408,-0.01115165,0.04974257,0.11487611,-0.01218933,0.99502969,0.08827705,0.02570500,0.03824038
1761623574882,-0.02825920,-0.12206149,0.14625243,0.05061054,0.13171293,-0.01532592,0.99498884,0.08855794,0.02643600,0.03815532
1761623574893,-0.02307331,-0.07910233,0.04511923,0.02910240,0.13656412,-0.00653260,0.99495511,0.08872091,0.02720076,0.03811874
1761623574904,0.05899081,-0.06508229,0.05513145,0.01822290,0.13595660,-0.01390952,0.99492764,0.08882387,0.02796892,0.03804015
1761623574915,-0.10788594,0.04910532,-0.15196204,0.01062329,0.13591218,-0.00684492,0.99490233,0.08888283,0.02872323,0.03800216
1761623574927,0.04735158,0.04071091,-0.09213703,0.01587895,0.14712289,-0.00523441,0.99487054,0.08897413,0.02956919,0.03797206
1761623574938,-0.03559573,-0.01812582,-0.00608254,0.03427234,0.14441652,-0.01104935,0.99483206,0.08916263,0.03036348,0.03791129
1761623574949,-0.31674204,-0.01511667,0.14482451,0.01407899,0.13566034,-0.02584138,0.99480747,0.08924007,0.03110961,0.03776916
1761623574960,0.00002970,0.03683836,-0.07873505,0.03043026,0.11551692,-0.03516391,0.99477893,0.08941200,0.03176228,0.03757049
1761623574971,0.03497233,0.08856586,0.02650859,0.02596466,0.09790211,-0.03896100,0.99475661,0.08955610,0.03230564,0.03735425
1761623574982,0.50187011,0.10961453,-0.13109405,0.03870212,0.09824801,-0.02832537,0.99472500,0.08977283,0.03285583,0.03719563
1761623574994,0.06571136,0.03428133,-0.08188862,0.02229302,0.08200805,-0.02282028,0.99470302,0.08989879,0.03331917,0.03706670
1761623575005,0.08912143,-0.09882604,-0.05929513,0.03043294,0.09032263,-0.01001984,0.99467317,0.09006617,0.03381595,0.03701159
1761623575016,0.06712348,-0.00238608,-0.00264364,0.00522607,0.07658067,-0.00732750,0.99465737,0.09009544,0.03424480,0.03697055
1761623575027,-0.02352065,-0.04926863,-0.10453621,0.01377931,0.07813239,-0.01276134,0.99463787,0.09017260,0.03468234,0.03689909
1761623575038,0.01473010,-0.01009725,-0.10073489,0.00513081,0.07336663,-0.01244080,0.99462344,0.09020133,0.03509319,0.03682942
1761623575049,-0.07754057,0.06133553,-0.13019317,0.01050103,0.06925499,-0.02907723,0.99461048,0.09025961,0.03547756,0.03666804
1761623575061,0.04334914,-0.02541783,-0.12945880,0.01404996,0.06781903,-0.03329466,0.99459657,0.09033829,0.03585734,0.03648159
1761623575072,-0.04695217,-0.05371726,-0.11110478,0.01580923,0.05504508,-0.03479706,0.99458438,0.09042761,0.03616835,0.03628499
1761623575083,-0.17880695,-0.34710930,0.07788494,0.00325958,0.06236200,-0.04390922,0.99457890,0.09044587,0.03651758,0.03603910
1761623575094,-0.10433119,-0.28697557,0.04226894,-0.01276580,0.06741481,-0.02973740,0.99457750,0.09037502,0.03689173,0.03587406
1761623575105,-0.08731952,-0.08148411,-0.16835010,-0.01275738,0.05804792,-0.03138323,0.99457820,0.09030421,0.03721389,0.03569988
1761623575116,0.10086493,0.26135386,-0.23027198,-0.03493876,0.07193291,-0.04206903,0.99458912,0.09011030,0.03761312,0.03546640
1761623575127,-0.15988422,-0.09605752,-0.23317457,-0.04414216,0.06287962,-0.03060436,0.99460407,0.08986532,0.03796210,0.03529654
1761623575139,-0.04094335,-0.05241820,0.00836461,-0.04927167,0.06294437,-0.03593683,0.99462257,0.08958939,0.03831459,0.03509530
1761623575150,0.16467220,-0.27679519,0.44920141,-0.05918806,0.06822418,-0.01061496,0.99463952,0.08926090,0.03869324,0.03503638
1761623575161,-0.07838503,-0.00804275,0.03567587,-0.05200665,0.06063622,-0.00534005,0.99465340,0.08896966,0.03903280,0.03500648
1761623575172,-0.01995691,-0.03453853,0.00285099,-0.03669881,0.07832324,0.00147653,0.99465416,0.08876415,0.03947141,0.03501475
1761623575183,-0.24114602,0.13562979,-0.43049911,-0.04239458,0.07213251,0.01276732,0.99465669,0.08852674,0.03987535,0.03508624
1761623575195,-0.03598256,-0.03293201,-0.02219762,-0.05815716,0.07998079,0.02197178,0.99466327,0.08819815,0.04032724,0.03521038
1761623575206,-0.02590694,0.10631183,-0.00746867,-0.04259093,0.08370361,0.02450965,0.99466038,0.08795751,0.04080017,0.03534886
1761623575217,-0.16247119,-0.12839216,-0.02409842,-0.02027354,0.08822593,0.02249470,0.99464594,0.08784702,0.04128100,0.03547146
1761623575228,-0.00656730,-0.14680978,0.12275812,-0.04691971,0.10496822,0.01294630,0.99464196,0.08758427,0.04186882,0.03554396
1761623575239,-0.02330925,0.02208229,-0.00829311,-0.04420555,0.09802810,0.00122896,0.99464024,0.08733893,0.04241288,0.03555078
1761623575250,0.07869539,0.25418549,0.01107005,-0.04967455,0.09149822,-0.00317479,0.99464328,0.08706075,0.04292527,0.03553300
1761623575262,0.11071335,0.07858034,-0.03041053,-0.04200612,0.09599434,-0.00285683,0.99464107,0.08682552,0.04346284,0.03551700
1761623575273,0.08695420,-0.07083352,0.02258458,-0.03374683,0.10149923,0.00609549,0.99463159,0.08664160,0.04401601,0.03555022
1761623575284,0.11430404,-0.17778906,0.00793118,-0.03822242,0.08999955,0.00934618,0.99462586,0.08642564,0.04452450,0.03560303
1761623575295,0.08340017,-0.21353260,-0.01460712,-0.04621729,0.07795077,0.00911675,0.99462684,0.08616914,0.04495713,0.03565363
1761623575306,0.12960007,-0.04251813,0.02250825,-0.05197048,0.06919593,-0.01600612,0.99463763,0.08587810,0.04534463,0.03556399
1761623575317,0.10410011,0.16066764,0.14080143,-0.06194029,0.05448466,-0.02614071,0.99465860,0.08553433,0.04564702,0.03541891
1761623575328,0.23110764,0.17504517,0.01060773,-0.05405674,0.03122984,-0.00869794,0.99467828,0.08523162,0.04582190,0.03537020
1761623575340,0.20146978,0.09010308,0.00285099,-0.03231582,-0.00162990,-0.01403724,0.99469698,0.08505065,0.04581278,0.03529160
1761623575351,0.29056314,0.17355386,0.31075763,-0.02430209,-0.03201089,-0.01113581,0.99471906,0.08491456,0.04563352,0.03522923
1761623575362,0.21150882,0.12495274,0.13727686,-0.03367561,-0.03029786,-0.01512415,0.99474566,0.08472766,0.04546536,0.03514530
1761623575373,0.07832938,0.00739742,0.04736235,-0.02887486,-0.03560101,-0.01778232,0.99477203,0.08456596,0.04526600,0.03504571
1761623575384,-0.04130141,-0.14397641,-0.32643749,-0.02451157,-0.03172735,0.00539547,0.99479052,0.08442992,0.04508991,0.03507566
1761623575395,-0.00774023,0.02013670,-0.03289600,-0.05009602,-0.03648963,0.00380711,0.99482250,0.08415188,0.04488739,0.03509679
1761623575407,0.03807928,0.04622790,-0.04343266,-0.02950368,-0.02989237,-0.00444691,0.99484507,0.08398519,0.04471850,0.03507166
1761623575418,0.01937186,-0.12743416,-0.11576437,0.00767495,-0.02752814,-0.01531581,0.99485144,0.08402855,0.04456297,0.03498513
1761623575429,0.04624876,0.10032685,-0.03724560,-0.00777869,-0.03227943,-0.00736758,0.99486453,0.08398538,0.04438382,0.03494424
1761623575440,0.00290259,0.00837518,-0.05418164,-0.00015569,-0.03328126,-0.03396255,0.99487943,0.08398452,0.04419911,0.03475575
1761623575451,-0.06627576,0.30014574,0.00870776,-0.00093874,-0.04720264,-0.03278271,0.99489781,0.08397931,0.04393713,0.03457380
1761623575462,-0.01068264,-0.05712142,-0.06175427,0.00639057,-0.03566813,-0.02043572,0.99490756,0.08401509,0.04373739,0.03445936
1761623575474,-0.09835907,-0.01321551,0.01520527,-0.02012404,-0.01994267,-0.02296687,0.99492642,0.08390240,0.04362571,0.03433075
1761623575485,-0.21554955,-0.06669068,-0.14944009,-0.02071680,-0.02702287,-0.00824873,0.99494425,0.08378742,0.04347573,0.03428497
1761623575496,-0.08216495,0.00830334,-0.00964884,-0.01675564,-0.01259404,-0.00668349,0.99495652,0.08369359,0.04340521,0.03424754
1761623575507,0.00807780,-0.00864206,-0.00950329,0.00320108,-0.00632236,-0.01684763,0.99495980,0.08371151,0.04336980,0.03415319
1761623575518,0.05051793,0.03502411,-0.00300838,0.00548726,-0.01335979,-0.01023999,0.99496239,0.08374169,0.04329632,0.03409687
1761623575533,0.00976122,0.05608593,0.04417354,0.00949132,-0.00478644,-0.00135669,0.99495844,0.08381051,0.04326162,0.03408704
1761623575540,-0.32475335,-0.24958102,-0.61347570,0.02633363,0.00125710,0.00490081,0.99494953,0.08390662,0.04326621,0.03410493
1761623575551,0.14775340,-0.01175056,0.17361082,0.01295748,0.01712110,0.00819303,0.99493766,0.08397919,0.04336209,0.03415081
1761623575562,-0.06845486,-0.11817356,0.02840390,0.01240831,0.02464804,0.01323119,0.99492335,0.08404805,0.04349888,0.03422424
1761623575573,-0.13884323,-0.07416588,0.07352602,0.01210321,0.02879629,-0.01495499,0.99491335,0.08411644,0.04366158,0.03413974
1761623575585,-0.08795955,0.03498691,0.15058353,0.00067777,0.02721802,-0.03891358,0.99491378,0.08412020,0.04381264,0.03392377
1761623575596,0.12617974,0.12729207,0.10765260,-0.00923604,0.01187770,-0.00025411,0.99491527,0.08406848,0.04387916,0.03392235
1761623575607,0.06800156,0.21767020,0.06933525,0.00102167,0.01376762,0.00197251,0.99491096,0.08407425,0.04395695,0.03393350
1761623575618,0.06638279,0.11973470,0.05687018,0.00851721,0.01623120,0.00642470,0.99490177,0.08412152,0.04404703,0.03396915
1761623575629,0.13668259,0.03059688,-0.04648908,0.02405793,0.01540236,0.02091706,0.99488254,0.08425624,0.04413328,0.03408629
1761623575641,-0.01676491,0.04294706,0.02849097,0.01545977,0.00515711,0.02382714,0.99486922,0.08434359,0.04416242,0.03422091
1761623575652,0.09127493,0.01919153,0.05640928,0.01559245,0.01960202,0.01605820,0.99485411,0.08442935,0.04427023,0.03430923
1761623575663,-0.03780582,-0.04885988,0.02323987,0.04183969,0.00098354,0.01112705,0.99483181,0.08466365,0.04427574,0.03437154
1761623575674,0.08291622,0.06888402,0.03801317,0.05642166,-0.00590416,0.01465336,0.99480350,0.08497961,0.04424267,0.03445360
1761623575685,0.05797008,0.02787137,-0.08077798,0.07030724,-0.01114840,0.00779599,0.99477105,0.08537333,0.04418024,0.03449726
1761623575696,0.07267052,0.08651883,0.06878097,0.07636177,-0.01222936,0.00682944,0.99473628,0.08579714,0.04411237,0.03453516
1761623575708,0.08311956,0.09630109,0.11619700,0.06031947,-0.01608176,0.01150863,0.99470884,0.08613493,0.04402231,0.03459961
1761623575723,0.03685042,-0.05877286,0.04689976,0.05500218,-0.01909946,0.00300331,0.99467696,0.08656945,0.04387143,0.03462334
1761623575729,0.99545432,1.54414442,1.26686495,0.14089645,-0.05270145,0.04531175,0.99464636,0.08694282,0.04373177,0.03474341
1761623575740,-0.23654014,-0.49303618,-0.46728501,0.08504074,-0.02999027,0.01872467,0.99460797,0.08742330,0.04356232,0.03484921
1761623575751,0.19742512,0.29202582,-0.20938653,0.08682050,-0.02007582,0.00953409,0.99456710,0.08792252,0.04344689,0.03490403
1761623575763,0.05302804,0.08443629,-0.07674371,0.08579572,-0.02500198,-0.00127635,0.99452956,0.08842014,0.04330188,0.03489663
1761623575774,0.08663975,-0.01587405,-0.02477209,0.07528877,-0.01913038,-0.00671882,0.99449825,0.08883799,0.04319570,0.03485934
1761623575784,-0.18941649,-0.19243012,0.40957989,0.06905991,-0.01206199,0.00179022,0.99446936,0.08918674,0.04313479,0.03486838
1761623575826,-0.11270699,-0.16234773,-0.09304954,0.02311805,-0.00494064,0.00022741,0.99443003,0.08967222,0.04303104,0.03487315
1761623575831,10.78375514,11.92973823,1.71806108,0.56986678,-0.10407155,-0.09896104,0.99433368,0.09092593,0.04280208,0.03465544
1761623575842,-3.49187650,-4.32073091,-0.80812536,0.06135730,-0.02480623,-0.00902169,0.99430993,0.09126953,0.04266316,0.03460492
1761623575853,-0.11380207,-0.18988151,0.15331449,0.03612651,-0.03544340,0.01166522,0.99429700,0.09148087,0.04245582,0.03467316
1761623575865,-0.03640252,-0.11672557,-0.06343504,0.01810104,-0.03946412,-0.00425886,0.99429796,0.09158766,0.04222298,0.03464803
1761623575876,0.33172120,-0.04376871,0.03915459,0.01574868,-0.03908220,-0.00884138,0.99430062,0.09166956,0.04201975,0.03460206
1761623575888,-0.04844073,-0.16798946,-0.17603627,-0.00904897,-0.04591781,0.00606716,0.99431584,0.09161572,0.04174654,0.03463816
1761623575900,0.06923921,-0.04995640,-0.17088825,0.00394574,-0.05020562,-0.00476459,0.99432716,0.09163919,0.04144782,0.03460981
1761623575912,-0.13318102,-0.09115223,-0.08855227,0.03542835,-0.03221124,-0.00194753,0.99431552,0.09186062,0.04124650,0.03459763
1761623575924,-0.04571856,0.04914596,0.10939298,0.02031006,-0.01230760,0.01915802,0.99430300,0.09198553,0.04117081,0.03471546
1761623575936,0.01789938,0.11225607,-0.01918780,-0.01973170,-0.02303886,0.00060850,0.99431857,0.09187404,0.04104064,0.03471889
1761623575947,0.21091684,-0.04052430,-0.10031599,0.02607710,-0.03319100,0.01022431,0.99431058,0.09202268,0.04085145,0.03477717
1761623575959,0.13709385,-0.04105482,-0.10776697,0.05542111,-0.03252952,-0.01783364,0.99429165,0.09235244,0.04065790,0.03467106
1761623575972,-0.07859615,0.05285188,0.04955202,0.03831963,-0.02863320,-0.00957244,0.99427772,0.09261110,0.04046462,0.03460645
1761623575984,0.07081886,0.19579910,-0.05167326,0.03101957,-0.05729932,0.00374779,0.99427373,0.09278791,0.04013802,0.03462781
1761623575992,0.69853518,-0.14177697,-0.19035267,0.03760413,-0.06911935,0.00002291,0.99427073,0.09294208,0.03985463,0.03462791
1761623576004,-0.48594415,-0.01729472,0.20112971,-0.00468450,-0.03797966,-0.02536996,0.99428691,0.09291538,0.03963814,0.03448330
1761623576015,0.02420914,-0.03979598,0.00630185,0.00586330,-0.01664385,0.02436745,0.99428270,0.09294910,0.03954244,0.03462341
1761623576033,-0.31085071,-0.05843812,0.03710425,0.00936490,-0.02802014,0.01280863,0.99428081,0.09303244,0.03929306,0.03473741
1761623576036,9.10241409,-0.37530524,-3.79722108,-0.04756100,-0.15230144,-0.01915178,0.99430137,0.09294446,0.03901131,0.03470198
1761623576052,-2.00988867,0.11300568,0.85003797,0.00728421,-0.03843533,-0.00721255,0.99430969,0.09300091,0.03871343,0.03464608
1761623576063,0.59644295,0.13443727,-0.14630269,0.02785246,-0.05175982,0.00330911,0.99430561,0.09315967,0.03841840,0.03466494
1761623576178,-0.12286766,-0.00706175,0.04449674,0.00766044,-0.01326785,0.00049389,0.99429252,0.09359746,0.03766014,0.03469317
1761623576182,144.22464010,-18.17053516,-58.94116478,-0.18282360,-1.97014831,0.07653145,0.99447105,0.09321353,0.03352283,0.03485388
1761623576226,-13.25768220,1.69226686,5.40263922,-0.01896659,-0.07886511,-0.02891564,0.99458939,0.09279532,0.03178386,0.03421629
1761623576264,0.03628706,0.06658753,-0.04098187,-0.02128279,-0.07423529,-0.00000566,0.99467048,0.09239414,0.03038452,0.03421619
1761623576270,18.41137756,0.57604341,-11.32368311,-0.02138652,-0.58113720,-0.10748777,0.99473696,0.09233212,0.02869922,0.03390447
1761623576296,-3.94406907,-0.28158248,2.54107593,-0.03810231,-0.09395709,-0.01335135,0.99482484,0.09182726,0.02745429,0.03372757
1761623576312,0.67508806,-0.10381721,-0.26917858,-0.03945802,-0.14020895,-0.03737655,0.99489434,0.09151160,0.02633262,0.03342855
1761623576328,-0.60972238,0.33290802,-0.25336138,-0.00769379,-0.10670224,-0.02924530,0.99492918,0.09145159,0.02550034,0.03320044
1761623576342,-0.42926043,-0.05317231,0.11537829,0.02049187,-0.06641028,-0.00119131,0.99492798,0.09160528,0.02500227,0.03319150
1761623576360,-0.14841714,-0.16042419,0.23765383,0.00695421,-0.05743610,0.01085720,0.99493166,0.09166543,0.02450544,0.03328542
1761623576365,6.41034097,-0.94712662,-5.50660748,-0.08265545,-0.18313615,-0.06331891,0.99496784,0.09145466,0.02403845,0.03312396
1761623576410,-1.04989307,0.14397623,0.81657169,-0.01668469,-0.01692042,-0.01048831,0.99501934,0.09107842,0.02365689,0.03288745
1761623576436,1.05831758,-0.30876390,-0.75817132,-0.11988276,-0.08447548,-0.05448462,0.99520653,0.08954392,0.02257560,0.03219004
1761623576472,-0.47190156,0.14769266,0.23871193,-0.02893927,-0.01948697,-0.04676428,0.99528982,0.08901144,0.02221704,0.03132958
1761623576505,-0.01540705,0.04015961,-0.07471521,-0.03258861,0.00981588,-0.03373536,0.99535131,0.08847535,0.02237852,0.03077463
1761623576534,-0.11665472,-0.12580105,-0.03824715,-0.05225951,0.02526618,-0.01567310,0.99541707,0.08771759,0.02274488,0.03054737
1761623576536,62.54015500,-26.04581067,-117.38363038,-0.50566981,0.72117817,-0.23570796,0.99545025,0.08723721,0.02342999,0.03032345
1761623576566,-4.30323384,1.79384305,7.71107954,-0.02968468,0.07077835,0.00590286,0.99546075,0.08679936,0.02447397,0.03041052
1761623576588,-0.12965355,-0.10385613,0.17524120,-0.04999309,0.08701381,0.00617315,0.99548228,0.08625443,0.02542243,0.03047780
1761623576611,-0.05772433,0.02238556,0.11577168,-0.05098266,0.07025918,-0.00184728,0.99551338,0.08565284,0.02625148,0.03045601
1761623576621,-0.55344067,0.07067773,-0.65074964,0.01185012,0.13951347,-0.04092056,0.99549623,0.08571090,0.02693510,0.03025550
1761623576632,0.08781163,0.17928884,0.15772800,-0.01683602,0.11218783,0.00895442,0.99548553,0.08561578,0.02756896,0.03030609
1761623576645,0.27890420,0.05801751,0.36854335,-0.00824795,0.10339478,-0.01882329,0.99547518,0.08556299,0.02823069,0.03018562
1761623576656,0.10590231,-0.03979875,0.05856403,-0.01761040,0.08121828,0.01087618,0.99546880,0.08546437,0.02868551,0.03024653
1761623576666,0.03429396,-0.07853577,0.08233956,-0.02780860,0.06496793,-0.04602859,0.99547828,0.08532533,0.02901035,0.03001638
1761623576677,0.04469398,-0.09533999,0.16596548,-0.03299940,0.05002699,-0.08832896,0.99550069,0.08514053,0.02929050,0.02952174
1761623576690,0.22820360,-0.16638983,0.16746067,-0.04780997,0.01925573,-0.05059470,0.99553073,0.08485367,0.02940604,0.02921817
1761623576701,0.12169282,-0.02217065,0.06788307,-0.04262541,0.03652544,0.00030475,0.99554595,0.08459792,0.02962519,0.02922000
1761623576722,-0.14105545,0.15952614,0.01962187,-0.01971521,0.01894606,-0.00084855,0.99555750,0.08439683,0.02981844,0.02921135
1761623576724,3.68014855,-7.16744940,-7.56628373,-0.08415253,0.19212316,0.20876402,0.99555271,0.08431267,0.03001056,0.02942011
1761623576735,-0.58849728,1.25452848,1.17271294,-0.01413691,0.03773354,0.06068359,0.99554265,0.08423139,0.03022753,0.02976904
1761623576755,0.00789998,0.04904590,0.07304394,-0.01594981,0.01658109,0.03025084,0.99554200,0.08407348,0.03039168,0.03006852
1761623576766,0.33906570,-0.18580200,-0.08799362,-0.01741871,0.02436839,0.05119153,0.99553757,0.08398029,0.03052205,0.03034240
1761623576769,8.68387171,-4.37505385,-0.93346453,-0.08763494,0.08919741,0.08441524,0.99554036,0.08386199,0.03064247,0.03045636
1761623576780,-1.97713913,1.00826235,0.43631799,-0.04226834,0.00922041,0.04080173,0.99555187,0.08362106,0.03069503,0.03068893
1761623576799,-0.13300060,0.09382904,-0.00517949,-0.01974104,0.00617512,0.00867319,0.99556343,0.08343056,0.03075462,0.03077263
1761623576802,9.85763316,-1.00429968,0.30221222,-0.08828496,0.00673752,0.05772954,0.99557179,0.08329371,0.03076506,0.03086211
1761623576822,-1.54761003,0.30892792,-0.05187428,0.01003685,-0.00668264,-0.00218291,0.99556630,0.08339107,0.03070024,0.03084093
1761623576824,15.46913816,4.54212280,-0.52098146,-0.00155022,-0.04225392,0.04751067,0.99556625,0.08338913,0.03064742,0.03090032
1761623576836,-2.90298282,-0.79629383,0.04921608,0.01453339,-0.02207858,-0.01498303,0.99556582,0.08347270,0.03052047,0.03081417
1761623576855,-0.14773739,-0.13850919,-0.01076803,0.00457114,-0.02017102,-0.01108582,0.99557129,0.08351613,0.03032884,0.03070885
1761623576867,0.33659005,-0.06080490,-0.03057109,0.02200819,-0.04550137,-0.02108690,0.99557241,0.08365258,0.03004673,0.03057811
1761623576869,43.61662519,-4.23513717,0.51694172,-0.08184648,-0.28567424,-0.19510590,0.99559063,0.08358301,0.02980391,0.03041227
1761623576889,-3.89497069,0.24478581,0.05499405,-0.01566642,-0.02564716,-0.02831987,0.99562002,0.08342634,0.02954744,0.03012907
1761623576891,39.87451668,-11.28839065,2.99525723,-0.06265606,-0.29738145,-0.14742277,0.99563758,0.08336682,0.02926493,0.02998902
1761623576902,-6.09992467,1.76387415,-0.48865731,-0.01188728,-0.05679099,-0.00614186,0.99565363,0.08329966,0.02894406,0.02995432
1761623576922,-0.38423897,0.19570668,-0.05107538,-0.01972314,-0.02910128,-0.00589777,0.99568030,0.08310243,0.02865305,0.02989534
1761623576925,17.23289490,-2.18275934,-1.22547150,-0.12739990,-0.25406363,-0.04608367,0.99570439,0.08294318,0.02833547,0.02983774
1761623576936,-3.43990079,0.27614236,0.27189689,-0.05438099,-0.03819223,0.02359950,0.99573205,0.08263592,0.02811968,0.02997108
1761623576956,-0.22837814,-0.01306362,0.01042402,-0.03156485,-0.02660889,0.00637733,0.99576360,0.08232185,0.02785492,0.03003453
1761623576966,0.49816530,-0.22599239,0.06921288,-0.06983421,-0.06932020,-0.02176862,0.99580781,0.08195173,0.02748752,0.02991916
1761623576969,12.75899153,-6.56661116,1.99592332,-0.20622648,-0.29722067,-0.11543910,0.99584635,0.08167333,0.02708628,0.02976331
1761623577005,-1.20645291,0.58047275,-0.16285213,-0.01939790,-0.01993470,-0.00553332,0.99588736,0.08132610,0.02672945,0.02966427
1761623577023,0.79539714,-0.22117022,0.06656118,-0.09907471,-0.07625424,0.01660558,0.99597444,0.08042452,0.02603553,0.02981538
1761623577033,-0.57697260,0.12507260,0.10124688,-0.04028424,-0.01987150,0.05616345,0.99598514,0.08021706,0.02593319,0.03010462
1761623577045,-0.31540021,0.47483391,-0.03145251,-0.00486980,-0.04035074,0.03141816,0.99598793,0.08018906,0.02570118,0.03028528
1761623577056,-0.15654776,0.14142866,-0.03154701,0.01938434,-0.01704118,0.00732682,0.99598033,0.08029858,0.02560489,0.03032667
1761623577066,-0.14252205,-0.08733146,0.08844565,-0.02392517,-0.04193645,0.00059274,0.99599584,0.08017417,0.02538682,0.03032975
1761623577078,-0.08841962,-0.45444472,0.05220937,-0.04397539,-0.01234230,-0.00460675,0.99601798,0.07993011,0.02531832,0.03030419
1761623577090,-0.08974231,-0.04702641,0.07449675,-0.03523537,-0.01219571,0.01581379,0.99603376,0.07972045,0.02524576,0.03039828
1761623577102,0.10835395,0.09935054,0.26982007,-0.02523439,-0.01531947,0.01917982,0.99604476,0.07956779,0.02515308,0.03051432
1761623577114,0.07941984,0.03813120,0.01700840,-0.00888019,-0.01146376,0.01684967,0.99604765,0.07951451,0.02508430,0.03061541
1761623577134,-0.11547293,0.10189321,-0.17297453,-0.00180567,-0.00227496,0.00116109,0.99604930,0.07949654,0.02506166,0.03062697
1761623577136,2.29026589,-0.82866056,2.32401095,0.09901343,-0.12101963,-0.00626506,0.99604251,0.07964011,0.02488618,0.03061788
1761623577148,-0.53691519,0.36147089,-0.68016394,-0.00042767,-0.00156607,0.00392392,0.99604224,0.07963769,0.02487733,0.03064005
1761623577167,-0.07766623,0.00297787,-0.09767165,0.01744628,-0.00501161,0.00029663,0.99602963,0.07980954,0.02482797,0.03064297
1761623577169,22.30033993,16.34469543,13.28151507,0.15399156,-0.03271705,-0.05852316,0.99602233,0.07992503,0.02480343,0.03059908
1761623577179,-3.15566858,-2.34132633,-2.01384226,0.04300189,-0.01620386,-0.01356932,0.99600915,0.08014004,0.02472241,0.03053124
1761623577190,0.19104351,-0.01728113,0.07194548,0.03186243,-0.01330818,-0.01716608,0.99599965,0.08031688,0.02464855,0.03043596
1761623577201,0.06194791,-0.00631489,0.07146897,-0.00263059,-0.03807801,-0.00387287,0.99600644,0.08030280,0.02444483,0.03041524
1761623577213,-0.07945038,-0.12531009,0.09509269,0.00866220,-0.02005886,-0.01289928,0.99600757,0.08035564,0.02432247,0.03033656
1761623577224,-0.03058400,0.14807577,0.23159540,0.00289897,-0.03738467,-0.02518148,0.99601542,0.08037144,0.02411873,0.03019932
1761623577235,-0.10660708,-0.04972907,0.07926550,-0.00079608,-0.04098536,-0.01919565,0.99602432,0.08036710,0.02389536,0.03009470
1761623577245,-0.06493036,-0.14775737,-0.02111936,-0.00685348,-0.04049756,-0.03260033,0.99603746,0.08033112,0.02368275,0.02992355
1761623577256,-0.02311972,-0.21978063,-0.17327747,-0.03492564,-0.03067345,-0.01924143,0.99605969,0.08014253,0.02351711,0.02981965
1761623577268,-0.08630789,-0.04626291,-0.13622179,-0.02125295,-0.03525446,-0.00055874,0.99607476,0.08001713,0.02330911,0.02981635
1761623577278,-0.01461965,-0.03165792,-0.00938678,-0.00709883,-0.00413035,0.01097549,0.99607655,0.07997951,0.02328722,0.02987452
1761623577290,-0.23322287,0.10008396,-0.09663860,0.02652479,-0.01895361,-0.01174729,0.99606872,0.08013468,0.02317634,0.02980580
1761623577301,0.01099838,0.07178746,0.04700359,-0.01076494,0.01596971,-0.00458197,0.99607216,0.08007601,0.02326337,0.02978083
1761623577313,-0.22991575,-0.22165712,-0.10649015,-0.01615935,-0.01329702,0.00068875,0.99608145,0.07998148,0.02318559,0.02978486
1761623577324,-0.19493927,0.03566996,-0.04823850,0.00119738,0.02008712,-0.01899905,0.99608146,0.07998800,0.02329506,0.02968131
1761623577336,-0.05524312,-0.11798668,-0.05629653,0.01954068,0.03195908,-0.01844500,0.99607038,0.08011013,0.02349480,0.02956603
1761623577348,-0.06816284,0.14933449,0.12055218,-0.03549271,0.06306777,-0.02249784,0.99608189,0.07990782,0.02385429,0.02943779
1761623577358,0.07093066,-0.13885352,0.04020474,-0.06769647,0.03321266,0.02224975,0.99610288,0.07954903,0.02403032,0.02955572
1761623577369,0.06839710,0.20198300,-0.00037177,-0.05575890,0.03371140,-0.00839905,0.99612421,0.07924236,0.02421573,0.02950952
1761623577380,-0.22799829,0.15788100,-0.10458113,0.01725402,0.03680816,-0.01651142,0.99611431,0.07933812,0.02442002,0.02941788
1761623577390,-0.22504142,0.20303850,0.08823140,0.02007221,0.06819207,0.00834971,0.99609719,0.07943547,0.02475075,0.02945838
1761623577402,0.01176355,0.02391611,0.11883191,0.01617802,0.05982880,0.00023860,0.99608098,0.07952930,0.02509775,0.02945976
1761623577413,-0.00512862,-0.11205132,-0.02434539,0.04653548,0.03929560,0.01427070,0.99605143,0.07979688,0.02532370,0.02954182
1761623577424,-0.21659697,-0.05861147,-0.00232488,-0.01441885,0.03516924,0.00910136,0.99605136,0.07972046,0.02551010,0.02959006
1761623577435,-0.06264854,-0.14252706,-0.00289984,-0.00183588,0.02791756,-0.00620815,0.99604924,0.07971036,0.02566365,0.02955591
1761623577446,-0.07730558,0.02493742,-0.00627084,-0.01147753,0.04629107,-0.01287665,0.99604981,0.07964494,0.02592751,0.02948252
1761623577457,-0.11655652,0.02425692,0.14873893,0.00389591,0.07064292,0.03038802,0.99603356,0.07966559,0.02630191,0.02964357
1761623577469,0.15086427,-0.02399207,-0.10194392,-0.02501127,0.06340079,0.02263469,0.99603131,0.07951052,0.02669500,0.02978391
1761623577480,-0.41298483,0.01198781,-0.00208331,-0.00921997,0.06377662,-0.00314806,0.99602637,0.07945935,0.02704896,0.02976644
1761623577491,0.08574040,0.03618346,0.20745741,0.02679504,0.10856198,0.02279324,0.99599357,0.07961074,0.02766233,0.02989522
1761623577501,-0.20233405,-0.11787307,0.23703341,-0.01960130,0.11889390,0.08255038,0.99597332,0.07951763,0.02822708,0.03028733
1761623577512,0.21749283,-0.00671201,-0.14321961,-0.02891901,0.08705634,0.03306490,0.99596665,0.07935569,0.02871460,0.03047250
1761623577523,-0.11554102,0.11788957,-0.18541569,-0.01577597,0.09972864,0.02532465,0.99595345,0.07926971,0.02925812,0.03061051
1761623577534,0.05315003,0.02580243,-0.02877836,0.00908445,0.09321485,0.02300403,0.99592975,0.07932104,0.02978478,0.03074049
1761623577545,-0.04664262,0.09385623,0.22046826,-0.01389934,0.09330673,-0.03394013,0.99592606,0.07924390,0.03030263,0.03055212
1761623577557,-0.05660047,0.07723605,0.23607716,-0.04104262,0.07616862,-0.05418902,0.99594039,0.07901611,0.03072537,0.03025137
1761623577568,0.05613697,-0.30207711,-0.10583978,-0.02011722,0.05754262,-0.01418174,0.99594175,0.07890245,0.03105048,0.03017124
1761623577579,0.08580401,-0.05645250,-0.11962259,-0.05275315,0.06493737,-0.01690557,0.99595644,0.07860967,0.03141089,0.03007742
1761623577590,-0.02847896,0.15830539,-0.30884957,0.00026367,0.06683601,-0.02729621,0.99594892,0.07861117,0.03179185,0.02992183
1761623577601,-0.03665891,0.53726144,-0.09557933,0.02039196,0.08160208,0.03895067,0.99592026,0.07871925,0.03222434,0.03012827
1761623577626,0.41915212,-0.06630966,-0.07439620,0.02583902,0.02690250,0.02220170,0.99587584,0.07903836,0.03255659,0.03040246
1761623577636,-1.98004609,0.41367915,0.29801720,0.02425497,-0.02324859,-0.02561078,0.99587381,0.07916570,0.03243453,0.03026800
1761623577646,1.29230669,-1.56046273,0.80240227,-0.08450595,-0.02321642,-0.01154845,0.99591089,0.07876429,0.03232426,0.03021315
1761623577647,-66.07558184,-65.83575250,61.14608653,-0.69609650,-0.23595662,0.00029285,0.99595153,0.07831183,0.03217088,0.03021334
1761623577657,8.67894695,8.00362309,-7.78017508,-0.08088098,-0.00332493,0.00966720,0.99598293,0.07789934,0.03215393,0.03026264
1761623577669,-0.04676889,0.30330503,-0.41407083,-0.03168313,0.00102962,-0.00130688,0.99599757,0.07771241,0.03216000,0.03025493
1761623577680,-0.63263664,0.29563797,-0.29946763,0.01477386,0.03662707,0.00575592,0.99598374,0.07779366,0.03236145,0.03028659
1761623577691,-0.15036165,0.05053038,-0.21087547,0.08358429,0.07066141,0.02665459,0.99593201,0.07824084,0.03273949,0.03042919
1761623577703,0.23453782,0.29965674,-0.22258521,0.05751644,0.04108182,0.03287601,0.99589031,0.07858881,0.03298803,0.03062809
1761623577714,-0.16574137,0.03669977,-0.00155924,0.03319806,0.05206653,-0.02285441,0.99587003,0.07877306,0.03327700,0.03050125
1761623577726,0.11017574,-0.02906223,-0.05043126,0.00082040,0.04654041,0.00173569,0.99585995,0.07877799,0.03355625,0.03051166
1761623577737,0.00468621,-0.30804027,0.01258364,-0.04943126,0.03889133,0.03143661,0.99586944,0.07848881,0.03378376,0.03069557
1761623577748,-0.13777791,-0.27096132,0.07599341,-0.07912771,0.04150554,0.02380827,0.99589082,0.07807339,0.03400166,0.03082056
1761623577758,0.12263513,-0.00178429,0.28457639,-0.10566759,0.04149057,0.05160321,0.99591646,0.07755562,0.03420497,0.03107341
1761623577769,0.25319689,0.05345960,-0.08941698,-0.05895541,0.01723126,0.04708604,0.99593003,0.07723726,0.03429802,0.03132768
1761623577780,0.22616262,0.16584252,-0.01619313,-0.04421914,-0.00898016,0.04668318,0.99594234,0.07699627,0.03424908,0.03158210
1761623577791,0.15158972,0.12832329,-0.17446919,-0.03736342,-0.03807056,0.07039320,0.99595361,0.07677956,0.03402827,0.03199038
1761623577803,0.18166856,0.03124614,-0.01256037,-0.02298689,-0.05535691,0.05891139,0.99596411,0.07664164,0.03369612,0.03234385
1761623577814,0.14906271,-0.00525865,0.01533041,-0.05040450,-0.08424811,0.06199438,0.99598938,0.07636945,0.03324118,0.03267862
1761623577825,0.11513621,0.00256534,-0.00749847,-0.03009575,-0.09063532,0.07604975,0.99600476,0.07620393,0.03274269,0.03309689
1761623577836,0.16348791,0.18817412,0.02573378,-0.03455578,-0.07740215,0.07345120,0.99602021,0.07600696,0.03230150,0.03351557
1761623577847,0.59567879,-0.02633660,0.00708696,-0.00318204,-0.11454683,0.09159697,0.99602443,0.07599057,0.03171158,0.03398729
1761623577857,0.55782361,0.11445142,0.21695759,-0.02922406,-0.11214187,0.06447587,0.99604362,0.07583276,0.03110602,0.03433546
1761623577870,0.08156546,0.03562453,0.03219387,-0.02640953,-0.10155005,0.04212262,0.99606576,0.07567431,0.03049672,0.03458820
1761623577880,-0.16179174,0.07921574,-0.17859467,0.01196935,-0.12678952,0.04085412,0.99607375,0.07573774,0.02982473,0.03480472
1761623577891,-0.15057632,0.16416337,-0.09503694,0.00834221,-0.11547954,0.03180000,0.99608303,0.07578404,0.02918382,0.03498121
1761623577902,0.08703928,0.22773210,0.04687774,0.03665577,-0.11009760,-0.00376344,0.99608593,0.07598382,0.02858379,0.03496070
1761623577913,0.09342474,-0.03342138,-0.09910547,0.05785475,-0.11305959,0.00896839,0.99607729,0.07631070,0.02794500,0.03501137
1761623577924,0.10171887,-0.07866347,-0.09888342,0.03593358,-0.13877200,-0.00034231,0.99608321,0.07650474,0.02719563,0.03500953
1761623577936,0.12880145,-0.16319854,0.05009573,-0.01079056,-0.10603460,-0.00584110,0.99610638,0.07644053,0.02656473,0.03497477
1761623577947,0.02104728,0.02603408,-0.00878402,-0.01350485,-0.14370760,-0.01651944,0.99613603,0.07636626,0.02577433,0.03488391
1761623577958,0.14573710,0.08620618,0.07013468,0.01308876,-0.15075262,-0.00496073,0.99615184,0.07643497,0.02498288,0.03485787
1761623577969,-0.01276448,0.06977355,-0.23118422,0.08270551,-0.14234266,-0.03863225,0.99614349,0.07689399,0.02419288,0.03464346
1761623577980,0.11810463,0.02375723,-0.18174602,0.06233374,-0.14784674,-0.01956496,0.99614002,0.07724617,0.02335755,0.03453292
1761623577991,0.02638171,0.06420746,-0.06871331,0.02241211,-0.15511671,-0.02496163,0.99615549,0.07737504,0.02246563,0.03438939
1761623578002,0.11918349,-0.10799546,-0.25549731,0.02889335,-0.17149653,-0.00885981,0.99616538,0.07752962,0.02154812,0.03434199
1761623578013,-0.06580330,-0.14010738,0.01583312,0.00696894,-0.17085117,-0.01161532,0.99618465,0.07756830,0.02059990,0.03427752
1761623578025,-0.14732209,-0.25055446,-0.04578947,-0.00540198,-0.18058532,-0.03632404,0.99621490,0.07753751,0.01957056,0.03407048
1761623578035,-0.05672069,-0.07755197,-0.15116422,-0.01506728,-0.19352456,-0.03059212,0.99624714,0.07745539,0.01851585,0.03390375
1761623578047,-0.07189634,0.08227940,0.01936924,-0.00285405,-0.16796549,0.01133361,0.99626410,0.07743855,0.01752485,0.03397062
1761623578058,-0.02972772,0.05013505,-0.20360265,0.00780125,-0.18126016,0.01615302,0.99627449,0.07748029,0.01655511,0.03405704
1761623578069,-0.24475430,-0.11768106,-0.01096446,-0.00726421,-0.15517120,0.03212941,0.99628573,0.07743888,0.01567064,0.03424018
1761623578082,-0.17396358,-0.02721726,-0.01770153,-0.02579645,-0.12016482,0.05111953,0.99629875,0.07727766,0.01491961,0.03455967
1761623578093,0.00914262,-0.02649826,-0.25188368,-0.06644539,-0.12293576,0.06144684,0.99632491,0.07691553,0.01424961,0.03489456
1761623578103,-0.17531347,-0.09022768,-0.05078962,-0.08354926,-0.11007020,0.03222740,0.99636083,0.07647690,0.01367174,0.03506375
1761623578115,-0.13256515,-0.23623827,0.15334840,-0.06861616,-0.10118582,0.04861303,0.99638921,0.07607892,0.01308486,0.03534571
1761623578126,-0.20818524,-0.10761685,-0.04250225,-0.05940206,-0.11446746,0.03921750,0.99641404,0.07575815,0.01246674,0.03555748
1761623578137,-0.00931423,0.04044881,0.05173609,-0.03121279,-0.09210546,0.03144503,0.99642746,0.07558180,0.01194634,0.03573515
1761623578148,0.11590692,-0.06697584,-0.14805966,-0.03390161,-0.08960972,0.03918288,0.99643896,0.07540551,0.01148037,0.03593890
1761623578160,-0.07221332,0.14603028,0.27862526,-0.04254515,-0.07658925,0.03586765,0.99645703,0.07512897,0.01098254,0.03617204
1761623578172,-0.00814721,-0.28548443,-0.88669385,-0.03652053,-0.06337816,0.09181785,0.99645748,0.07491897,0.01061812,0.03669999
1761623578193,-0.02740123,0.22026958,0.76867490,-0.03168415,-0.01511296,0.02531472,0.99647421,0.07458787,0.01046018,0.03696453
1761623578203,-0.18567389,-0.28674866,-0.68549940,-0.04078812,-0.03327300,0.03747689,0.99648462,0.07437578,0.01028717,0.03715941
1761623578205,-3.27437150,-7.56206696,-23.57376965,-0.15860307,-0.10069297,0.17703567,0.99649148,0.07420131,0.01017640,0.03735415
1761623578225,0.49054916,0.94537245,3.03295967,-0.01849851,-0.01996888,0.01246488,0.99650252,0.07401725,0.00997771,0.03747817
1761623578227,-1.72908977,-14.59182400,-26.06096706,-0.38941348,-0.13722380,-0.08929269,0.99653442,0.07364731,0.00984735,0.03739334
1761623578239,0.26471245,2.09598372,3.90392995,-0.02611505,-0.06607947,-0.00881071,0.99655137,0.07349454,0.00946079,0.03734180
1761623578260,0.09260051,0.22671063,0.22652468,-0.03017088,-0.02363824,-0.00285407,0.99657813,0.07317774,0.00921258,0.03731183
1761623578294,-0.00640611,0.02966647,0.06638705,-0.01829178,-0.02048628,0.00114737,0.99660320,0.07286861,0.00886637,0.03733122
1761623578325,0.09157011,-0.15683516,-0.29893008,-0.04162920,-0.07337199,0.00645429,0.99665555,0.07222752,0.00773644,0.03743062
1761623578355,0.03411960,0.01771783,0.12536389,-0.04890391,-0.06808095,0.00279290,0.99671562,0.07147685,0.00669139,0.03747349
1761623578388,-0.02003609,0.03004883,0.01939823,-0.02902638,-0.03671717,-0.01206108,0.99676092,0.07100081,0.00608923,0.03727569
1761623578422,-0.09890435,0.02744821,-0.01534654,0.00373114,-0.02796498,-0.03041313,0.99677824,0.07106368,0.00561802,0.03676323
1761623578457,0.00820533,-0.04035507,0.07566081,-0.01369135,-0.01601523,0.01364277,0.99678791,0.07082614,0.00534016,0.03699993
1761623578489,-0.00329727,-0.00068039,0.10847024,-0.01709755,-0.00423671,0.03009907,0.99678972,0.07054574,0.00527068,0.03749356
1761623578524,0.01945178,-0.03369112,0.02786780,-0.01919635,-0.00638192,0.00820089,0.99680824,0.07021652,0.00516123,0.03763420
1761623578557,0.06133290,0.01652153,0.08395470,-0.02188661,-0.00180912,0.01956154,0.99682157,0.06985430,0.00513129,0.03795794
1761623578589,0.08223847,0.17408220,0.06567045,-0.00135742,0.00928059,0.02226907,0.99680860,0.06983244,0.00528070,0.03831648
1761623578610,0.37112789,0.11227435,0.40077636,0.01705589,-0.01658917,-0.01653539,0.99680354,0.07001409,0.00510403,0.03814037
1761623578644,-0.20368285,0.05429570,-0.03743482,0.02863626,-0.03739812,-0.03004788,0.99679169,0.07050090,0.00446826,0.03762956
1761623578679,-0.00728994,-0.02625793,0.04577179,0.01444317,-0.03279455,-0.00455141,0.99677919,0.07075366,0.00389436,0.03754991
1761623578723,0.02737055,0.00444962,-0.02499533,0.02863466,-0.02228897,-0.00615014,0.99674107,0.07138505,0.00340288,0.03741430
1761623578756,0.11246764,0.20213002,0.26195886,0.07792124,0.02098230,0.00536517,0.99664538,0.07264738,0.00374280,0.03750122
1761623578767,-1.14044485,-0.80890867,2.60502821,0.02702881,0.13222697,-0.04389300,0.99664050,0.07279874,0.00448327,0.03725542
1761623578799,0.02186945,0.09354543,-0.99187517,0.03972667,0.05852781,-0.00396618,0.99659158,0.07343437,0.00541971,0.03719196
1761623578843,0.02806906,-0.09649047,-0.21106688,-0.00305793,0.03056269,0.03122546,0.99656695,0.07336755,0.00608751,0.03787423
1761623578855,0.32580082,-0.54445992,2.64280879,-0.03911333,0.06691020,-0.04003889,0.99659057,0.07313483,0.00648562,0.03763600
1761623578916,-0.05118904,0.12642891,-0.51148596,0.01820363,0.01049773,0.00332581,0.99654308,0.07369732,0.00681000,0.03773877
1761623578919,35.83119362,30.43535866,192.55639302,0.01612118,0.58568061,0.01709526,0.99653614,0.07371586,0.00748354,0.03775843
1761623578976,-1.39653953,-1.17798510,-7.69956701,0.03394793,0.01543799,-0.01175495,0.99647333,0.07468337,0.00792352,0.03742341
1761623578995,0.40683685,0.13957634,1.31010234,0.05792479,0.03977841,-0.04927408,0.99644575,0.07524524,0.00830937,0.03694545
1761623579017,-0.08987735,-0.19823566,-0.46904950,-0.00466440,0.00203499,-0.01024573,0.99645361,0.07519394,0.00833175,0.03683275
1761623579040,0.02859365,0.09455673,-0.26565758,0.02419649,-0.00760282,-0.01660066,0.99644057,0.07546736,0.00824584,0.03664516
1761623579052,-0.02880254,0.88110939,0.58081225,0.12240651,-0.03061338,-0.02144170,0.99638924,0.07622628,0.00805604,0.03651222
1761623579073,-0.20154583,-0.51268683,-0.73916508,0.07267915,-0.00423813,-0.01027742,0.99633539,0.07698214,0.00801196,0.03640534
1761623579084,0.20260048,0.02199404,0.93205942,0.04992266,0.00816091,0.01412860,0.99631116,0.07725422,0.00805644,0.03648234
1761623579096,-0.04288264,-0.19782483,-0.20926832,0.01290615,0.01901974,0.00304856,0.99630349,0.07733230,0.00817151,0.03650078
1761623579108,-0.06017252,0.02313674,-1.00654708,0.00751464,0.01592895,-0.00095832,0.99629930,0.07737852,0.00826947,0.03649489
1761623579119,0.20826847,-0.01488674,0.13391843,0.02919043,0.02609845,-0.02320622,0.99629070,0.07753177,0.00840649,0.03637306
1761623579152,-0.17818045,-0.06765418,-0.14918175,0.01424776,0.00991657,-0.00251280,0.99627244,0.07776757,0.00857061,0.03633147
1761623579162,1.81228047,0.83493312,3.15059139,0.05248715,0.06046672,-0.07415932,0.99626213,0.07804575,0.00889108,0.03593843
1761623579174,-0.72559293,-0.52729371,-2.03978387,0.02013607,0.01393896,-0.01455363,0.99625518,0.07816455,0.00897332,0.03585256
1761623579185,-0.03797693,-0.02947707,-0.12152938,0.00137486,0.01217976,-0.00173602,0.99625431,0.07817225,0.00904153,0.03584284
1761623579196,-0.43238009,-0.06553774,0.04337775,0.00449542,-0.00020892,-0.01129943,0.99625459,0.07819563,0.00904044,0.03578408
1761623579207,0.04345928,-0.04752560,-0.05453427,-0.01200114,0.02729868,0.00637539,0.99625718,0.07812842,0.00919332,0.03581978
1761623579218,-0.12933467,-0.31246241,0.11117980,-0.00240286,0.00388252,0.00093947,0.99625785,0.07811484,0.00921525,0.03582509
1761623579229,-0.05928256,-0.11424729,-0.04667918,-0.01119055,-0.00961935,-0.00547724,0.99626442,0.07805162,0.00916090,0.03579415
1761623579240,0.16657918,0.04568627,0.05274747,-0.01988459,-0.00532128,-0.01793995,0.99627657,0.07794424,0.00913217,0.03569727
1761623579253,0.04416042,0.21475796,-0.24414062,-0.02330388,-0.01520929,-0.00728238,0.99629045,0.07779859,0.00903711,0.03565175
1761623579273,-0.16800712,0.00533585,-0.20749540,0.00216693,-0.00831945,-0.00742068,0.99629221,0.07782091,0.00895142,0.03557532
1761623579285,0.35021936,0.06439907,0.33386078,0.00995710,-0.00992806,-0.01446342,0.99629124,0.07787667,0.00889582,0.03549433
1761623579286,37.79691363,5.24252564,43.66418672,0.15302062,-0.09765412,-0.03519399,0.99628386,0.07799144,0.00882258,0.03546793
1761623579297,-5.41712962,-0.52022285,-6.15238873,0.03193577,-0.00365373,-0.00788316,0.99627236,0.07815910,0.00880340,0.03542654
1761623579309,-0.08772203,0.01773863,-0.21730248,0.06076363,-0.00986677,-0.01914669,0.99624809,0.07852672,0.00874371,0.03531071
1761623579320,0.28709091,0.05309052,-0.00382190,0.03604518,0.00750901,-0.00276516,0.99623177,0.07873578,0.00878726,0.03529467
1761623579333,-0.11988592,-0.08634246,-0.05661417,0.00252890,-0.00563953,-0.00964588,0.99623303,0.07875235,0.00875032,0.03523149
1761623579343,0.38025793,0.00560816,0.30189233,-0.00451575,-0.00520539,-0.00906810,0.99623668,0.07872954,0.00872403,0.03518569
1761623579358,-0.32913988,-0.16306125,-0.30172063,-0.00397554,-0.01157193,-0.01577083,0.99624391,0.07869992,0.00863782,0.03506820
1761623579372,0.07163621,-0.00244626,-0.00023358,-0.01295989,-0.03627164,-0.02262803,0.99625838,0.07861180,0.00839117,0.03491433
1761623579377,3.25203144,0.40012941,1.48915421,0.04169757,-0.09418095,-0.04307164,0.99625567,0.07872438,0.00813688,0.03479804
1761623579391,-1.20347507,0.00388622,-0.59668633,0.01949949,-0.03241278,-0.02530953,0.99625291,0.07885893,0.00791324,0.03462340
1761623579404,0.08376727,-0.04714182,-0.04202647,0.04571727,-0.04200504,-0.01389720,0.99623447,0.07915837,0.00763810,0.03453238
1761623579411,1.82565001,0.60417006,0.63851658,0.05375484,-0.06068920,-0.03904573,0.99622621,0.07933845,0.00743479,0.03440157
1761623579436,-0.71135396,-0.17865776,-0.27406776,0.01140702,-0.01792738,-0.00796435,0.99621985,0.07948275,0.00720801,0.03430082
1761623579466,0.13660693,-0.00076146,0.03336334,0.01882132,-0.01519614,-0.00831871,0.99620331,0.07976319,0.00698159,0.03417687
1761623579485,0.62094734,-0.05338309,0.15063493,-0.00434770,-0.04378651,-0.04141884,0.99622246,0.07972275,0.00657438,0.03379168
1761623579486,124.72159081,-47.89199972,37.88385813,-0.41790597,-0.20606372,-0.62133628,0.99625865,0.07945112,0.00644043,0.03338781
1761623579506,-8.70577966,2.77862540,-2.60405647,-0.00685750,-0.01317530,-0.03667258,0.99627755,0.07938117,0.00630605,0.03301375
1761623579517,0.47559668,-0.06652199,0.08105581,-0.00554022,-0.01431680,-0.05449621,0.99629024,0.07935098,0.00622802,0.03271675
1761623579529,0.04847682,0.42714947,-0.13064882,0.01029661,0.01414464,-0.05980065,0.99629620,0.07940967,0.00630864,0.03237588
1761623579539,-0.01378392,0.18706970,-0.05884727,0.02808480,-0.00144726,-0.07261465,0.99629681,0.07956132,0.00630083,0.03198376
1761623579551,-0.29216539,0.10350577,-0.04331585,0.03141013,0.00887845,-0.05185994,0.99629162,0.07974036,0.00635144,0.03168816
1761623579561,-0.06206607,0.08846439,0.03852954,-0.00191862,0.01734336,-0.06325673,0.99630245,0.07973019,0.00644336,0.03135290
1761623579564,6.52504791,2.51477584,-0.34448112,-0.06463978,0.01194813,-0.29309889,0.99632170,0.07964293,0.00645949,0.03095722
1761623579574,-1.77528714,-0.75755678,0.09203316,-0.02120636,0.01530003,-0.06335404,0.99633929,0.07953796,0.00653522,0.03064362
1761623579585,0.03001936,-0.01215644,-0.01711552,-0.01514547,0.00825644,-0.06845852,0.99635747,0.07945314,0.00658146,0.03026025
1761623579597,-0.19549816,-0.01121734,-0.00268328,-0.01845011,0.02196542,-0.03015208,0.99637077,0.07934337,0.00671215,0.03008084
1761623579617,-0.15372789,-0.09787952,-0.04954046,0.00044206,0.01255019,-0.01450108,0.99637397,0.07934783,0.00683891,0.02993438
1761623579633,0.05345077,0.02284399,0.00267409,-0.01881401,0.02355832,-0.03065613,0.99639197,0.07919732,0.00702738,0.02968913
1761623579653,-0.06532593,-0.07774921,-0.03382779,-0.01689333,0.01396728,-0.01945738,0.99641008,0.07902923,0.00716635,0.02949553
1761623579662,0.23974868,-0.17627005,0.37502134,-0.02120715,0.08197834,-0.04908316,0.99642156,0.07893274,0.00753935,0.02927220
1761623579674,-0.34404401,0.03773770,-0.13149684,-0.00641482,0.03431903,-0.00401110,0.99642368,0.07889521,0.00774012,0.02924874
1761623579676,2.90421403,-15.30778151,17.31702788,-0.25158833,0.42166531,0.04712810,0.99643581,0.07869394,0.00807745,0.02928644
1761623579686,-0.57587698,1.91353380,-2.20872241,-0.03791497,0.04203631,0.01038528,0.99644798,0.07849678,0.00829604,0.02934044
1761623579696,0.05482173,-0.12724964,0.12877813,-0.05289452,0.07585040,-0.00030787,0.99646612,0.07822437,0.00868667,0.02933886
1761623579708,-0.08048295,0.01368971,-0.08800557,-0.03967630,0.06421034,-0.00642077,0.99648207,0.07799227,0.00906230,0.02930130
1761623579720,-0.00906946,0.15884727,-0.08909048,-0.04835486,0.06358332,-0.00083310,0.99650150,0.07769972,0.00944698,0.02929626
1761623579740,0.02191881,0.20025503,-0.05659021,-0.03265686,0.04256524,-0.01353344,0.99652638,0.07737805,0.00986625,0.02916295
1761623579751,0.04230299,0.11963485,0.27542516,-0.01081818,0.07061101,-0.02812611,0.99653177,0.07731639,0.01026873,0.02900263
1761623579754,1.76379425,1.60573151,11.78477070,-0.01511799,0.27816599,-0.17858788,0.99653590,0.07729825,0.01060253,0.02878833
1761623579763,-0.37688560,-0.36084534,-2.99810824,-0.02731224,0.04379292,-0.04693679,0.99654999,0.07716988,0.01080835,0.02856773
1761623579774,0.02129405,-0.03507308,0.08863371,-0.03258431,0.03721024,-0.05694605,0.99657016,0.07699392,0.01100929,0.02826022
1761623579785,0.00886094,-0.26571709,0.10249476,-0.02703272,0.04643405,-0.05494570,0.99658762,0.07684254,0.01126932,0.02795252
1761623579796,0.03757466,0.13365692,0.00886904,-0.02082777,0.02934929,-0.03060820,0.99659963,0.07672486,0.01143514,0.02777958
1761623579807,0.04015754,0.06126541,0.05408606,0.00758613,0.01885567,-0.02018421,0.99659834,0.07676583,0.01153696,0.02767059
1761623579818,0.09836638,0.15354773,0.10003426,-0.00479302,0.01610063,-0.00688920,0.99660033,0.07674019,0.01162310,0.02763373
1761623579829,-0.00044578,-0.08084319,-0.16768162,0.01843234,-0.01021785,0.00441260,0.99659222,0.07684525,0.01156486,0.02765888
1761623579840,-0.01782868,-0.01011397,0.49602265,-0.02018950,-0.01781935,-0.01232201,0.99660378,0.07673421,0.01146685,0.02759111
1761623579851,-0.05944148,-0.14240479,0.01359819,0.01139624,-0.00070328,-0.00597296,0.99659987,0.07679746,0.01146295,0.02755796
1761623579863,-0.02406548,0.06827738,-0.00120517,0.00713567,-0.01732227,0.00341835,0.99659729,0.07683884,0.01136248,0.02757779
1761623579874,-0.00941317,0.05784719,-0.41411412,0.01027295,-0.02723613,0.00734597,0.99659344,0.07689637,0.01120996,0.02761893
1761623579885,0.06010832,-0.02580738,0.03136086,0.01083550,-0.00174905,-0.00426952,0.99658953,0.07695705,0.01120016,0.02759502
1761623579897,-0.07123435,-0.09442941,0.10494238,0.00416444,-0.00600726,0.00021083,0.99658808,0.07698016,0.01116682,0.02759619
1761623579908,0.01144034,0.02088611,0.00053081,0.00419083,-0.00104593,0.00058835,0.99658624,0.07700363,0.01116097,0.02759948
1761623579919,0.03406583,0.14075898,-0.06160059,0.00791658,0.00470092,-0.00251328,0.99658282,0.07704915,0.01118800,0.02758503
1761623579929,-0.11821251,0.32697293,-0.04656292,0.01590683,-0.00142769,-0.01416007,0.99657879,0.07712710,0.01118100,0.02751565
1761623579941,0.01777002,-0.06644848,-0.13142575,0.01844256,0.01230819,-0.01716007,0.99657239,0.07723499,0.01125300,0.02741526
1761623579952,-0.16358964,-0.56904184,0.15492913,0.01177075,-0.00356626,-0.01312176,0.99656958,0.07729972,0.01123339,0.02734309
1761623579964,0.00835368,-0.06731745,-0.10107202,0.00247746,0.00033222,-0.00394179,0.99656905,0.07731459,0.01123538,0.02731944
1761623579974,0.02258327,0.01883294,0.07507307,0.00937997,0.00037210,-0.00450737,0.99656598,0.07736196,0.01123726,0.02729668
1761623579985,0.01035399,0.61928111,-0.31788654,-0.00003702,-0.01088590,0.00611491,0.99656574,0.07736176,0.01117793,0.02733000
1761623579996,0.07429304,-0.01461291,-0.18163006,0.01917828,-0.00639394,0.01210113,0.99655550,0.07747395,0.01114053,0.02740080
1761623580007,-0.06617475,0.13192940,0.01849146,0.00461921,-0.01726048,-0.00141566,0.99655480,0.07749935,0.01104560,0.02739301
1761623580020,0.07004304,0.02072453,-0.03481778,-0.00391292,-0.02198835,0.01084383,0.99655635,0.07747490,0.01090817,0.02746078
1761623580030,0.03468990,0.14841929,0.08416176,0.00755121,-0.02305366,0.01670374,0.99655236,0.07751266,0.01079290,0.02754430
1761623580041,-0.43052889,0.00037695,-0.09615668,0.03745118,-0.05895458,0.02478679,0.99653645,0.07771302,0.01047750,0.02767691
1761623580052,0.12198086,0.11309316,0.06355245,-0.00965253,-0.02794152,0.00862339,0.99654108,0.07765752,0.01031683,0.02772650
1761623580063,0.02551930,-0.14770371,-0.11707138,0.00917919,-0.02917004,0.00467303,0.99653799,0.07770938,0.01015202,0.02775290
1761623580074,0.21861015,-0.10982036,-0.33408422,0.02340653,-0.04353865,0.00202405,0.99653026,0.07783460,0.00991909,0.02776373
1761623580085,-0.13932536,-0.14653165,-0.16199115,0.02424472,-0.03442537,0.00667316,0.99652051,0.07797037,0.00972631,0.02780110
1761623580096,-0.13016965,0.01799311,-0.18192787,0.02799663,-0.04053369,-0.00239703,0.99651096,0.07812436,0.00950337,0.02778791
1761623580108,0.10985096,-0.14125796,-0.07886235,0.05888495,-0.02036230,0.00421595,0.99648525,0.07845706,0.00938832,0.02781173
1761623580118,-0.14690289,-0.02085109,-0.13417503,0.03338082,-0.05199339,-0.00130404,0.99647385,0.07863731,0.00910756,0.02780469
1761623580130,0.08121746,-0.10437441,0.04587093,0.00376147,-0.03882489,0.00827118,0.99647282,0.07865913,0.00888238,0.02785266
1761623580141,-0.03961032,-0.19570040,-0.04269640,-0.01342277,-0.04111173,-0.00240822,0.99648108,0.07858463,0.00865421,0.02783930
1761623580152,-0.19015040,-0.05563084,0.25277943,0.00196062,-0.04671829,0.00058623,0.99648233,0.07859542,0.00839726,0.02784252
1761623580163,-0.08457709,-0.17484390,-0.00700466,-0.03070727,-0.04399052,0.00986384,0.99649663,0.07842038,0.00814651,0.02789875
1761623580175,-0.01234526,-0.13318493,0.07523822,-0.06061116,-0.02971275,0.01946396,0.99652113,0.07808702,0.00798309,0.02800580
1761623580186,0.05040633,-0.18495660,-0.35125666,-0.05415369,-0.01933056,0.02318967,0.99654261,0.07777564,0.00787194,0.02813914
1761623580197,-0.11944488,0.07269202,-0.08991028,-0.04212525,-0.02687472,0.03088921,0.99655701,0.07754395,0.00772413,0.02830903
1761623580208,-0.00816938,-0.04060728,-0.09201403,-0.03191741,-0.01352991,0.03509088,0.99656541,0.07737479,0.00765242,0.02849501
1761623580219,-0.26515528,0.26260968,-0.09788390,-0.05141018,-0.00571634,0.04162502,0.99658127,0.07708689,0.00762041,0.02872811
1761623580230,-0.10335241,-0.09637139,0.03809192,-0.05243315,-0.01675883,0.02301142,0.99660146,0.07678540,0.00752404,0.02886043
1761623580241,0.00073986,-0.01937659,0.09058719,-0.10912664,-0.01635493,0.04302761,0.99664059,0.07619612,0.00743573,0.02909278
1761623580252,0.35561642,-0.30644133,0.24281549,-0.09664091,-0.00384485,0.04285163,0.99667434,0.07566459,0.00741458,0.02932846
1761623580264,0.04115859,0.06371236,0.03330141,-0.03964347,-0.00326442,0.00440191,0.99669188,0.07542475,0.00739483,0.02935509
1761623580275,-0.14182412,-0.09983974,-0.10658081,-0.01793073,-0.00902630,-0.00873854,0.99670112,0.07532613,0.00734519,0.02930703
1761623580285,-0.41041240,0.07272503,0.50626076,-0.05944952,0.00407058,0.03238029,0.99671914,0.07501996,0.00736615,0.02947379
1761623580297,0.03650040,0.31696664,0.02858760,-0.05779923,0.00036278,0.03062642,0.99673852,0.07469340,0.00736820,0.02964683
1761623580308,0.05021186,0.23292552,-0.03325311,0.00481941,0.02094137,0.03826005,0.99672922,0.07472039,0.00748547,0.02986108
1761623580319,0.30406337,0.18966813,-0.28582222,0.00969073,0.02076361,0.02604423,0.99671964,0.07477611,0.00760486,0.03001084
1761623580356,0.12888866,0.03192613,0.09209403,-0.00127614,-0.00114499,0.00023926,0.99672142,0.07475282,0.00758397,0.03001521
1761623580365,-2.39128876,-0.39251853,0.72970298,-0.11170448,0.00988081,0.04882764,0.99675303,0.07423339,0.00762991,0.03024225
1761623580376,1.56673161,0.36224357,-0.16076428,0.02540926,0.01143108,0.01895998,0.99673908,0.07437187,0.00769221,0.03034559
1761623580423,0.12464201,0.01606441,-0.07295081,-0.00094837,0.00214366,0.00451044,0.99673711,0.07434949,0.00774280,0.03045203
1761623580442,-1.08559609,0.30510896,-0.02434908,0.09498227,0.03553001,0.08240059,0.99664550,0.07522333,0.00806968,0.03121012
1761623580464,0.57905518,-0.20247466,0.05234041,0.02491663,0.02625670,0.04311631,0.99660674,0.07550240,0.00836375,0.03169302
1761623580486,0.02655485,-0.13923092,0.12291138,0.01559640,0.04229699,0.02352263,0.99658156,0.07567318,0.00882690,0.03195059
1761623580498,-0.13725646,0.01142824,0.20192064,-0.00866401,0.03367222,0.02465643,0.99657899,0.07562206,0.00902557,0.03209607
1761623580509,0.15381363,0.15341701,-0.48416289,0.06686983,0.03993186,0.02113239,0.99654371,0.07600656,0.00925518,0.03221758
1761623580521,0.18674218,0.06218389,-0.24085163,0.05121751,0.04519488,0.00392633,0.99651758,0.07630618,0.00951957,0.03224055
1761623580531,0.03240132,0.02706618,0.07182793,-0.00790831,0.04201831,-0.00957688,0.99652020,0.07626546,0.00973596,0.03219122
1761623580542,0.11970173,-0.09166862,-0.19237453,0.00976963,0.03321822,-0.00162795,0.99651489,0.07631626,0.00990870,0.03218276
1761623580553,0.27893496,0.05489475,-0.06915351,-0.01737946,0.01764848,0.01262778,0.99651899,0.07622067,0.01000576,0.03225221
1761623580564,0.10965657,0.02142106,-0.04753995,-0.01593090,0.02020278,0.01267007,0.99652251,0.07612747,0.01012395,0.03232633
1761623580576,0.03711507,-0.03857117,0.05004660,-0.01684896,0.03350117,0.02091592,0.99652403,0.07603059,0.01031658,0.03244660
1761623580586,-0.32712919,-0.14796634,0.32917419,-0.00947690,0.00840517,0.02618854,0.99652288,0.07598084,0.01036071,0.03258409
1761623580598,0.10339433,-0.00950684,-0.00469943,-0.00006272,0.00675625,0.01880986,0.99651909,0.07598049,0.01039821,0.03268848
1761623580610,0.08287172,0.03060876,-0.00716201,0.01038702,-0.00793812,0.00503979,0.99651363,0.07604541,0.01034859,0.03271998
1761623580621,0.21594615,0.15472701,0.30182610,0.01523948,0.00328991,0.00980337,0.99650527,0.07612923,0.01036669,0.03277390
1761623580631,-0.06719090,-0.06216304,-0.09112255,0.02435860,-0.03197035,0.00653368,0.99649635,0.07625346,0.01020364,0.03280722
1761623580642,0.14371510,-0.02705367,0.03048047,0.01276094,-0.01198287,0.00668187,0.99649055,0.07632237,0.01013893,0.03284330
1761623580653,-0.23051873,-0.16646814,-0.27448787,-0.00605701,-0.02062293,0.00096309,0.99649407,0.07628905,0.01002551,0.03284860
1761623580665,0.02326210,-0.01237239,0.00823546,-0.01251308,-0.01121911,0.01222081,0.99649791,0.07621710,0.00996100,0.03291887
1761623580676,0.00464628,0.01829616,0.02618777,-0.00745851,0.00988051,0.00623057,0.99649939,0.07617533,0.01001633,0.03295376
1761623580688,-0.11831434,0.03988916,0.04403740,0.00743699,0.00064490,0.01184658,0.99649364,0.07621958,0.01002016,0.03302425
1761623580698,-0.02123478,0.06894057,0.10516463,0.00880187,0.01941450,-0.01412343,0.99649163,0.07626359,0.01011724,0.03295363
1761623580709,-0.04539722,0.02569452,-0.02379624,-0.00661487,0.00605828,-0.00386557,0.99649483,0.07622655,0.01015116,0.03293199
1761623580720,0.02222510,-0.09383523,-0.13236147,0.00546981,0.01739132,-0.01095810,0.99649353,0.07625691,0.01024768,0.03287117
1761623580734,-0.00866755,0.06231616,0.02184960,-0.00247836,0.00868076,0.00066565,0.99649406,0.07624005,0.01030671,0.03287569
1761623580743,-0.05449838,-0.12187548,-0.06374210,0.01240756,0.01433909,0.00489324,0.99648808,0.07629899,0.01037482,0.03289894
1761623580755,0.03249608,0.02335942,0.06486383,-0.00655044,0.01231698,0.00530316,0.99648923,0.07626067,0.01044688,0.03292996
1761623580765,-0.02752331,-0.10573435,-0.05020937,0.00092730,0.01008519,0.00620058,0.99648725,0.07626549,0.01049932,0.03296220
1761623580776,-0.09028491,0.14807124,-0.02450454,-0.00891923,0.01361661,0.00328362,0.99648963,0.07621599,0.01057489,0.03298043
1761623580787,-0.08178460,0.05479662,-0.04840264,0.00361673,0.00581773,0.01172047,0.99648578,0.07623516,0.01060573,0.03304255
1761623580798,0.02690956,0.07929477,-0.01660386,0.01715535,0.01912959,0.00830225,0.99647574,0.07633123,0.01071285,0.03308904
1761623580809,-0.01438511,0.10264809,0.02699057,0.01285708,0.01936424,0.01478902,0.99646621,0.07640387,0.01082226,0.03317260
1761623580846,0.07224810,-0.01657929,0.01610872,0.01048156,0.00926808,0.00920469,0.99644407,0.07659516,0.01099140,0.03334058
1761623580855,-1.29461265,1.41809323,-1.53210124,0.09417129,0.09853320,0.02088176,0.99640281,0.07702364,0.01143973,0.03343559
1761623580866,0.81028077,-1.35360680,1.28997389,0.01929120,0.02124045,0.00981501,0.99639185,0.07712588,0.01155230,0.03348761
1761623580876,0.08558142,0.24485847,-0.04124607,-0.01041768,0.02334861,0.03030533,0.99638925,0.07707015,0.01167722,0.03364975
1761623580888,-0.00684891,0.20685822,-0.14417241,-0.00151349,0.01740390,0.00014510,0.99638871,0.07706145,0.01177729,0.03365058
1761623580899,0.09454158,-0.00219341,0.05760617,-0.00285475,0.01124612,0.00828738,0.99638762,0.07704532,0.01184083,0.03369741
1761623580911,-0.00323137,-0.16962904,0.00771286,0.01933155,-0.00114088,0.00324183,0.99637823,0.07715937,0.01183410,0.03371653
1761623580921,0.10141929,-0.24562113,0.24761811,-0.00317159,0.01266902,0.00732153,0.99637748,0.07714383,0.01189618,0.03375241
1761623580932,-0.04646431,-0.02724984,-0.05905617,0.00834921,-0.00670011,0.00359981,0.99637362,0.07719059,0.01185866,0.03377257
1761623580944,0.12008845,0.00016255,0.03851134,0.01292934,0.00359024,0.01682991,0.99636417,0.07726622,0.01187966,0.03387102
1761623580954,0.19930670,0.33201902,-0.57385636,0.00991777,-0.00215782,0.00910184,0.99635869,0.07731780,0.01186844,0.03391835
1761623580965,-0.00157542,-0.09894598,0.00285461,0.01309471,-0.01700704,-0.00136419,0.99635435,0.07739178,0.01177235,0.03391064
1761623580977,0.12504999,0.03702262,0.14368775,-0.01267597,-0.01347048,0.00682606,0.99635954,0.07731953,0.01169557,0.03394955
1761623580988,-0.15445614,-0.36975653,0.49645475,-0.00419562,-0.02303774,0.01509882,0.99635998,0.07729645,0.01156886,0.03403260
1761623580999,-0.02234524,-0.02420405,-0.01367659,0.01236375,-0.02115552,0.00617567,0.99635497,0.07736322,0.01145462,0.03406594
1761623581010,-0.03541416,0.06907984,-0.00058056,0.00574923,-0.00975402,0.01172806,0.99635067,0.07739685,0.01139756,0.03413455
1761623581020,-0.26096567,0.10427756,-0.08369840,0.00492475,-0.00267767,0.02015135,0.99634530,0.07742221,0.01138377,0.03423833
1761623581032,-0.06193622,0.19321534,-0.03946071,0.01791185,-0.00034963,0.00639925,0.99633612,0.07752431,0.01138178,0.03427481
1761623581045,0.07051102,0.04552733,0.00589334,0.03539046,0.00672529,-0.00187813,0.99631853,0.07774904,0.01142448,0.03426288
1761623581054,0.20588561,-0.27018577,-0.08054418,0.07850102,-0.00027643,-0.03786001,0.99629482,0.07813369,0.01142313,0.03407737
1761623581065,0.04865060,0.05692589,0.26184762,-0.01894172,-0.00279614,-0.01208956,0.99630524,0.07803141,0.01140803,0.03401208
1761623581078,0.04699146,-0.00630331,0.00183774,-0.00810090,-0.00694409,-0.01523712,0.99631289,0.07798118,0.01136498,0.03391761
1761623581088,-0.16792402,0.15520367,-0.10417433,0.00321560,-0.01593762,-0.00428536,0.99631327,0.07799774,0.01128290,0.03389554
1761623581099,-0.05033515,0.01332465,0.00310010,0.00885884,-0.01499819,-0.00391394,0.99631108,0.07804735,0.01119891,0.03387363
1761623581111,0.04711884,-0.11161473,0.07012775,0.00336921,-0.01234463,0.01029699,0.99630815,0.07806807,0.01112299,0.03393695
1761623581121,0.20289172,-0.19209060,0.03571761,0.00938036,-0.01002872,0.00119668,0.99630487,0.07811451,0.01107335,0.03394288
1761623581133,-0.07496589,0.02000322,-0.04355825,0.00355256,-0.01793377,0.00266778,0.99630388,0.07813493,0.01097023,0.03395822
1761623581145,0.05213113,0.03744553,0.01027591,0.00707970,-0.00190821,0.00066343,0.99630062,0.07817635,0.01095906,0.03396210
1761623581155,0.17129355,0.37224584,-0.56969265,0.02124523,0.00031626,0.00515855,0.99629102,0.07828683,0.01096071,0.03398892
1761623581165,0.04731977,0.17683576,0.14380067,0.00066606,0.01588110,0.01705266,0.99628672,0.07829036,0.01104488,0.03407930
1761623581177,-0.11622395,-0.09881773,-0.02199041,0.01945257,0.01993104,0.00049385,0.99627620,0.07840610,0.01116347,0.03408224
1761623581189,-0.19175686,-0.17352853,0.47851868,0.00944377,0.03007262,0.00095726,0.99626995,0.07845898,0.01133188,0.03408760
1761623581199,-0.10688954,0.02520077,-0.09887922,0.02600067,0.02553537,-0.00561893,0.99625877,0.07859419,0.01146466,0.03405838
1761623581211,0.12781115,-0.13042077,-0.06543034,0.04262696,0.03873196,-0.00740336,0.99623684,0.07885634,0.01170286,0.03401285
1761623581221,0.20513855,0.48215742,-0.29843859,-0.00021750,0.02913340,-0.00718224,0.99623644,0.07885529,0.01184416,0.03397802
1761623581232,0.09553111,-0.02079148,0.02510089,0.00785417,0.03058906,-0.01276016,0.99623332,0.07889966,0.01201699,0.03390592
1761623581244,-0.07690734,-0.09999269,-0.01421635,0.02754919,0.02213323,0.01437861,0.99621551,0.07906634,0.01215089,0.03399291
1761623581255,-0.06652344,-0.45596882,0.07442744,0.02263841,0.03909515,-0.00029554,0.99620303,0.07919085,0.01236592,0.03399129
1761623581266,-0.05885518,-0.13877846,-0.03460773,-0.01608134,0.00598060,-0.03858163,0.99621612,0.07910723,0.01239701,0.03379066
1761623581277,0.15216210,-0.10625362,-0.04768075,-0.01699262,0.00769292,-0.01070151,0.99622532,0.07901037,0.01244086,0.03372966
1761623581289,0.05839684,0.03869752,-0.37889366,-0.00403507,0.00821038,-0.00853614,0.99622826,0.07898696,0.01248848,0.03368015
1761623581299,0.10119891,0.10966164,-0.07840516,-0.01177786,0.00172560,-0.01516847,0.99623566,0.07892572,0.01249746,0.03360128
1761623581311,-0.02583647,0.09335959,0.10307329,-0.00507784,-0.00241773,-0.00175533,0.99623852,0.07889627,0.01248343,0.03359110
1761623581322,0.00257327,-0.00515277,0.33895429,-0.00603952,-0.01071107,-0.00012010,0.99624187,0.07886335,0.01242506,0.03359044
1761623581333,0.03752107,0.02499236,0.05574094,-0.02443084,-0.02309182,-0.00241686,0.99625487,0.07872532,0.01229459,0.03357679
1761623581344,0.01852721,-0.17886477,0.03763472,-0.01000695,-0.02343075,-0.00256954,0.99626139,0.07866928,0.01216338,0.03356240
1761623581355,-0.10216038,0.12550284,0.44665470,-0.02979766,-0.02041902,-0.00431963,0.99627676,0.07850241,0.01204903,0.03353821
1761623581366,0.08190380,-0.08781366,0.00748041,-0.03581187,-0.01790017,-0.01445202,0.99629594,0.07830724,0.01195148,0.03345945
1761623581377,-0.02458234,0.02357898,-0.01906385,-0.02131629,-0.02176522,-0.01372855,0.99630899,0.07819106,0.01183286,0.03338462
1761623581388,0.07054552,0.01813716,-0.33626139,-0.01939570,-0.02833205,-0.02135171,0.99632351,0.07808148,0.01167278,0.03326399
1761623581400,0.08107556,0.14259866,0.05433887,-0.01143151,-0.01212131,-0.01267660,0.99633190,0.07801575,0.01160308,0.03319110
1761623581412,-0.01969802,0.02367040,-0.08165450,0.00079085,-0.02327718,-0.01000991,0.99633507,0.07802037,0.01146691,0.03313254
1761623581423,0.02501541,0.02145595,-0.03145579,0.00473214,-0.01325701,-0.01013992,0.99633571,0.07804616,0.01139466,0.03307728
1761623581433,-0.06297183,-0.02383092,-0.06524767,0.00398116,-0.03583522,-0.01269522,0.99633834,0.07806647,0.01121190,0.03301253
1761623581445,-0.06209759,-0.03666006,0.08869097,0.00038639,-0.02625046,-0.00631961,0.99634125,0.07806884,0.01105046,0.03297367
1761623581456,0.17742433,-0.06338560,0.05769037,0.00841288,-0.01833557,-0.01213818,0.99634095,0.07811385,0.01095236,0.03290873
1761623581467,-0.09732880,-0.06559186,0.03911448,0.00200360,-0.01498663,-0.02609446,0.99634580,0.07812507,0.01086844,0.03276260
1761623581477,-0.00192877,-0.08155715,-0.05258863,-0.00879944,-0.03582197,0.00045252,0.99635133,0.07807932,0.01068217,0.03276495
1761623581490,-0.03394679,0.13891431,-0.27262166,0.00383301,-0.01805068,-0.00497164,0.99635167,0.07810270,0.01057206,0.03273462
1761623581500,-0.00591436,0.18882822,0.03169961,-0.01577915,-0.00331437,-0.00416149,0.99635927,0.07801749,0.01055416,0.03271215
1761623581511,-0.08649981,-0.08237395,-0.02972465,0.01105758,-0.01251213,-0.00377570,0.99635588,0.07807886,0.01048472,0.03269120
1761623581522,-0.03778363,-0.21657290,0.41450036,0.00322373,0.00175428,0.00777150,0.99635315,0.07809562,0.01049384,0.03273161
1761623581533,-0.07966317,0.03144196,0.07478359,-0.01491996,0.01000039,-0.00658585,0.99636031,0.07801207,0.01054984,0.03269473
1761623581544,-0.12128876,-0.04765431,-0.08179693,-0.01726717,0.01461268,-0.01589304,0.99637001,0.07791451,0.01063240,0.03260493
1761623581555,0.05180976,-0.21599292,-0.25769058,-0.00996067,0.01470198,-0.00510068,0.99637442,0.07785873,0.01071473,0.03257637
1761623581596,-0.03875916,0.07475492,0.05401437,0.00062613,0.00520942,-0.00045234,0.99637260,0.07787135,0.01081970,0.03256725
1761623581623,0.04191530,0.00813431,-0.04649449,0.01874251,0.03013078,-0.00594821,0.99635092,0.07812437,0.01122647,0.03248695
1761623581634,0.91390867,0.56077780,-1.10577485,-0.01087040,0.00097817,0.01369078,0.99635312,0.07806350,0.01123195,0.03256362
1761623581656,-0.35905090,-0.31691260,0.56806572,-0.01709417,-0.01217011,0.00437076,0.99636783,0.07787461,0.01109747,0.03261192
1761623581667,0.03660165,-0.17412793,0.19814148,-0.03614598,-0.02137452,0.00334943,0.99638434,0.07767219,0.01097777,0.03263067
1761623581689,-0.10508010,0.15481169,-0.11559800,-0.00565596,-0.01266225,0.00539304,0.99638871,0.07761082,0.01084038,0.03268919
1761623581700,0.11004532,0.27747575,-0.30402714,0.01004607,-0.01295051,-0.01808253,0.99638843,0.07766658,0.01076851,0.03258883
1761623581711,0.01935059,0.01711318,0.00967529,0.04800559,0.00125548,-0.02918829,0.99637284,0.07793301,0.01077548,0.03242684
1761623581722,-0.16133552,-0.12283087,0.22833692,0.03326253,-0.00262205,-0.02601487,0.99636323,0.07811762,0.01076092,0.03228245
1761623581734,0.00051583,0.07145608,-0.05842384,0.06013512,0.01357516,-0.03941650,0.99634307,0.07845437,0.01083694,0.03206172
1761623581745,-0.04454319,0.00478826,-0.21372396,0.06022900,0.00718625,-0.01899070,0.99631922,0.07879467,0.01087755,0.03195442
1761623581756,0.22928266,-0.20724227,-0.29435655,0.01857041,0.02021773,-0.02763897,0.99631462,0.07890052,0.01099279,0.03179688
1761623581767,-0.09785031,-0.18110355,0.00133089,-0.04178336,-0.00386895,-0.01624924,0.99633588,0.07867071,0.01097151,0.03170751
1761623581778,-0.05836595,-0.25833617,0.14859773,-0.01057118,0.02069097,0.00064613,0.99633906,0.07861310,0.01108427,0.03171103
1761623581790,-0.38248548,-0.09677901,0.31160481,-0.03530518,0.01320928,0.00791008,0.99635265,0.07841186,0.01115957,0.03175612
1761623581801,-0.00547252,-0.01048157,0.08349841,-0.04666927,0.02488744,0.01745177,0.99636863,0.07814818,0.01130018,0.03185472
1761623581812,-0.16916683,-0.09471948,-0.20232694,-0.02798478,0.02556939,0.01925785,0.99637601,0.07798726,0.01144721,0.03196545
1761623581823,-0.10227385,-0.03554226,-0.14415920,-0.03989583,0.02942399,0.02157051,0.99638727,0.07777183,0.01160610,0.03208193
1761623581834,-0.06094617,-0.02206431,-0.03719249,-0.02197133,0.04903637,-0.01538158,0.99639591,0.07765538,0.01186599,0.03200041
1761623581845,0.07206812,0.07417442,0.14649414,-0.03413640,0.03907685,0.01310006,0.99640580,0.07746421,0.01208482,0.03207377
1761623581857,-0.03075348,0.05295431,0.07829785,-0.01795165,0.03845456,-0.00093120,0.99641138,0.07735920,0.01230978,0.03206833
1761623581867,-0.02575771,-0.00307548,0.04524942,-0.04575599,0.05461084,0.02841863,0.99642171,0.07711669,0.01259921,0.03221894
1761623581878,-0.25689843,-0.09407258,0.24149870,-0.04379526,0.05726200,0.00732901,0.99643534,0.07686925,0.01292275,0.03226035
1761623581890,-0.18964113,-0.10111360,0.29885750,-0.05171937,0.06671789,0.02565978,0.99644807,0.07657962,0.01329637,0.03240405
1761623581901,0.06010013,0.10656244,0.03973980,-0.02555026,0.05410986,0.01512472,0.99645235,0.07643143,0.01361020,0.03249177
1761623581913,0.28357602,0.14740674,-0.12695127,-0.00769741,0.05548717,0.01485952,0.99644861,0.07638794,0.01392370,0.03257573
1761623581924,0.28931636,0.18996912,-0.16586187,-0.00858685,0.05194101,0.02204904,0.99644415,0.07633985,0.01421457,0.03269920
1761623581934,-0.00112727,0.16107149,0.05884530,-0.03689498,0.04671917,0.02778823,0.99645070,0.07614431,0.01446219,0.03284648
1761623581946,0.11358656,0.22951958,-0.09491219,0.03099397,0.04470471,0.00921500,0.99643172,0.07632097,0.01471700,0.03289901
1761623581957,0.20731562,0.18984208,-0.13388360,0.04563756,0.04087512,0.00852793,0.99640757,0.07657198,0.01494182,0.03294591
1761623581968,0.01820644,-0.05734891,-0.00271820,0.00169492,0.01741424,-0.02735409,0.99641035,0.07658122,0.01503672,0.03279683
1761623581979,0.12178886,-0.22538607,0.01399811,0.00474807,0.00760845,-0.01826473,0.99641102,0.07660757,0.01507895,0.03269546
1761623581990,-0.00351237,-0.08383819,0.18493748,-0.01401548,0.00485810,-0.00819182,0.99641814,0.07652908,0.01510616,0.03264959
1761623582001,0.03259803,-0.02458178,-0.06280859,0.00085979,-0.00613786,-0.00189071,0.99641862,0.07653377,0.01507270,0.03263928
1761623582012,-0.06695524,0.28288664,0.05954589,0.00250377,0.01149497,0.00153498,0.99641633,0.07654754,0.01513593,0.03264772
1761623582023,-0.12022647,0.33638091,0.14066559,0.01943447,0.00266071,-0.00414939,0.99640843,0.07665734,0.01515096,0.03262428
1761623582035,-0.01119402,0.00105451,-0.09488538,0.02429683,-0.01460001,-0.00467226,0.99639990,0.07679583,0.01506774,0.03259765
1761623582046,0.12775206,-0.13383334,-0.09616732,0.01521715,-0.02182490,-0.00526083,0.99639616,0.07688029,0.01494661,0.03256845
1761623582057,0.12348569,-0.28679451,-0.24453980,0.02635823,-0.02407913,-0.01600184,0.99638988,0.07702394,0.01481538,0.03248124
1761623582068,-0.04965034,-0.04874088,0.00455112,0.04147762,-0.02489416,-0.03355002,0.99638006,0.07725622,0.01467597,0.03229336
1761623582079,-0.02423791,-0.08755871,-0.07406783,0.00144062,-0.01753325,-0.00526087,0.99638182,0.07726421,0.01457866,0.03226416
1761623582115,-0.01367784,0.00277201,0.09058575,0.00082333,-0.00034587,-0.00177116,0.99638179,0.07727916,0.01457239,0.03223202
1761623582124,0.16588441,-0.64979288,-2.08868113,-0.05125144,0.02345325,-0.01250936,0.99639972,0.07705109,0.01467675,0.03217635
1761623582135,-0.40059577,0.35945917,1.29416679,-0.01658880,0.01697998,-0.00040549,0.99640557,0.07695819,0.01477184,0.03217408
1761623582146,0.18324036,0.04264972,-0.49028537,-0.00558756,0.03536518,0.00075414,0.99640494,0.07692885,0.01495751,0.03217804
1761623582157,-0.01964676,-0.03007604,-0.04018221,-0.01391919,0.02480573,0.00592509,0.99640771,0.07685300,0.01509270,0.03221033
1761623582168,-0.05502101,-0.05521581,0.08250426,-0.02062402,0.01713034,-0.00070148,0.99641528,0.07673750,0.01518863,0.03220640
1761623582179,-0.06293908,-0.05047323,0.37072787,-0.03871301,0.01982005,0.00793819,0.99642870,0.07652264,0.01529863,0.03225046
1761623582191,-0.10570174,-0.13877269,-0.04616357,-0.02251456,0.02073789,0.01250234,0.99643451,0.07639206,0.01541891,0.03232297
1761623582202,-0.02111941,0.09237506,0.04850490,-0.02328372,0.01581212,0.01157491,0.99644137,0.07625468,0.01551220,0.03239126
1761623582213,0.00970926,-0.01163801,-0.01070531,-0.00242102,0.02991641,0.01386585,0.99643740,0.07624161,0.01567375,0.03246614
1761623582224,-0.03205608,-0.05411784,-0.03482303,-0.00985620,-0.00289748,0.03447368,0.99643565,0.07618888,0.01565825,0.03265057
1761623582235,-0.02105362,0.07713857,0.06959124,-0.01347203,0.00778843,0.00468713,0.99643991,0.07611276,0.01570225,0.03267706
1761623582247,0.13680665,0.13931899,0.10396905,-0.02538049,0.00394082,0.04111824,0.99644296,0.07596429,0.01572531,0.03291760
1761623582258,0.11644246,0.02101599,-0.06561620,0.01689433,0.01039562,0.03108359,0.99642980,0.07605383,0.01578040,0.03308234
1761623582268,0.02050737,0.16962653,0.09229026,-0.00863554,0.00844656,0.01886582,0.99642925,0.07600676,0.01582644,0.03318516
1761623582280,-0.05522906,-0.09865831,0.06253435,0.00318035,-0.00666556,0.02650464,0.99642358,0.07602442,0.01578944,0.03333226
1761623582290,-0.08014629,-0.04294630,0.35903550,-0.01881497,0.00305622,0.01127130,0.99642902,0.07592281,0.01580595,0.03339312
1761623582302,0.00302982,-0.08849527,-0.01782453,-0.00220952,-0.00379698,0.00998544,0.99642842,0.07591033,0.01578449,0.03344954
1761623582314,0.04403498,0.04967752,-0.05790500,0.00135228,0.00051533,-0.01724934,0.99643122,0.07591844,0.01578759,0.03334605
1761623582324,0.20377917,0.07685290,-0.32705812,0.01240196,-0.01018721,-0.00552245,0.99642805,0.07598417,0.01573359,0.03331678
1761623582335,0.08192967,0.15993334,0.08922573,0.02195026,0.01339299,0.00104828,0.99641747,0.07610490,0.01580726,0.03332254
1761623582346,-0.17327571,0.07022408,-0.07080556,0.02739066,-0.00238063,0.00761677,0.99640465,0.07625692,0.01579404,0.03336482
1761623582357,-0.19435304,0.06512601,-0.04480444,0.03247328,-0.00615872,-0.00111040,0.99639170,0.07643552,0.01576017,0.03335871
1761623582368,0.10779515,-0.09454893,0.06031110,0.04049162,-0.00166542,0.01732299,0.99637173,0.07665620,0.01575109,0.03345312
1761623582380,0.12351258,-0.09714587,0.04466885,0.02318170,0.00179303,-0.01044261,0.99636339,0.07678834,0.01576131,0.03339360
1761623582391,0.16933255,-0.07090614,0.08424231,-0.02368788,-0.01357696,0.00330240,0.99637466,0.07664976,0.01568189,0.03341291
1761623582402,0.07184320,-0.19497344,-0.05888098,-0.00939811,-0.01753609,-0.00622543,0.99638124,0.07659854,0.01558632,0.03337899
1761623582413,-0.01677643,0.10126659,-0.13134433,-0.02072382,-0.01712485,0.00176981,0.99639123,0.07648353,0.01549127,0.03338881
1761623582425,-0.18028207,-0.05717485,-0.14351663,0.01467807,-0.02152131,-0.01011757,0.99638863,0.07656719,0.01536860,0.03333114
1761623582435,0.00731594,0.13691217,-0.08801963,0.01745223,-0.01561006,-0.01172467,0.99638483,0.07666056,0.01528509,0.03326841
1761623582447,0.15889446,0.13268984,0.13022168,0.01831028,-0.00705668,-0.01225831,0.99637957,0.07676859,0.01524345,0.03319609
1761623582457,0.07350939,0.13112950,-0.08630295,0.02899696,-0.01741474,-0.01208131,0.99637149,0.07691793,0.01515377,0.03313387
1761623582469,0.02135006,-0.03735666,0.05102986,0.04224245,-0.00550648,-0.00522554,0.99635449,0.07715660,0.01512266,0.03310434
1761623582480,-0.20632198,-0.19897000,-0.03640976,-0.00401384,-0.01463549,-0.03180324,0.99636345,0.07713392,0.01503997,0.03292466
1761623582491,-0.07935461,-0.16212263,-0.01680450,-0.01419560,-0.01579225,-0.01255057,0.99637334,0.07705371,0.01495074,0.03285375
1761623582503,0.00055128,0.00241498,0.01256016,-0.01633891,-0.01712292,-0.00324579,0.99638301,0.07695650,0.01484886,0.03283443
1761623582514,0.03341343,0.06228302,-0.15327836,-0.00208189,-0.01956430,-0.01071153,0.99638735,0.07694525,0.01474321,0.03277659
1761623582558,-0.00282789,0.02828529,0.13977536,-0.00429053,-0.00286126,0.00127047,0.99639465,0.07685086,0.01468026,0.03280454
1761623582594,0.02821276,-0.03470746,-0.23579967,-0.02374502,-0.00244059,0.00382086,0.99642608,0.07642108,0.01463609,0.03287370
1761623582604,0.22723216,0.01705511,-2.00194835,-0.01022528,0.05631758,-0.00075758,0.99642595,0.07637251,0.01490360,0.03287010
1761623582624,-0.04575078,-0.04108629,1.03384877,0.00132754,0.03007338,0.00816936,0.99641744,0.07638618,0.01521335,0.03295424
1761623582648,0.03173291,-0.05032153,0.05504386,-0.01443036,0.02021377,0.00265184,0.99642567,0.07621807,0.01544884,0.03298514
1761623582659,0.05917415,0.11653566,-0.21475947,-0.03655433,0.02047280,-0.04274985,0.99644645,0.07602250,0.01555837,0.03275643
1761623582681,-0.08667074,0.07296634,0.21709731,0.01693287,0.00524224,-0.00201874,0.99643192,0.07621046,0.01561656,0.03273402
1761623582691,0.31404558,-0.10587696,-0.25749569,0.02168924,0.01345515,-0.02182409,0.99642568,0.07632758,0.01568922,0.03261617
1761623582703,-0.07899446,0.03622118,0.09554803,-0.00831070,-0.01626817,-0.05030275,0.99644036,0.07627938,0.01559487,0.03232441
1761623582714,0.09583609,-0.08127506,-0.08063214,-0.00315706,-0.00935929,-0.01083499,0.99644439,0.07626217,0.01554386,0.03226536
1761623582725,0.02003740,0.03472510,0.07818141,-0.01247820,-0.00608147,-0.01310723,0.99645286,0.07619042,0.01550889,0.03219000
1761623582736,-0.04547800,0.03982658,0.02223576,-0.03207004,-0.02393004,-0.00266610,0.99646855,0.07601724,0.01537967,0.03217560
1761623582748,-0.00588028,-0.00586002,-0.09880426,-0.00039994,-0.02648772,-0.00687184,0.99647228,0.07601498,0.01523001,0.03213677
1761623582758,0.12455480,0.24273991,-0.24637295,-0.00696983,-0.02691743,-0.01701296,0.99648024,0.07597769,0.01508600,0.03204575
1761623582760,15.69476851,4.17479986,-22.40061897,0.00097346,-0.14164123,-0.16223011,0.99648714,0.07597862,0.01495144,0.03189163
1761623582770,-2.92740370,-0.69890956,4.29203636,-0.01098494,-0.01431271,-0.00207639,0.99649273,0.07592369,0.01487988,0.03188125
1761623582781,-0.24388644,-0.25200511,0.28649638,0.01040478,-0.02082917,-0.02510384,0.99649448,0.07598092,0.01476532,0.03174318
1761623582792,0.09350375,0.00949924,0.03713195,0.00009161,-0.01672659,0.00211070,0.99649545,0.07598143,0.01467165,0.03175500
1761623582803,0.02178877,-0.02792896,-0.10480073,0.00836398,-0.00257834,-0.01120349,0.99649411,0.07602744,0.01465747,0.03169338
1761623582814,-0.04743931,-0.16381168,0.18501186,-0.00577437,-0.00622949,-0.00804488,0.99649829,0.07599683,0.01462445,0.03165074
1761623582825,-0.12015391,-0.04319354,0.16549315,-0.01544223,0.00267860,-0.01301851,0.99650689,0.07591113,0.01463932,0.03157849
1761623582836,-0.06102868,0.06619797,0.07457087,-0.01746657,0.01247765,-0.00371389,0.99651397,0.07581331,0.01470919,0.03155769
1761623582847,-0.05404126,0.16013663,-0.16619044,0.00217287,0.01410122,-0.01216626,0.99651403,0.07582537,0.01478746,0.03149017
1761623582859,-0.03544060,0.08086479,-0.04573557,0.00374734,0.01391973,-0.01273476,0.99651351,0.07584692,0.01486749,0.03141695
1761623582870,-0.01825322,-0.05108366,-0.05768918,0.02212451,0.01384082,-0.01091821,0.99650461,0.07597414,0.01494708,0.03135417
1761623582881,-0.08363933,0.28698518,0.06674279,0.00259448,0.01698754,-0.02491708,0.99650632,0.07598763,0.01503541,0.03122460
1761623582892,-0.05835387,-0.09739389,-0.11893735,0.01758330,0.00372910,-0.00524637,0.99649941,0.07608609,0.01505630,0.03119522
1761623582904,-0.04308614,0.05543356,0.03774671,0.01112497,0.00240558,-0.00782769,0.99649563,0.07615173,0.01507049,0.03114903
1761623582915,0.14348774,-0.10551234,0.12209109,0.00730799,0.00115907,0.00292855,0.99649182,0.07619339,0.01507710,0.03116573
1761623582926,0.02369474,-0.07319246,-0.01109353,0.00937277,-0.01382266,-0.00021488,0.99648916,0.07624306,0.01500384,0.03116459
1761623582937,-0.02402247,0.02422284,0.07237112,-0.00525653,-0.01783384,0.00223195,0.99649240,0.07621468,0.01490753,0.03117664
1761623582948,0.08724330,-0.07706893,-0.09545989,0.01008190,-0.02123856,0.01165421,0.99648756,0.07627416,0.01478223,0.03124540
1761623582959,0.10042110,0.11872061,-0.03838280,-0.00228299,-0.02711276,0.01727716,0.99648774,0.07626172,0.01463446,0.03133956
1761623582970,0.06011210,-0.01777736,0.00097515,0.00116116,-0.01704642,0.01222147,0.99648653,0.07626799,0.01454241,0.03140556
1761623582981,-0.21092028,-0.08239431,-0.00746184,0.00895205,-0.01939491,0.01494547,0.99648163,0.07631812,0.01443380,0.03148925
1761623582993,-0.12094379,0.03818203,0.06770954,0.00791814,-0.01542889,0.01697821,0.99647629,0.07636405,0.01434431,0.03158773
1761623583004,-0.10520415,0.07301553,-0.03713188,0.00177150,-0.01532389,0.01409973,0.99647429,0.07637379,0.01426003,0.03166527
1761623583016,-0.07941460,-0.03756725,-0.13577115,0.02539051,-0.00730223,-0.00337750,0.99646422,0.07652105,0.01421768,0.03164568
1761623583027,0.03676187,0.09591503,0.05383397,0.00867958,0.00038992,0.00882344,0.99645883,0.07657009,0.01421988,0.03169554
1761623583037,-0.10848309,0.04537288,-0.17145039,0.02550497,0.00401440,-0.01132482,0.99645054,0.07669762,0.01423995,0.03163891
1761623583048,-0.03904389,-0.04499787,0.05738483,0.00760615,-0.00221605,-0.00064048,0.99644750,0.07674097,0.01422732,0.03163526
1761623583059,-0.06008062,-0.06695631,-0.02453833,0.01333514,0.00855940,-0.00115286,0.99644143,0.07681365,0.01427397,0.03162898
1761623583071,0.00400055,-0.06119563,-0.04027578,0.01635462,0.01024981,-0.00160233,0.99643335,0.07691096,0.01433496,0.03161945
1761623583081,-0.13520563,0.02416147,0.05444479,0.00059334,-0.00022482,0.01670225,0.99643034,0.07691407,0.01433378,0.03170713
1761623583120,0.08784774,-0.01092587,0.13143996,0.00073019,0.00127672,0.00393571,0.99642651,0.07692806,0.01435823,0.03178250
1761623583138,-0.42417517,-0.12022275,-0.69858987,-0.00612712,-0.00803306,0.02495058,0.99642461,0.07687261,0.01428553,0.03200830
1761623583148,0.11909131,-0.31612543,0.06414102,-0.04384222,-0.00995933,0.03869470,0.99643654,0.07664244,0.01423324,0.03221145
1761623583160,0.47212434,0.85973991,-0.20570848,-0.05169032,-0.00043962,0.05872415,0.99644821,0.07635039,0.01423076,0.03254324
1761623583171,-0.01387612,-0.06503975,0.19703164,0.02296885,0.01570212,0.01918387,0.99643397,0.07647557,0.01431633,0.03264779
1761623583182,-0.17583058,-0.28892764,0.29522242,-0.02850985,0.00308664,0.01188513,0.99644413,0.07631021,0.01433424,0.03271673
1761623583193,-0.10815894,-0.07848678,-0.00547989,-0.00073158,0.00086538,0.00526980,0.99644341,0.07630615,0.01433904,0.03274598
1761623583204,0.00322491,0.03499236,-0.06474682,0.00852072,0.01363679,0.00807873,0.99643739,0.07635216,0.01441268,0.03278960
1761623583215,-0.06002033,-0.12515362,0.19147373,0.00655027,0.01751318,0.00122828,0.99643292,0.07638884,0.01451075,0.03279648
1761623583227,-0.02338985,-0.00036633,0.00202496,-0.01975437,0.02021395,-0.00434136,0.99644082,0.07627427,0.01462799,0.03277130
1761623583238,-0.15789519,-0.15844456,-0.18217761,-0.02967828,0.00694968,-0.00441451,0.99645319,0.07611549,0.01466517,0.03274768
1761623583249,0.21958467,-0.03148959,0.06459050,-0.04103766,0.00946463,0.01189660,0.99646748,0.07588978,0.01471723,0.03281311
1761623583260,0.07807716,-0.00643459,-0.03940803,-0.02675514,0.02050123,0.02610980,0.99647227,0.07574263,0.01482998,0.03295672
1761623583271,-0.00817782,0.04460503,0.02414425,-0.03394985,0.01263698,0.01541635,0.99648269,0.07555421,0.01490012,0.03304228
1761623583282,0.18020510,-0.04062737,-0.06963087,-0.02905448,0.00473081,0.03400663,0.99648829,0.07539150,0.01492661,0.03323271
1761623583293,-0.07027781,0.04836316,-0.08142452,-0.01771667,-0.00689893,-0.01903073,0.99649960,0.07529494,0.01488901,0.03312900
1761623583304,0.05743709,0.04410621,0.09965497,-0.02002333,0.01514355,0.00799388,0.99650541,0.07518081,0.01497533,0.03317456
1761623583315,-0.17156851,0.04224351,0.02971089,-0.00452167,0.00769252,-0.00183827,0.99650703,0.07515526,0.01501879,0.03316418
1761623583327,0.00747621,0.02531757,0.10997580,-0.00880675,0.01694209,0.00191920,0.99650899,0.07510507,0.01511536,0.03317512
1761623583338,-0.01410393,-0.10111892,-0.04272660,-0.01022157,0.00740855,0.00990888,0.99651079,0.07504885,0.01515611,0.03322961
1761623583348,-0.01388409,0.07679199,0.04992292,-0.03371144,0.01683728,0.01705439,0.99651985,0.07487018,0.01524535,0.03332000
1761623583360,0.03293976,0.14504114,0.12230934,-0.02937121,0.01574088,0.01002674,0.99652913,0.07470276,0.01533507,0.03337715
1761623583371,-0.01164525,0.07672548,-0.04186239,0.00445000,0.01214376,-0.00197713,0.99652662,0.07472724,0.01540186,0.03336628
1761623583382,0.04446192,-0.11105746,0.01776355,0.00711779,0.01031434,0.00555211,0.99652166,0.07476745,0.01546014,0.03339765
1761623583393,0.01097461,0.12646620,0.01095106,-0.00277455,0.00877161,0.01026246,0.99652014,0.07475205,0.01550882,0.03345461
1761623583405,0.08325937,0.06961829,0.11097326,0.00425888,0.02161463,0.00619478,0.99651508,0.07477697,0.01563527,0.03349085
1761623583416,0.05436400,-0.08418215,-0.09080321,0.03286931,0.02562404,0.01089012,0.99649759,0.07495446,0.01577364,0.03354965
1761623583428,0.06734422,-0.09088291,0.14065087,0.02018636,0.02325623,-0.00148821,0.99648637,0.07507760,0.01591550,0.03354057
1761623583438,-0.02658407,0.28906655,-0.01064759,-0.04545280,0.01598419,-0.01289014,0.99650417,0.07485261,0.01599462,0.03347677
1761623583449,0.03440384,-0.18992784,-0.00990646,0.04589217,0.01027798,-0.00916987,0.99648563,0.07510960,0.01605218,0.03342542
1761623583460,0.06976175,-0.00527699,-0.02193999,0.00315780,-0.00852276,0.01784481,0.99648189,0.07512650,0.01600658,0.03352089
1761623583471,0.10590531,-0.06460706,0.22560952,-0.02796685,-0.01686371,0.01183125,0.99649326,0.07496569,0.01590961,0.03358892
1761623583483,0.07682987,-0.05591265,-0.02191080,-0.00850192,-0.02734535,0.01729838,0.99649603,0.07491765,0.01575511,0.03368665
1761623583494,0.03072120,0.05760091,-0.11405715,0.01220017,-0.03948287,0.02798667,0.99648911,0.07498536,0.01553598,0.03384198
1761623583505,0.03188776,-0.01893665,-0.07658021,0.03604945,-0.04369626,0.01549347,0.99647448,0.07519084,0.01528691,0.03393029
1761623583516,-0.02525225,-0.05225723,-0.14181705,0.02197908,-0.03940852,0.02226092,0.99646447,0.07531173,0.01507017,0.03405273
1761623583527,0.04588362,-0.02366806,0.06280812,0.00706864,-0.02829576,0.00798804,0.99646233,0.07535131,0.01491171,0.03409746
1761623583539,0.02504981,-0.01429213,0.10165164,0.00427449,-0.03700438,0.02149418,0.99645932,0.07537653,0.01469339,0.03422428
1761623583549,0.04581981,0.07611147,0.03685385,-0.00668381,-0.03639948,0.00025011,0.99646447,0.07534311,0.01451139,0.03422553
1761623583560,0.15183103,0.07646604,0.06658318,-0.02054619,-0.00382850,0.00045172,0.99647347,0.07522703,0.01448976,0.03422808
1761623583572,-0.05107316,0.09413092,0.00762102,-0.00343829,-0.03091040,0.00528570,0.99647659,0.07520657,0.01430584,0.03425953
1761623583584,0.12318224,-0.01502413,-0.00787015,0.02194865,-0.00761921,0.00254610,0.99646718,0.07533277,0.01426203,0.03427417
1761623583594,-0.19094877,0.01547411,-0.07253867,0.02944161,-0.04152444,-0.02135703,0.99646243,0.07548734,0.01404403,0.03416204
1761623583631,-0.04943087,-0.01904050,0.11346262,0.00363689,-0.00486819,0.00063077,0.99645821,0.07555444,0.01395421,0.03417368
1761623583650,0.56736251,-0.33443744,-0.51826252,0.00953457,-0.06760063,0.00416603,0.99645876,0.07564264,0.01332890,0.03421222
1761623583652,22.10311763,-2.84397201,-13.46010946,-0.09857663,-0.49549819,-0.11781398,0.99647588,0.07554899,0.01285818,0.03410029
1761623583672,-2.37182746,0.48941684,1.62494522,-0.01371188,-0.01567620,0.00246645,0.99648761,0.07540982,0.01269907,0.03412533
1761623583683,0.04454452,-0.02904842,-0.33341233,-0.04749222,-0.05263748,-0.00037316,0.99651085,0.07515098,0.01241219,0.03412329
1761623583694,-0.14030063,0.02685144,0.10257586,-0.05757389,-0.03664114,-0.02353326,0.99654187,0.07483145,0.01220883,0.03399269
1761623583705,-0.01112659,0.07923158,-0.01935059,-0.00099260,-0.02139752,-0.00171388,0.99654405,0.07482594,0.01209008,0.03398317
1761623583716,0.11833555,-0.18332858,0.18515169,0.00752472,-0.01501418,0.00289419,0.99654143,0.07486695,0.01200825,0.03399895
1761623583728,-0.04784641,0.12363530,0.05009641,-0.03787377,-0.02317674,-0.01928571,0.99656464,0.07463402,0.01186571,0.03388034
1761623583739,0.02621462,0.06141466,-0.03476659,-0.00528035,-0.01760592,-0.01382791,0.99657039,0.07460577,0.01177152,0.03380636
1761623583750,0.02349224,0.11225802,-0.11872477,0.02369401,-0.01526261,-0.01134548,0.99656379,0.07473491,0.01168834,0.03374453
1761623583760,0.04010369,0.05515108,0.01578069,0.00050302,-0.01281078,-0.01502150,0.99656711,0.07473760,0.01161980,0.03366416
1761623583772,-0.09810361,-0.01982245,0.03665678,-0.03035969,-0.01436010,-0.00968861,0.99658288,0.07456455,0.01153795,0.03360894
1761623583783,-0.11455983,-0.21581946,-0.02238307,0.01580309,-0.01310934,-0.00724886,0.99657855,0.07465147,0.01146585,0.03356907
1761623583794,-0.11235807,-0.03202234,0.05370239,-0.00994921,-0.01238487,-0.00882737,0.99658530,0.07459475,0.01139525,0.03351875
1761623583805,-0.01908961,-0.08218111,-0.05889198,-0.00140995,-0.00164087,0.00066434,0.99658587,0.07458693,0.01138615,0.03352244
1761623583817,0.28215240,0.10090024,0.10427742,-0.00658118,0.00695207,0.00230182,0.99658780,0.07454909,0.01142612,0.03353567
1761623583828,0.02890279,-0.07106630,-0.01657707,0.00882042,0.01518954,0.00953152,0.99658144,0.07459760,0.01150966,0.03358810
1761623583839,-0.13016486,-0.03140001,0.05667418,-0.02100167,0.00687631,-0.00209370,0.99659019,0.07447999,0.01154817,0.03357637
1761623583850,-0.38065962,-0.24760613,0.02949279,-0.02478991,0.02771148,0.00039384,0.99659836,0.07434613,0.01169781,0.03357850
1761623583861,-0.09481708,-0.01294402,0.03602941,-0.05925011,0.03802777,0.00972589,0.99661888,0.07401136,0.01191267,0.03363345
1761623583872,-0.01105167,0.08710841,0.06835209,-0.04319371,0.03756735,0.00003933,0.99663414,0.07377164,0.01212117,0.03363367
1761623583883,0.06380766,-0.06542918,-0.04151642,0.00495316,0.03901154,-0.00415719,0.99663033,0.07379838,0.01233183,0.03361122
1761623583894,0.13407529,0.10262114,0.02614239,-0.03456924,0.01768709,0.00957607,0.99664180,0.07360134,0.01243265,0.03366580
1761623583906,0.11397719,0.11015938,0.15433258,-0.04429896,0.03197317,0.01804859,0.99665521,0.07333776,0.01262289,0.03377319
1761623583917,-0.13156431,-0.04309053,-0.10679066,0.01036801,0.00069036,-0.00584426,0.99665220,0.07339219,0.01262651,0.03374251
1761623583928,-0.06205786,0.02084258,-0.02682318,0.02638413,0.02316496,-0.00894781,0.99664164,0.07353599,0.01275276,0.03369375
1761623583940,0.00961846,0.08414774,0.06771232,-0.00925763,0.01385630,0.02702501,0.99663903,0.07347720,0.01284075,0.03386535
1761623583951,0.04207096,-0.26385055,-0.00131831,0.01279041,0.02581500,-0.00558504,0.99663343,0.07354307,0.01297370,0.03383659
1761623583961,0.00329361,-0.10870945,0.08360970,0.00935916,0.01828793,-0.00936334,0.99663018,0.07359267,0.01307062,0.03378697
1761623583973,0.00977225,-0.06705956,0.02105069,0.00518252,0.00306877,-0.01108057,0.99662991,0.07362170,0.01308781,0.03372491
1761623583983,0.12768661,0.26432438,0.19366654,-0.02735904,0.00659997,-0.01518879,0.99664324,0.07347259,0.01312378,0.03364214
1761623583996,-0.03900301,0.14383303,0.02740560,-0.02129594,-0.00084955,-0.00923775,0.99665497,0.07334055,0.01311851,0.03358486
1761623584007,0.09041401,0.01707556,0.15693034,-0.02264853,-0.00361565,0.00282070,0.99666362,0.07321938,0.01309917,0.03359995
1761623584017,-0.03540148,0.20219193,0.16659522,-0.01079123,0.00253725,0.00610264,0.99666658,0.07316165,0.01311274,0.03363260
1761623584028,-0.01576501,0.05588004,-0.03198851,0.00626526,-0.00358113,-0.00182131,0.99666468,0.07319548,0.01309340,0.03362277
1761623584039,-0.02435658,-0.00658741,0.01041842,0.02412701,-0.01283671,0.00118099,0.99665547,0.07333060,0.01302152,0.03362938
1761623584051,0.13867800,-0.16634221,-0.04024604,0.01717877,-0.00838784,-0.00712428,0.99665016,0.07343023,0.01297287,0.03358806
1761623584062,-0.01184163,-0.04183702,0.10562101,0.00435411,-0.02090797,-0.01805861,0.99665315,0.07345353,0.01286101,0.03349145
1761623584073,-0.03900547,-0.02254343,-0.03172439,0.00424124,-0.02742259,-0.00709103,0.99665471,0.07347749,0.01270607,0.03345138
1761623584084,-0.23379961,-0.08862285,-0.07573272,0.00787497,-0.01024183,-0.00631412,0.99665339,0.07352120,0.01264923,0.03341634
1761623584096,-0.06755558,0.05210502,0.02166723,0.00094736,-0.00694901,-0.00118296,0.99665373,0.07352683,0.01260788,0.03340930
1761623584107,-0.01731445,-0.12317150,-0.03338150,0.01797800,-0.00116484,0.00441512,0.99664548,0.07362841,0.01260130,0.03343424
1761623584118,0.22348083,0.23505272,0.16398644,0.00612798,0.00049591,0.00688308,0.99664162,0.07366273,0.01260408,0.03347279
1761623584129,-0.02001596,-0.05139053,0.06809755,0.03097198,0.00389731,-0.00090244,0.99662960,0.07382378,0.01262435,0.03346810
1761623584167,-0.04542826,0.02579027,-0.14979898,0.00630867,0.00178819,0.00139979,0.99661947,0.07394270,0.01265805,0.03349448
1761623584184,0.17970871,0.26912957,0.35847636,0.01394252,0.01786836,0.01474087,0.99660354,0.07406888,0.01281976,0.03362789
1761623584186,7.72424116,-11.18173413,28.87660259,-0.04437858,0.01267669,-0.11450207,0.99660983,0.07402894,0.01283117,0.03352484
1761623584207,-0.74174701,0.60133905,-2.61679641,-0.01749412,-0.00458460,-0.00932946,0.99662670,0.07385225,0.01278487,0.03343061
1761623584218,-0.04408175,0.59682240,0.40352434,-0.05336976,-0.01406661,-0.02378542,0.99665304,0.07356672,0.01270961,0.03330336
1761623584229,-0.08211933,0.27791744,-0.34420031,0.05656522,0.00279828,0.00558981,0.99662748,0.07389480,0.01272584,0.03333578
1761623584241,0.00166744,-0.13404252,-0.10779311,0.05018658,-0.00832080,0.01211706,0.99660291,0.07420093,0.01267508,0.03340969
1761623584251,0.11243453,-0.41744440,0.25056896,0.00644886,-0.01840801,-0.00179636,0.99660199,0.07423253,0.01258488,0.03340089
1761623584262,-0.01646843,-0.16157083,-0.04290903,-0.01261664,-0.00706863,-0.00385169,0.99660830,0.07416377,0.01254636,0.03337990
1761623584273,0.02238805,-0.09238146,0.01715129,-0.01860077,-0.00877391,0.01260174,0.99661446,0.07405682,0.01249591,0.03345236
1761623584284,-0.28167343,0.42124063,-0.07509253,-0.01967430,-0.01819568,0.01159395,0.99662173,0.07394664,0.01239401,0.03351728
1761623584296,0.03908131,0.03819253,-0.04757109,0.00160957,-0.00936568,0.00429861,0.99662090,0.07395574,0.01234110,0.03354157
1761623584308,-0.05728805,0.05950922,-0.07326017,0.01510797,-0.00874897,0.00278253,0.99661431,0.07404563,0.01228904,0.03355813
1761623584317,0.13613551,-0.22004056,0.23364635,0.03136748,0.00080977,-0.00614344,0.99660384,0.07419933,0.01229301,0.03352802
1761623584329,0.04011747,-0.03915441,-0.09476139,0.02357892,0.01135490,-0.00115129,0.99659343,0.07433137,0.01235660,0.03352158
1761623584340,-0.02827229,0.01722472,0.01330461,0.01605643,0.00522546,0.00533867,0.99658535,0.07442129,0.01238586,0.03355147
1761623584351,-0.22938436,0.11264185,-0.21389309,0.00713382,0.00791368,0.00241246,0.99658140,0.07446088,0.01242978,0.03356486
1761623584362,0.00740979,-0.00782297,0.05986710,-0.00371616,0.00518660,-0.00132802,0.99658285,0.07443988,0.01245908,0.03355736
1761623584374,0.04712620,-0.06650201,-0.04032108,-0.00585941,0.01036234,-0.00202148,0.99658503,0.07440590,0.01251919,0.03354564
1761623584384,0.22264579,-0.14273492,0.29507449,-0.01291709,-0.00138899,0.00097163,0.99659006,0.07433744,0.01251182,0.03355078
1761623584396,0.04396438,-0.02155655,-0.16500598,0.01015596,-0.00096766,-0.00055504,0.99658591,0.07439533,0.01250631,0.03354762
1761623584408,-0.03118328,0.03443352,-0.05066888,0.01440897,-0.00576381,-0.00485263,0.99658079,0.07448322,0.01247115,0.03351802
1761623584418,-0.04999374,0.24329622,0.49248036,-0.00772802,-0.01073954,0.00919000,0.99658282,0.07444420,0.01241691,0.03356443
1761623584429,0.02440940,-0.00706464,0.02928818,-0.00605663,-0.00727356,-0.00806825,0.99658717,0.07441179,0.01237800,0.03352126
1761623584440,-0.11289532,-0.01671593,-0.10419940,-0.00243000,-0.01141696,-0.00970735,0.99659091,0.07439782,0.01231235,0.03346545
1761623584452,0.13881982,-0.22339894,-0.27714444,0.00995053,-0.00133802,0.00212296,0.99658640,0.07445404,0.01230479,0.03347744
1761623584463,-0.00697188,0.01548937,-0.00052983,0.00993581,-0.00088277,0.00131978,0.99658205,0.07450968,0.01229985,0.03348483
1761623584474,-0.08468228,0.04716954,0.11114549,0.00304802,-0.00305385,-0.00592106,0.99658210,0.07452614,0.01228336,0.03345286
1761623584485,-0.26214067,-0.04657069,-0.04246565,-0.01052654,0.00045565,0.00419183,0.99658578,0.07446561,0.01228598,0.03347696
1761623584496,0.07734897,-0.06448112,0.04056457,0.00150953,0.00572381,0.01342073,0.99658229,0.07447392,0.01231746,0.03355078
1761623584507,-0.07415591,0.08282821,-0.00552919,0.00078782,-0.01350115,-0.01191685,0.99658514,0.07447833,0.01224185,0.03348404
1761623584519,0.34288932,0.13659213,0.01419158,0.00633112,0.00224397,-0.01319408,0.99658479,0.07451631,0.01225532,0.03340488
1761623584530,-0.07204233,0.03394082,0.11458025,0.02728369,-0.00127068,-0.00458644,0.99657524,0.07465546,0.01224884,0.03338149
1761623584541,0.06178671,-0.05490996,-0.01192338,0.02204685,0.00235093,0.00455217,0.99656506,0.07477782,0.01226189,0.03340675
1761623584552,-0.05100411,-0.11735233,0.07720956,-0.00331197,-0.01552461,-0.00366088,0.99656815,0.07475961,0.01217650,0.03338662
1761623584563,0.07788476,0.08107941,0.07265181,-0.02837435,0.00750698,-0.00030236,0.99658011,0.07459362,0.01222042,0.03338485
1761623584575,0.06568440,0.31527589,-0.16633197,0.04038405,-0.00386378,-0.00793055,0.99656490,0.07481977,0.01219878,0.03334044
1761623584586,-0.00384099,0.30993642,0.19836083,0.03156408,0.00888549,-0.01266419,0.99655369,0.07499179,0.01224720,0.03327142
1761623584597,0.01249960,-0.33461714,-0.14356966,0.02536608,-0.00410477,0.00756616,0.99654154,0.07513765,0.01222360,0.03331492
1761623584608,-0.13226814,-0.13048000,0.24388243,0.00202927,-0.01113724,-0.00271278,0.99654194,0.07514860,0.01216346,0.03330027
1761623584619,-0.05839995,0.17106177,-0.16623094,0.03075215,-0.01113706,-0.01241980,0.99653184,0.07532389,0.01209998,0.03322948
1761623584630,0.02917865,0.13788725,-0.03788641,0.04731420,0.00956773,-0.00607741,0.99651243,0.07558648,0.01215308,0.03319575
1761623584641,-0.09375284,-0.04601955,0.13500926,-0.01529169,-0.01462596,0.00598080,0.99651835,0.07550697,0.01207703,0.03322685
1761623584693,0.00790418,-0.10032944,-0.17546150,-0.00410192,-0.00209790,0.00345222,0.99652413,0.07539950,0.01202206,0.03331730
1761623584720,-0.06270571,0.15168304,0.74723304,0.07042150,0.01571736,0.00717842,0.99644562,0.07635371,0.01223503,0.03341457
1761623584752,0.02934762,-0.06019521,-0.47725900,0.01935675,-0.00182853,-0.01730155,0.99643145,0.07666342,0.01220577,0.03313774
1761623584779,0.03326839,0.01607012,0.19157736,-0.01157103,-0.01077582,-0.00073117,0.99644571,0.07650547,0.01205868,0.03312776
1761623584799,-0.09694532,0.00708989,0.30043917,0.03251920,-0.01093806,-0.00391184,0.99642398,0.07682091,0.01195259,0.03308982
1761623584819,-0.00891660,-0.24819415,-0.33074375,0.01036281,-0.02018289,0.01339038,0.99641388,0.07692505,0.01174975,0.03322439
1761623584841,0.01832259,-0.07560876,-0.15084793,0.01143376,-0.01062016,0.01013151,0.99640170,0.07705197,0.01163186,0.03333685
1761623584853,-0.13285636,0.32810314,0.38336675,0.01000111,-0.00479731,0.01372155,0.99639475,0.07711098,0.01160356,0.03341781
1761623584875,0.04490908,-0.02282510,-0.31795684,0.00991061,0.00590086,-0.00362099,0.99638689,0.07721999,0.01166847,0.03337798
1761623584886,-0.28677240,-0.12950593,0.51580308,0.01698234,0.00487566,0.00465645,0.99637840,0.07731424,0.01169553,0.03340382
1761623584898,-0.05873066,-0.09666684,0.04258475,-0.01108571,0.00234620,0.00914584,0.99638142,0.07725050,0.01170902,0.03345641
1761623584909,-0.01608447,0.00557120,-0.02364482,-0.01456107,0.01739394,-0.00939049,0.99638823,0.07717042,0.01180469,0.03340476
1761623584920,0.22747934,0.12923361,-0.21516093,0.00455337,0.01527949,0.01833648,0.99638184,0.07719569,0.01188949,0.03350653
1761623584931,0.03290041,0.07150706,-0.01190950,0.00156129,0.01499627,-0.00110705,0.99638036,0.07720451,0.01197422,0.03350027
1761623584942,-0.03472653,0.02938524,0.02664786,-0.00238578,0.00968172,-0.02660493,0.99638550,0.07719174,0.01202601,0.03335794
1761623584953,-0.08923517,-0.11057820,0.21140229,-0.00200586,0.01497302,-0.01723747,0.99638863,0.07718031,0.01211136,0.03325968
1761623584955,-14.85258518,-6.82810455,41.78729561,-0.03910961,0.02078379,0.02986931,0.99639014,0.07714707,0.01212903,0.03328507
1761623584965,2.56271716,1.11658884,-6.99011474,-0.00970977,0.00677704,-0.00170057,0.99639370,0.07709949,0.01216223,0.03327674
1761623584975,0.08972555,0.07248688,-0.24282087,-0.00803603,0.00771359,-0.00026509,0.99639652,0.07705730,0.01220273,0.03327535
1761623584986,0.05641268,0.06214532,-0.11937298,0.00139157,-0.00998350,0.01696626,0.99639359,0.07706468,0.01214982,0.03336527
1761623584997,0.09196765,0.10351569,0.19643575,-0.00401850,-0.00344154,0.00934408,0.99639381,0.07704157,0.01213003,0.03341900
1761623585008,0.00988549,0.05044892,-0.01041230,0.01444335,-0.01907517,-0.00203966,0.99638923,0.07712245,0.01202321,0.03340757
1761623585020,0.26975711,-0.12874444,0.02733270,0.02463686,-0.02541483,0.01375751,0.99637777,0.07725919,0.01188215,0.03348393
1761623585032,0.02546807,0.04439916,-0.08390087,0.01408725,-0.01876963,-0.00963206,0.99637446,0.07734442,0.01176860,0.03342565
1761623585042,0.03099247,0.10374322,0.26352480,0.00549194,-0.02330989,-0.00774153,0.99637502,0.07737297,0.01164739,0.03338540
1761623585053,-0.37098973,-0.01867078,-0.26223729,0.03871117,-0.02777884,-0.02053419,0.99636431,0.07758008,0.01149877,0.03327554
1761623585064,0.01157077,0.03975084,-0.03400439,0.01018595,0.00248976,0.00111716,0.99635933,0.07763916,0.01151321,0.03328202
1761623585075,-0.07556777,0.04195829,0.01592403,0.01856821,-0.00433407,-0.00299708,0.99635226,0.07774035,0.01148959,0.03326569
1761623585086,0.18856623,0.30493128,-0.18839186,0.01421276,0.00746247,-0.00702574,0.99634687,0.07781994,0.01153138,0.03322634
1761623585098,-0.09212080,0.01928252,-0.10116252,0.01918223,0.00388153,-0.00921378,0.99633982,0.07792928,0.01155350,0.03317382
1761623585108,-0.01423001,-0.01084661,0.05281909,0.04424691,0.03436705,-0.01035552,0.99632097,0.07816600,0.01173737,0.03311842
1761623585120,-0.18576787,-0.24416565,0.16067235,0.03214188,0.02024748,-0.00723423,0.99630671,0.07834761,0.01185177,0.03307755
1761623585131,0.00490131,-0.04329494,0.00280075,0.01215525,0.00015208,-0.00328239,0.99630191,0.07841628,0.01185263,0.03305900
1761623585142,0.07928250,-0.04003958,-0.10827618,0.01138548,-0.00356939,-0.00661627,0.99629842,0.07847890,0.01183299,0.03302261
1761623585153,0.07864037,0.02385302,-0.41862247,0.03255376,0.00088048,-0.02410322,0.99628881,0.07865469,0.01183775,0.03289246
1761623585165,0.05079900,-0.09169106,-0.12902946,0.01739275,-0.01127212,0.00795256,0.99628002,0.07875644,0.01177181,0.03293898
1761623585175,-0.10864382,-0.03383756,0.29712342,0.00762107,-0.01257736,-0.01093133,0.99627951,0.07879798,0.01170326,0.03287940
1761623585187,-0.05269923,-0.18756732,0.22859547,0.00187414,-0.02487567,0.00135276,0.99628006,0.07880866,0.01156147,0.03288711
1761623585198,0.03730698,-0.02991407,0.16326616,-0.03546055,-0.01734138,0.00087088,0.99629627,0.07861540,0.01146696,0.03289186
1761623585209,0.01652693,-0.00189944,-0.17957578,-0.00910573,-0.01408329,-0.00336592,0.99630197,0.07856304,0.01138598,0.03287250
1761623585220,0.08547946,0.08390768,-0.17265527,-0.00392115,-0.01718532,-0.00307042,0.99630512,0.07854265,0.01129662,0.03285654
1761623585231,0.02899797,0.08964648,-0.03539855,-0.00909084,-0.01216810,0.00102381,0.99630967,0.07849220,0.01122908,0.03286222
1761623585242,-0.12895408,-0.02448278,0.03436664,-0.00626562,-0.00782839,-0.01123835,0.99631514,0.07845617,0.01118407,0.03279760
1761623585280,0.04688670,0.00175670,-0.13324362,-0.00778926,-0.00113424,0.00056296,0.99632668,0.07830817,0.01116252,0.03280830
1761623585289,-2.45371520,0.33311970,3.29327794,0.03126820,0.00129694,-0.02572975,0.99631927,0.07845044,0.01116842,0.03269123
1761623585299,1.65613977,-0.55061262,-2.33775618,-0.01595324,0.01807265,0.00532392,0.99632352,0.07837307,0.01125607,0.03271705
1761623585310,0.02821306,-0.04342073,-0.10338753,-0.02175797,0.00197789,0.01260193,0.99633046,0.07825449,0.01126685,0.03278573
1761623585321,-0.00071741,0.07932708,-0.04827064,-0.01363477,-0.00121089,0.01398076,0.99633402,0.07817677,0.01125995,0.03286542
1761623585332,0.01253981,0.02947317,-0.08697553,0.01000067,0.00455843,0.01526365,0.99632671,0.07823127,0.01128479,0.03294861
1761623585343,-0.01199662,-0.03704533,0.03119607,0.01299514,-0.00136673,0.01387152,0.99631895,0.07830015,0.01127755,0.03302212
1761623585354,0.16618399,0.00844900,0.08103558,0.00673722,0.01087068,0.00460590,0.99631456,0.07833687,0.01133680,0.03304723
1761623585364,-0.17028725,-0.06425295,0.11867043,0.00251405,0.01290032,0.01436525,0.99631016,0.07835032,0.01140581,0.03312408
1761623585377,0.03745996,0.04427739,-0.10353606,-0.01790766,0.01648771,0.03382101,0.99631071,0.07824108,0.01150639,0.03333039
1761623585387,-0.34224682,0.01934082,-0.02551222,-0.00603365,0.03582080,0.03717476,0.99630451,0.07820971,0.01169266,0.03352370
1761623585399,0.11038213,-0.03928924,-0.18801932,0.03501243,0.02319537,0.00621281,0.99628575,0.07841278,0.01182719,0.03355973
1761623585410,-0.14077973,0.15517709,-0.00393560,-0.01332597,0.03476675,0.01498127,0.99628644,0.07834015,0.01201667,0.03364138
1761623585421,-0.20295481,0.11923190,-0.18267664,0.00434341,0.02974079,0.00179788,0.99628221,0.07836426,0.01218173,0.03365136
1761623585431,-0.00237089,0.04684421,-0.03976335,0.03452131,0.04059673,-0.01555120,0.99626779,0.07854895,0.01239892,0.03356816
1761623585444,0.23161745,-0.10294996,0.00982363,0.01990117,0.02377481,-0.00270512,0.99625686,0.07867134,0.01254514,0.03355152
1761623585454,0.21347977,-0.09134592,0.32579800,-0.04156304,0.02379840,-0.01935865,0.99627554,0.07845729,0.01266770,0.03345183
1761623585465,0.09080216,0.05566317,0.00667877,-0.03052016,0.00724776,-0.01780740,0.99629167,0.07828790,0.01270792,0.03335299
1761623585476,0.05103096,0.03116528,-0.10484442,0.00926830,0.00688768,-0.00901507,0.99628879,0.07833980,0.01274649,0.03330251
1761623585488,0.21855036,-0.20539913,0.15587088,-0.00110779,0.01233969,0.01888592,0.99628456,0.07833316,0.01282053,0.03341583
1761623585499,-0.02217456,-0.05124504,0.04467567,0.00557208,0.00367102,0.00169197,0.99628155,0.07836408,0.01284091,0.03342522
1761623585510,0.09376101,-0.04898271,0.05476839,0.00897215,-0.00522270,0.01634441,0.99627526,0.07841163,0.01281323,0.03351184
1761623585521,-0.11596389,0.26434621,-0.19107396,0.00692682,-0.02225590,-0.00000623,0.99627384,0.07844939,0.01269193,0.03351181
1761623585532,0.10033607,-0.03812771,0.03712435,-0.00367991,-0.01964117,-0.01238211,0.99627905,0.07842933,0.01258489,0.03344432
1761623585543,0.05847745,0.14977887,0.07598000,-0.01577169,-0.01322872,-0.00037402,0.99628707,0.07834022,0.01251014,0.03344221
1761623585554,-0.27998446,0.17695510,-0.07549428,0.01832232,-0.02857359,-0.01323727,0.99628354,0.07844099,0.01235299,0.03336941
1761623585566,0.11993735,0.13357296,0.02430640,0.01356604,-0.01301305,-0.00426565,0.99627911,0.07851968,0.01227751,0.03334467
1761623585576,-0.11044114,-0.04156858,0.00726161,0.00929818,-0.01999717,-0.00820776,0.99627797,0.07856942,0.01217053,0.03330075
1761623585588,0.24075301,-0.24846118,-0.05788274,0.00076337,-0.00348870,0.00573042,0.99627677,0.07857377,0.01215064,0.03333342
1761623585599,0.01532428,-0.06709902,-0.01757430,0.01728624,0.00228917,-0.00173030,0.99626923,0.07867144,0.01216358,0.03332364
1761623585610,-0.05696509,0.08978187,-0.09061231,0.02147174,-0.00891962,-0.01229798,0.99626276,0.07878953,0.01211452,0.03325600
1761623585621,0.12782312,0.22193879,-0.11104794,0.02255274,0.00026036,-0.01341399,0.99625552,0.07891132,0.01211593,0.03318357
1761623585632,-0.07931787,-0.00142644,-0.00264515,0.02000138,-0.00553258,-0.01517772,0.99624979,0.07902433,0.01208467,0.03309781
1761623585644,0.00262272,-0.19557831,-0.05959732,0.02667624,-0.00465018,-0.00188027,0.99623780,0.07918438,0.01205677,0.03308653
1761623585655,-0.10692787,-0.29691352,0.07729344,-0.01037186,0.00825275,-0.01716344,0.99624504,0.07912630,0.01210298,0.03299042
1761623585667,-0.00245554,-0.10058134,0.06895374,-0.03381071,0.00619944,-0.01301361,0.99626190,0.07893865,0.01213739,0.03291819
1761623585678,0.01862494,-0.02881423,-0.04257129,-0.03866214,-0.00583892,-0.00849755,0.99628083,0.07872408,0.01210498,0.03287103
1761623585688,-0.06518204,0.24228384,-0.04926288,-0.02757714,0.00624212,-0.01411048,0.99629443,0.07857792,0.01213806,0.03279624
1761623585700,-0.06083968,0.17656538,-0.05036084,-0.01542894,0.00329044,-0.01029093,0.99630329,0.07848766,0.01215731,0.03273604
1761623585711,0.06563821,0.02353829,-0.04976814,0.00050950,0.01681098,0.00290103,0.99630134,0.07849056,0.01225314,0.03275258
1761623585721,-0.08930851,-0.13979521,0.01211658,0.00973512,-0.00554965,0.00987489,0.99629617,0.07853973,0.01222511,0.03280245
1761623585732,0.07554760,0.01551577,0.07759654,-0.01088948,0.00429286,-0.00837365,0.99630206,0.07848038,0.01224851,0.03275681
1761623585744,0.07685647,0.01416550,0.05114863,-0.01896066,0.00299020,0.00492082,0.99630969,0.07836851,0.01226615,0.03278584
1761623585755,-0.02626169,0.11251498,-0.11256347,-0.00086324,0.00017066,-0.01233552,0.99631226,0.07836381,0.01226708,0.03271861
1761623585766,0.01930078,0.04049161,0.07683058,0.00056992,0.00275607,-0.01381755,0.99631427,0.07836685,0.01228182,0.03264469
1761623585798,0.07985160,-0.04566935,-0.10200429,0.00106540,-0.00103915,-0.00068099,0.99631348,0.07838411,0.01226499,0.03263366
1761623585825,-0.09568549,0.03010786,0.12189293,0.00774014,-0.00061349,-0.01130393,0.99631028,0.07849054,0.01225655,0.03247823
1761623585834,-1.56346307,1.32937019,1.45092878,0.09429595,-0.02276484,-0.00906372,0.99628038,0.07890073,0.01215753,0.03243880
1761623585845,0.97564434,-0.83977816,-0.98397397,0.03021946,0.00510538,-0.00253791,0.99626743,0.07906542,0.01218535,0.03242497
1761623585866,0.18273036,-0.17266045,-0.21642089,0.00657605,-0.00362196,-0.00519328,0.99626425,0.07913316,0.01214805,0.03237148
1761623585877,-0.23991059,0.01673263,0.14913318,0.00745130,-0.00291831,-0.01360789,0.99626360,0.07917526,0.01213156,0.03229459
1761623585888,-0.36250432,-0.27212239,0.25885957,0.00619657,-0.00663445,-0.00741562,0.99626264,0.07920996,0.01209440,0.03225307
1761623585899,0.07388809,-0.04806587,0.11689049,-0.01711997,0.00397402,-0.00119138,0.99627020,0.07911409,0.01211666,0.03224640
1761623585912,0.16668336,0.01572079,-0.19645130,-0.02120019,0.00455114,-0.00285385,0.99628060,0.07898583,0.01214419,0.03222913
1761623585923,0.14982281,0.05377774,-0.19940883,-0.02175047,0.00562143,0.01120211,0.99628790,0.07886294,0.01217595,0.03229242
1761623585933,-0.16041268,0.09361570,0.06332282,-0.02746477,0.00416029,-0.00204495,0.99629917,0.07872149,0.01219738,0.03228189
1761623585944,-0.06028615,-0.03241612,0.09154715,-0.04147487,0.01483791,-0.00946881,0.99631785,0.07849338,0.01227899,0.03222981
1761623585946,-28.25907849,-6.31133760,17.79588105,-0.12265836,0.07085600,-0.08312265,0.99632702,0.07839525,0.01233567,0.03216331
1761623585956,4.32171629,1.14597927,-2.78644839,-0.01603198,0.00585741,-0.00944169,0.99633464,0.07831349,0.01236555,0.03211516
1761623585966,0.15500432,-0.07023616,-0.04843007,-0.00466888,0.01349299,-0.00068534,0.99633579,0.07828921,0.01243571,0.03211160
1761623585978,-0.00325146,-0.12103391,-0.09514349,0.00983367,0.00920335,-0.00679872,0.99633207,0.07834379,0.01248679,0.03207386
1761623585988,-0.27449823,-0.03508405,0.01887858,0.03519326,0.02026147,-0.01694907,0.99631843,0.07853735,0.01259823,0.03198064
1761623586000,0.01197432,0.12604851,0.04221561,0.05099817,0.03809624,-0.00798429,0.99629331,0.07883824,0.01282299,0.03193354
1761623586011,-0.24744326,0.32395484,0.06289800,0.01658258,0.03034655,0.01714925,0.99628112,0.07892779,0.01298687,0.03202614
1761623586022,0.01108112,-0.15304786,-0.07464039,0.00847483,0.03361081,0.03537456,0.99626918,0.07897270,0.01316500,0.03221363
1761623586033,0.03591734,-0.07651631,-0.07849579,0.00033459,0.04161079,0.01814370,0.99626240,0.07897464,0.01340635,0.03231886
1761623586044,-0.08076523,-0.05940957,0.04273733,0.01072413,0.02778361,0.01869798,0.99625231,0.07903363,0.01355915,0.03242170
1761623586056,0.11200669,0.05395702,0.16256237,0.00985949,0.03298696,0.01107474,0.99624330,0.07908933,0.01374553,0.03248427
1761623586067,0.07356657,0.02633833,-0.04384908,0.03221387,0.02968543,0.01215692,0.99622376,0.07927617,0.01391771,0.03255478
1761623586078,-0.07477013,0.25321494,-0.01267662,0.02401696,0.02429641,0.01632764,0.99620898,0.07940346,0.01404648,0.03264132
1761623586090,0.40495531,0.01076437,-0.16674546,0.02163599,0.02515113,0.03508667,0.99618875,0.07953869,0.01420367,0.03286061
1761623586100,-0.10889519,0.21633255,-0.04901592,0.01963192,0.02227534,0.02425380,0.99617517,0.07963783,0.01431616,0.03298309
1761623586111,-0.00978546,0.01827843,-0.12412156,0.08309530,0.01444643,0.01693328,0.99613393,0.08009901,0.01439634,0.03307707
1761623586122,-0.08910975,-0.33000224,0.14504504,0.00253769,0.02325709,0.04449460,0.99612300,0.08011271,0.01452193,0.03331734
1761623586133,0.04848397,-0.16047423,0.00013438,-0.05550030,-0.00685495,0.01721642,0.99614507,0.07980469,0.01448388,0.03341289
1761623586145,0.17777824,0.06712555,0.12601426,-0.01958217,0.00433193,0.00412524,0.99615320,0.07968817,0.01450966,0.03343744
1761623586156,-0.28429757,0.01639337,-0.07357739,0.04364979,-0.00594987,0.00575920,0.99613374,0.07992388,0.01447753,0.03346854
1761623586167,0.03951894,0.12855400,-0.12931276,0.02455319,-0.01014475,-0.00257255,0.99612427,0.08005770,0.01442224,0.03345452
1761623586178,0.24953333,0.03336560,0.04552861,0.01331711,-0.01333595,-0.01233448,0.99612167,0.08013227,0.01434756,0.03338545
1761623586189,0.16276713,0.03122131,-0.23685897,0.01398734,-0.03493094,-0.00561819,0.99611935,0.08020640,0.01416243,0.03335567
1761623586200,0.11168875,-0.03245841,0.00547820,0.01114077,-0.06190863,0.00533892,0.99611818,0.08026935,0.01381264,0.03338583
1761623586212,0.08422238,-0.09951576,-0.10305890,0.00360576,-0.03324581,0.02563164,0.99611405,0.08029080,0.01361483,0.03353834
1761623586223,0.08354916,0.00699064,-0.36702571,-0.01355566,-0.05425313,0.01603984,0.99612093,0.08021828,0.01332457,0.03362416
1761623586234,0.11273458,-0.07127968,0.02475305,-0.01846274,-0.03901821,0.00585561,0.99613113,0.08011397,0.01310412,0.03365724
1761623586245,0.03431732,-0.07201551,0.05898504,-0.00241791,-0.05257227,0.00336410,0.99613537,0.08010055,0.01281235,0.03367591
1761623586257,-0.13630531,0.00507047,0.27751551,-0.01575151,-0.04826119,-0.00553949,0.99614726,0.08000998,0.01253484,0.03364406
1761623586268,0.04639934,-0.01612277,-0.02144550,-0.00333338,-0.03149063,-0.01194513,0.99615316,0.07999148,0.01236007,0.03357776
1761623586278,-0.07892909,0.15183892,-0.06679259,-0.02121826,-0.04832138,-0.00265591,0.99616581,0.07987902,0.01210397,0.03356369
1761623586290,0.11811591,0.05208280,-0.02053986,0.00335065,-0.01464049,-0.00198418,0.99616566,0.07989912,0.01201612,0.03355178
1761623586327,-0.00246621,-0.04023077,0.03427173,-0.00019703,-0.00830170,-0.00065044,0.99616818,0.07989550,0.01186337,0.03353981
1761623586336,-0.77571965,-0.22206921,-1.64733397,-0.01889510,-0.11186084,-0.02641591,0.99618560,0.07980669,0.01133763,0.03341566
1761623586345,0.85230974,-0.11695549,1.12178482,-0.08659856,-0.04588715,0.00252606,0.99621832,0.07942133,0.01113343,0.03342690
1761623586357,0.14006982,0.15636785,0.02394914,0.00415119,-0.01863754,0.01218145,0.99621515,0.07944603,0.01102254,0.03349938
1761623586369,-0.04492765,0.11914999,-0.00309807,0.01070818,-0.01049203,0.00026177,0.99621085,0.07950760,0.01096221,0.03350088
1761623586380,-0.33673284,-0.10044379,0.14044701,-0.01780393,-0.01517348,-0.00583476,0.99622039,0.07941235,0.01088103,0.03346967
1761623586390,-0.12051540,0.00745263,-0.02136253,-0.02369864,-0.02214068,-0.00855392,0.99623307,0.07928793,0.01076479,0.03342476
1761623586401,0.00633161,-0.09165216,0.00326249,-0.00445814,-0.01533082,0.00095928,0.99623568,0.07926408,0.01068277,0.03342989
1761623586412,-0.03392682,0.00126310,-0.11305625,-0.03391053,-0.00285694,0.00684164,0.99624953,0.07907587,0.01066691,0.03346786
1761623586424,-0.08405817,-0.15088095,-0.18543420,-0.03316337,-0.01522691,0.01115828,0.99626391,0.07887855,0.01057631,0.03353426
1761623586434,-0.07511853,-0.15261029,-0.17106394,-0.00227745,0.00454414,0.02354941,0.99626040,0.07886648,0.01060040,0.03365907
1761623586445,-0.00141935,0.23385315,0.30604048,-0.02131756,0.00918660,0.00238172,0.99626876,0.07874817,0.01065138,0.03367229
1761623586457,0.00844762,0.09965430,0.12460089,-0.00019387,-0.00840957,0.00542110,0.99626832,0.07874706,0.01060345,0.03370319
1761623586468,0.02013523,0.13306856,0.03086729,0.01096574,0.02237284,0.00679191,0.99626057,0.07881067,0.01073321,0.03374258
1761623586479,-0.11916312,0.11562898,-0.12363009,0.03175787,0.02540465,-0.00269305,0.99624599,0.07898216,0.01087040,0.03372804
1761623586491,0.12312637,0.00502328,0.02651195,0.02059641,0.03609045,0.00702889,0.99623283,0.07910162,0.01107972,0.03376880
1761623586502,-0.07002285,-0.00813199,-0.00668930,0.00604531,0.03637901,0.01285136,0.99622547,0.07913517,0.01128163,0.03384013
1761623586514,0.05265052,-0.18329858,0.04464820,0.00642157,0.02577708,0.02231556,0.99621633,0.07917274,0.01143242,0.03397068
1761623586524,-0.06423125,-0.03333259,0.06955835,-0.02378342,0.04620681,0.00090110,0.99622320,0.07904906,0.01167270,0.03397536
1761623586535,0.12552139,-0.05504555,0.05618820,-0.01034400,0.03245917,0.00826634,0.99622405,0.07899269,0.01184960,0.03402041
1761623586546,0.14598899,0.06960815,0.00000000,-0.02244469,0.04047357,-0.00346486,0.99623174,0.07887036,0.01207018,0.03400153
1761623586557,0.06146252,0.14191101,-0.22546096,-0.00129700,0.00451177,0.00195787,0.99623163,0.07886317,0.01209522,0.03401240
1761623586568,0.12166025,0.11665663,0.04954763,0.00642780,0.01347271,-0.00879316,0.99622947,0.07890045,0.01217336,0.03396140
1761623586579,0.01282451,0.01774099,-0.02804113,-0.00733995,0.00784092,-0.01058434,0.99623399,0.07886118,0.01221531,0.03390477
