UnixTime(ms),Ax,Ay,Az,Gx,Gy,Gz,QuatW,QuatX,QuatY,QuatZ
1757961785236,0.00000000,0.00000000,0.00000000,0.00000000,0.00000000,0.00000000,0.99805930,0.01920043,-0.02678421,0.05283550
1757961785242,-1.39947474,-0.57911732,-3.56640336,0.03110369,0.09480834,0.03103515,0.99806022,0.01930152,-0.02647609,0.05293637
1757961785254,0.04548876,0.19411429,0.97384060,-0.01481565,0.05583469,0.01113970,0.99806670,0.01921929,-0.02616620,0.05299819
1757961785265,0.07740235,0.00471671,-0.15480469,-0.01079432,0.06183899,-0.02562633,0.99808433,0.01915938,-0.02582300,0.05285597
1757961785276,-0.11547783,-0.12348928,0.07205379,0.00276713,0.04573579,-0.00218500,0.99809128,0.01917488,-0.02556688,0.05284373
1757961785287,0.04561580,-0.10833752,0.19766846,0.00613714,0.04366565,0.01803056,0.99809150,0.01920924,-0.02532235,0.05294470
1757961785298,0.07602633,0.08671754,0.10643687,0.01027114,0.05267563,0.02727773,0.99808972,0.01926676,-0.02502737,0.05309746
1757961785309,-0.10643687,0.04727888,0.04561580,0.01777788,0.05494281,0.03673516,0.99808449,0.01936632,-0.02471969,0.05330317
1757961785321,-0.02293948,0.22263677,-0.27647411,0.00011167,0.05322760,0.02988712,0.99808285,0.01936695,-0.02441895,0.05347204
1757961785332,0.09356779,-0.06734497,0.01068563,0.00089617,0.05768752,0.03309089,0.99808068,0.01937192,-0.02409878,0.05365569
1757961785343,-0.17602493,-0.09135788,0.08588921,0.00208567,0.05087702,0.01031795,0.99808418,0.01938360,-0.02381387,0.05371347
1757961785354,0.02280611,0.04117145,0.03881040,-0.01547486,0.05742585,0.01796190,0.99808810,0.01929617,-0.02348942,0.05381496
1757961785365,0.15945346,0.06501660,-0.14559379,-0.00601147,0.05685300,-0.00161592,0.99809668,0.01926251,-0.02317104,0.05380591
1757961785377,-0.09937908,0.07682248,0.11361559,-0.00099603,0.06614001,-0.00831118,0.99810773,0.01925698,-0.02280396,0.05375978
1757961785388,0.01426448,0.04319506,0.00282598,0.01283270,0.05619200,-0.00786690,0.99811592,0.01932948,-0.02248648,0.05371533
1757961785399,-0.11675937,0.12889019,0.09806671,0.03329762,0.07267941,-0.00657399,0.99812323,0.01951262,-0.02208674,0.05367917
1757961785410,0.09233744,0.01063937,0.03151637,0.04436440,0.08299964,-0.00098561,0.99812881,0.01976106,-0.02162194,0.05367366
1757961785421,-0.27369480,-0.06747337,0.22807900,0.02290605,0.08967324,0.00353459,0.99813595,0.01988933,-0.02111977,0.05369345
1757961785432,-0.18246320,-0.06022711,0.19766846,0.03201590,0.11123715,-0.00241871,0.99814608,0.02006862,-0.02049685,0.05367990
1757961785443,-0.04257129,0.07267592,-0.11250984,0.05377500,0.13313322,-0.00274884,0.99815575,0.02036708,-0.01975796,0.05366465
1757961785455,-0.21538650,0.17370929,-0.01467643,0.05412466,0.16395450,-0.01671711,0.99817259,0.02067559,-0.01882342,0.05356936
1757961785466,-0.42570660,0.14111191,-0.12378303,0.06343194,0.19611585,-0.01088583,0.99818814,0.02102129,-0.01775458,0.05351003
1757961785477,-0.45469795,0.06987757,0.00290395,0.08251386,0.21787442,-0.01828159,0.99820403,0.02146274,-0.01658896,0.05341223
1757961785488,0.38093529,-0.23194707,0.27315071,0.05883171,0.22467731,-0.00725865,0.99821906,0.02178925,-0.01534200,0.05337194
1757961785499,-0.33386767,-0.00705839,0.05907654,0.04636824,0.24061297,-0.00110824,0.99823325,0.02204428,-0.01401863,0.05336585
1757961785510,0.00576999,-0.19558166,0.03433850,0.05086633,0.25259484,-0.00672700,0.99824767,0.02232659,-0.01261672,0.05332851
1757961785521,0.02082163,0.24820286,0.03342419,0.02808529,0.24850885,0.01737632,0.99825556,0.02248387,-0.01122508,0.05342582
1757961785532,-0.08293109,0.11843164,-0.06468625,0.04421754,0.27762326,0.00660835,0.99826417,0.02272927,-0.00968427,0.05346249
1757961785543,-0.27169806,0.00115016,-0.18772600,0.07003915,0.27285754,-0.00801297,0.99827127,0.02312499,-0.00814262,0.05341722
1757961785554,-0.24746848,0.05387544,0.23672717,0.07362279,0.30245561,-0.00638670,0.99827587,0.02352992,-0.00647912,0.05338209
1757961785566,0.06717963,-0.02105843,-0.03981015,0.09219524,0.33105070,-0.01652185,0.99827882,0.02404621,-0.00462523,0.05328957
1757961785577,-0.01873086,-0.16967726,0.18224624,0.08196169,0.31935243,-0.01970002,0.99828022,0.02452159,-0.00277299,0.05317531
1757961785588,-0.47787650,0.20235451,-0.20427041,0.08026945,0.35105498,-0.03133749,0.99828194,0.02495906,-0.00085974,0.05300452
1757961785599,0.07393386,-0.05220162,-0.02036669,0.08222580,0.34733013,-0.02602850,0.99827783,0.02541952,0.00108531,0.05285876
1757961785610,-0.17229137,0.03833712,-0.01118031,0.08310560,0.36061909,-0.02293034,0.99826873,0.02587245,0.00305069,0.05273379
1757961785621,0.00041849,-0.17498916,0.04129137,0.08653629,0.36307750,-0.01820380,0.99825315,0.02635705,0.00508392,0.05263185
1757961785632,-0.00013822,0.10290582,0.02764370,0.07375336,0.36906547,-0.01574154,0.99823433,0.02676638,0.00713223,0.05254449
1757961785644,0.08989317,0.01177703,0.03579578,0.07547697,0.36224855,0.00078122,0.99820585,0.02719283,0.00917894,0.05254890
1757961785655,-0.30823943,0.09395523,-0.06740169,0.08831944,0.37382848,-0.00526602,0.99817268,0.02768300,0.01125369,0.05251967
1757961785666,-0.01090022,-0.00476885,-0.15785132,0.09953266,0.35725872,0.01344891,0.99812812,0.02824536,0.01327220,0.05259566
1757961785677,-0.13752258,0.15217009,0.10854055,0.09010285,0.37822159,-0.00262062,0.99808532,0.02873642,0.01533350,0.05258138
1757961785688,0.22291758,-0.20272962,0.01129933,0.10516144,0.38172016,-0.00307983,0.99803397,0.02932533,0.01747114,0.05256413
1757961785700,-0.25766818,-0.25806149,0.10778127,0.07772961,0.31854752,-0.00956129,0.99798708,0.02979948,0.01941428,0.05250581
1757961785710,-0.83141640,0.10645292,0.06128530,0.05942942,0.40074553,-0.02422199,0.99794354,0.03009662,0.02141800,0.05238470
1757961785722,0.91657347,0.16455425,-0.05048148,0.04167593,0.34719724,-0.00723796,0.99789498,0.03033001,0.02336231,0.05234416
1757961785733,0.04561580,-0.04062657,-0.12164213,0.07637867,0.33979458,-0.00218487,0.99783616,0.03075773,0.02526516,0.05233193
1757961785744,-0.10643687,-0.05690096,-0.09123160,0.08906070,0.31754375,-0.01220236,0.99777763,0.03125647,0.02704340,0.05226359
1757961785755,0.12019449,0.18522214,0.22715914,0.07976188,0.31980063,0.00910397,0.99771194,0.03169516,0.02880231,0.05231367
1757961785766,0.06375139,0.03486844,0.07993551,0.07773017,0.31160862,0.00187173,0.99764617,0.03212656,0.03053174,0.05232405
1757961785777,0.04644141,-0.17403434,-0.03096094,0.06860214,0.30091796,0.01315194,0.99757750,0.03250730,0.03220183,0.05239705
1757961785789,-0.04164932,-0.05457487,-0.17016724,0.07388785,0.29297219,0.01936050,0.99750258,0.03292846,0.03387177,0.05250740
1757961785800,0.07383820,-0.01014800,-0.18832890,0.09395124,0.32494296,0.04451736,0.99741018,0.03344520,0.03565896,0.05275225
1757961785812,0.26972607,-0.21482507,0.00602067,0.09058405,0.29222160,0.06229041,0.99730773,0.03398870,0.03741229,0.05312599
1757961785822,-0.25689340,-0.01254583,0.12250533,0.08677496,0.32332663,0.06835915,0.99720683,0.03444861,0.03912592,0.05348829
1757961785833,0.26670951,0.03290157,0.05453636,0.06748122,0.30080912,0.05052482,0.99711531,0.03480963,0.04073525,0.05375860
1757961785844,0.01975264,-0.18030719,0.17052635,0.04612669,0.26865232,0.04188866,0.99703098,0.03506794,0.04223970,0.05399318
1757961785855,0.29647863,0.07026898,0.02874944,0.01966414,0.25291701,0.03328259,0.99695666,0.03517708,0.04364339,0.05417790
1757961785867,0.42492921,-0.16135373,-0.03794650,0.00992924,0.21031513,0.02879168,0.99688911,0.03523665,0.04490528,0.05435065
1757961785878,-0.22171047,-0.05839184,-0.06580511,-0.00953876,0.20779660,0.02979927,0.99683151,0.03518562,0.04601699,0.05451007
1757961785889,0.43611442,0.03356320,0.16612553,-0.00857101,0.18780183,0.02365956,0.99677635,0.03513719,0.04707807,0.05464375
1757961785900,-0.06026290,0.02325466,0.01157829,0.00553319,0.16662224,0.02271972,0.99672471,0.03516763,0.04799449,0.05476871
1757961785911,0.34391548,0.05314068,0.00248813,0.01545027,0.14597857,0.02021348,0.99667573,0.03525415,0.04881197,0.05488190
1757961785923,0.24328426,0.25326272,-0.13684740,0.00796893,0.11303615,0.01185662,0.99663929,0.03529877,0.04944498,0.05494830
1757961785934,0.21727945,0.08421825,0.05943394,0.01874515,0.08100847,0.00425874,0.99661189,0.03540281,0.04989457,0.05497194
1757961785945,-0.49537502,-0.15565128,-0.06192188,0.03970544,0.04155662,0.00793502,0.99659003,0.03562318,0.05012521,0.05501598
1757961785956,0.90081537,0.19685813,0.00713988,0.05140261,0.01930897,0.00719003,0.99657171,0.03591617,0.05023527,0.05505696
1757961785967,0.16786438,0.01297829,0.03733392,0.05256496,-0.00509831,0.01632758,0.99655770,0.03620528,0.05020723,0.05514676
1757961785978,0.31720889,-0.00327201,-0.07529137,0.03463729,-0.01629803,0.00786393,0.99655283,0.03639751,0.05011678,0.05519041
1757961785989,-0.13932422,0.14754822,0.07740235,0.03540739,-0.04048236,-0.00614923,0.99655880,0.03659403,0.04989210,0.05515628
1757961786001,0.13932422,0.04486917,-0.17028516,0.02971144,-0.04881174,-0.01720521,0.99657154,0.03675892,0.04962120,0.05506079
1757961786012,0.09288282,0.07607199,-0.09288282,0.05327247,-0.05668955,-0.02608922,0.99658419,0.03705459,0.04930657,0.05491599
1757961786023,-0.02657497,0.33465713,-0.11725863,0.06493643,-0.06901903,-0.04093567,0.99660226,0.03741823,0.04892006,0.05468675
1757961786034,-0.00844458,0.15023432,-0.09007550,0.10327925,-0.08050878,-0.03975467,0.99661438,0.03798627,0.04847727,0.05446810
1757961786045,0.19212779,0.11291469,-0.21080688,0.10377482,-0.08791687,-0.05398927,0.99663268,0.03857778,0.04797614,0.05416036
1757961786056,-0.16213755,-0.14802244,0.05255212,0.10099666,-0.10217055,-0.05978676,0.99665594,0.03913831,0.04740909,0.05382855
1757961786068,0.04945136,-0.01492809,-0.05314994,0.09856875,-0.12803799,-0.04322306,0.99668100,0.03969030,0.04669208,0.05358650
1757961786077,0.05375576,0.13195021,-0.20343932,0.10299159,-0.13649556,-0.04852661,0.99670440,0.04018981,0.04603008,0.05335114
1757961786088,0.16629535,-0.09988244,-0.12464172,0.09577916,-0.14822734,-0.02987783,0.99672934,0.04072138,0.04520742,0.05318532
1757961786100,0.12384376,-0.20402775,-0.09288282,0.09178304,-0.14285255,-0.02266529,0.99675075,0.04123078,0.04441458,0.05305953
1757961786111,-0.21246278,-0.20259776,0.13328580,0.08637366,-0.15171568,-0.01036097,0.99677121,0.04171447,0.04356498,0.05300151
1757961786122,0.10643687,-0.12865081,-0.22807900,0.09051585,-0.13650534,-0.00271687,0.99678379,0.04222136,0.04280055,0.05298629
1757961786133,-0.32647204,0.07989352,0.12660812,0.06709607,-0.12566858,0.03344106,0.99678777,0.04259374,0.04210309,0.05317189
1757961786144,-0.14103000,-0.06442883,-0.00753595,0.07350557,-0.10835916,0.02675548,0.99678753,0.04300905,0.04149086,0.05332306
1757961786156,-0.12676278,0.05048878,0.04039265,0.05182209,-0.09141990,0.01408948,0.99679200,0.04330444,0.04096976,0.05340337
1757961786167,-0.22785090,-0.08207095,-0.01028005,0.04267398,-0.08679866,0.01900230,0.99679564,0.04353701,0.04049671,0.05350693
1757961786178,-0.17172186,-0.14618068,0.24635322,0.01935359,-0.09416527,0.01846537,0.99680663,0.04364539,0.03996938,0.05361034
1757961786189,0.07602633,-0.19398594,-0.18246320,-0.00125349,-0.08816063,0.03076364,0.99681733,0.04363837,0.03947568,0.05378262
1757961786200,-0.22640186,-0.16859739,0.09758224,0.00626481,-0.07437729,0.03584957,0.99682132,0.04367314,0.03906289,0.05398158
1757961786211,0.05712249,0.06600079,0.04013642,-0.00453711,-0.06493203,0.04511963,0.99682290,0.04364773,0.03869927,0.05423425
1757961786222,-0.21244180,-0.02632198,0.25363090,0.00975129,-0.04898880,0.04827073,0.99681643,0.04370185,0.03842738,0.05450215
1757961786233,0.10836329,0.09505976,0.01548047,0.00393914,-0.04058988,0.04996973,0.99680893,0.04372371,0.03820211,0.05477949
1757961786245,0.00515658,0.02872998,0.13764110,0.01162852,-0.02909672,0.05483267,0.99679514,0.04379000,0.03803626,0.05509203
1757961786256,-0.14462017,0.08853212,0.10632638,0.01692435,-0.01930428,0.04738584,0.99678052,0.04388393,0.03792912,0.05535502
1757961786267,0.11958737,0.12493618,0.12643659,0.01835443,-0.01097360,0.02704568,0.99676990,0.04398671,0.03786767,0.05550648
1757961786278,0.05376381,0.00779804,0.03968952,0.03025627,-0.01406116,0.02023866,0.99675928,0.04415312,0.03779033,0.05561779
1757961786290,0.33835839,-0.29581551,0.15957280,0.01041337,-0.00694903,0.01405489,0.99675367,0.04421248,0.03775072,0.05569790
1757961786300,-0.15319655,-0.08461984,0.10241792,0.02294596,-0.00499386,0.00310281,0.99674825,0.04433638,0.03772375,0.05571466
1757961786312,0.32125071,0.13531743,-0.11170393,0.00808625,-0.01030610,-0.00282712,0.99674932,0.04438248,0.03766501,0.05569854
1757961786323,-0.30952799,0.23467640,0.13392225,0.01643644,-0.00797823,0.01088885,0.99674366,0.04447205,0.03762153,0.05575789
1757961786334,0.12744701,0.02976226,-0.04152306,0.02301513,-0.00776963,-0.00651157,0.99674156,0.04460209,0.03757763,0.05572110
1757961786345,-0.02636502,0.10858678,0.07504963,0.02535392,0.00553262,-0.01232563,0.99673795,0.04474154,0.03760806,0.05565331
1757961786356,0.13022642,0.10645293,-0.02824515,0.04042078,0.01932172,0.00796732,0.99672103,0.04496991,0.03771723,0.05569832
1757961786367,-0.24755051,0.13759145,0.06027793,0.05380015,0.02361060,-0.01346191,0.99670672,0.04526850,0.03784827,0.05562361
1757961786379,0.22439014,-0.05637567,-0.14318351,0.06375916,0.02723128,-0.00931685,0.99668703,0.04563512,0.03800485,0.05557004
1757961786390,-0.25047229,0.06024477,0.10270957,0.04803102,0.03289998,-0.00954584,0.99667135,0.04589209,0.03818086,0.05551897
1757961786401,0.17236409,-0.04577270,-0.20271196,0.07261135,0.03827106,-0.01515662,0.99664944,0.04629145,0.03839135,0.05543561
1757961786412,-0.02251705,-0.03049916,0.06445505,0.06455993,0.02865882,-0.02139018,0.99663319,0.04664976,0.03855041,0.05531689
1757961786423,0.01668676,-0.19929907,0.07845466,0.02313374,0.03537247,-0.02222249,0.99662627,0.04678046,0.03875026,0.05519133
1757961786434,0.07589540,-0.14687181,0.05945596,0.00733650,0.03728783,-0.01482461,0.99662084,0.04682118,0.03895721,0.05510906
1757961786445,-0.08052203,-0.11277546,-0.01269313,0.01856048,0.04541404,0.00622247,0.99660375,0.04692697,0.03921607,0.05514452
1757961786457,-0.11854781,0.10711568,0.04399712,0.03354583,0.05979860,-0.00016893,0.99658191,0.04711315,0.03954795,0.05514359
1757961786468,0.01857074,0.10988111,-0.04400459,0.04069612,0.04992559,0.01370855,0.99655549,0.04734309,0.03983003,0.05522104
1757961786479,-0.01311276,0.09761116,-0.01827417,0.05756499,0.05013330,0.01995588,0.99652325,0.04765969,0.04010577,0.05533080
1757961786490,0.12523610,-0.03248830,-0.07409112,0.04356619,0.03553836,0.01759476,0.99649804,0.04790366,0.04030478,0.05542933
1757961786501,0.18246320,-0.07828336,-0.06082107,0.03107789,0.01734359,0.00740295,0.99648342,0.04807770,0.04040190,0.05547078
1757961786512,0.00870776,-0.10807065,0.05971038,0.01099405,0.01210413,-0.00186917,0.99647833,0.04813872,0.04046908,0.05546041
1757961786523,0.06192188,-0.17137363,0.12384376,0.01195244,0.00614300,0.02195031,0.99646695,0.04820505,0.04050318,0.05558224
1757961786535,0.18849051,-0.09522341,0.00054794,0.00149126,0.00194287,0.03024392,0.99645664,0.04821340,0.04051406,0.05575160
1757961786546,0.10394029,0.13695939,-0.00055287,0.00493745,-0.01182970,0.01675567,0.99645277,0.04824081,0.04044840,0.05584460
1757961786557,0.24670887,0.03936161,-0.09068366,0.05614268,-0.01176669,0.02057013,0.99643371,0.04855521,0.04038251,0.05595979
1757961786568,0.15205267,0.26264722,0.03041053,0.06044521,-0.02763602,0.01459492,0.99641883,0.04889370,0.04022775,0.05604152
1757961786579,0.17042338,0.16839222,-0.04754716,0.05960066,-0.04460143,-0.00133905,0.99641292,0.04922448,0.03998021,0.05603409
1757961786590,-0.01548047,-0.05152094,0.09288282,0.05941931,-0.03471629,-0.00349592,0.99640538,0.04955426,0.03978753,0.05601469
1757961786602,0.01197678,-0.09197060,0.07603239,0.01806430,-0.05372889,0.00761366,0.99640996,0.04965632,0.03948396,0.05605770
1757961786613,0.23157211,-0.02592200,-0.09632263,0.00994571,-0.03490956,0.00140628,0.99641434,0.04971053,0.03929371,0.05606537
1757961786624,-0.12023900,-0.15971135,0.01871581,0.03089095,-0.02804049,-0.00864682,0.99641460,0.04988661,0.03913388,0.05601608
1757961786635,-0.04232246,-0.06582174,0.01428219,0.01717370,-0.03875850,-0.00785426,0.99642081,0.04998364,0.03891489,0.05597170
1757961786646,0.14856478,-0.00641361,-0.12777966,0.01721679,-0.03790273,-0.02444613,0.99643172,0.05007833,0.03870643,0.05583725
1757961786657,0.01970236,0.10754773,0.20694771,0.01786775,-0.04391708,-0.01819799,0.99644164,0.05017571,0.03846708,0.05573807
1757961786668,0.37411864,-0.00402233,-0.26942024,0.04121989,-0.04673924,-0.00151475,0.99644053,0.05040860,0.03820300,0.05572951
1757961786680,-0.35792928,0.08327995,0.21058621,0.01965179,-0.05737945,-0.01219271,0.99645104,0.05051865,0.03788168,0.05566123
1757961786691,0.26703810,-0.09586747,-0.13973888,0.01743603,-0.05238841,0.00047210,0.99645699,0.05061542,0.03759092,0.05566385
1757961786702,0.06192188,-0.07280658,-0.03096094,0.00623649,-0.05217275,0.00506052,0.99646455,0.05065003,0.03730136,0.05569194
1757961786713,-0.02740139,-0.19823881,0.02651747,0.00702004,-0.05703838,-0.00075479,0.99647433,0.05068794,0.03699335,0.05568786
1757961786724,0.07310222,-0.02045921,0.02064063,-0.01870290,-0.06340055,-0.00557504,0.99649433,0.05058414,0.03664148,0.05565692
1757961786735,-0.14397059,0.05751097,0.09273843,-0.01516980,-0.05011572,-0.00629695,0.99651089,0.05049919,0.03636083,0.05562166
1757961786746,0.19766846,0.01722472,-0.12164213,0.00856559,-0.03849816,-0.00039106,0.99651642,0.05054716,0.03614524,0.05561947
1757961786757,-0.16254493,0.00441219,-0.07919919,0.02129796,-0.04168611,-0.00722708,0.99652102,0.05066536,0.03591389,0.05557936
1757961786768,-0.06192188,0.06603388,0.13932422,0.01206254,-0.03907059,-0.00625179,0.99652734,0.05073231,0.03569704,0.05554466
1757961786780,0.07858924,-0.02537707,-0.02745240,0.00911576,-0.02010229,0.00180229,0.99652821,0.05078381,0.03558347,0.05555484
1757961786791,0.01966914,-0.00154973,-0.16223553,0.00221172,-0.03580054,-0.00550231,0.99653629,0.05079598,0.03538656,0.05552458
1757961786802,-0.13864565,-0.08017998,0.06830437,-0.00167380,-0.03028213,0.00138097,0.99654240,0.05078652,0.03521547,0.05553238
1757961786813,0.14209523,-0.10339455,-0.07831385,-0.00302101,-0.01910024,0.00198682,0.99654642,0.05076960,0.03510851,0.05554351
1757961786824,-0.03041053,-0.03076691,0.16725793,-0.02025434,-0.01915869,0.00363208,0.99655483,0.05065618,0.03500122,0.05556385
1757961786835,0.07600120,-0.07683906,-0.01885956,-0.02234207,-0.02010784,0.01288775,0.99656099,0.05053330,0.03489063,0.05563473
1757961786847,-0.00543176,-0.00636746,0.00488858,-0.02199364,-0.02434382,0.00280546,0.99657120,0.05040903,0.03475308,0.05565058
1757961786858,0.05286953,0.01934873,-0.03654833,-0.01199989,-0.02690271,-0.00501860,0.99658123,0.05034303,0.03460512,0.05562298
1757961786869,0.01575819,0.14806128,0.00387043,0.01828747,-0.02800380,-0.00695474,0.99658366,0.05044544,0.03444830,0.05558403
1757961786880,0.00760202,0.14657206,0.01354541,0.01936703,-0.02633866,-0.01490897,0.99658787,0.05055293,0.03430212,0.05550129
1757961786891,0.00013457,-0.08387008,0.00349884,0.01120130,-0.02049214,-0.00974931,0.99659170,0.05061622,0.03418634,0.05544621
1757961786902,0.06178488,0.01233279,0.10480141,-0.01308788,-0.02254261,-0.01641181,0.99660473,0.05054358,0.03406123,0.05535512
1757961786913,0.00000000,-0.07679764,-0.03096094,-0.02109133,-0.02808409,-0.00437520,0.99661732,0.05042652,0.03390536,0.05533084
1757961786925,0.12876532,-0.01683089,-0.01410939,-0.02939608,-0.02768970,-0.01949681,0.99663696,0.05026190,0.03375030,0.05522166
1757961786936,-0.11444490,-0.10178171,0.09163885,-0.03133770,-0.02912592,-0.02115325,0.99665767,0.05008798,0.03358865,0.05510426
1757961786947,0.06780727,-0.06044543,-0.01479431,-0.02635378,-0.03137715,-0.02031542,0.99667727,0.04994040,0.03341294,0.05499049
1757961786958,0.20745513,0.05364286,0.12497975,-0.02626374,-0.02584704,-0.02493623,0.99669681,0.04979595,0.03327078,0.05485334
1757961786969,-0.23416110,0.13322319,0.05971523,-0.00378141,-0.01788599,-0.02404023,0.99670861,0.04977477,0.03317062,0.05471871
1757961786980,-0.06082107,0.11190126,-0.09123160,0.01184822,-0.02505582,-0.02350820,0.99671717,0.04984112,0.03303030,0.05458707
1757961786992,0.11651818,0.13759217,-0.17000873,0.01046551,-0.00865624,-0.01972078,0.99672184,0.04989921,0.03298226,0.05447762
1757961787003,-0.22191470,0.05667194,0.09246446,0.00954896,-0.01620485,-0.02870110,0.99673093,0.04995268,0.03289151,0.05431689
1757961787014,-0.02377358,0.02566220,0.01506581,0.01317030,-0.01563130,-0.02172390,0.99673669,0.05002578,0.03280476,0.05419632
1757961787025,-0.15890188,-0.08174008,-0.01493130,0.01534698,-0.01492237,-0.02040449,0.99674133,0.05011172,0.03272119,0.05408206
1757961787036,-0.00995173,-0.08599457,-0.06233653,0.01258147,-0.01667897,-0.01172291,0.99674438,0.05018155,0.03262863,0.05401700
1757961787047,-0.05530852,-0.00094515,0.10644535,0.00603553,-0.01515969,-0.01812546,0.99675100,0.05021565,0.03254297,0.05391459
1757961787059,-0.00561681,0.04498476,0.06192188,-0.00716113,-0.02100071,-0.00757656,0.99675908,0.05017590,0.03242642,0.05387254
1757961787070,0.00000000,0.01076376,-0.03096094,0.01287585,-0.01824175,0.00458551,0.99675739,0.05024736,0.03232518,0.05389799
1757961787081,-0.03520499,0.00942838,0.03013656,0.03002123,-0.01986066,0.01206338,0.99674885,0.05041548,0.03221396,0.05396554
1757961787092,-0.06082107,-0.15989288,-0.16725793,0.03738581,-0.00583283,0.00577937,0.99673754,0.05062484,0.03218129,0.05399791
1757961787103,-0.18311575,0.03683904,0.12043228,0.01588140,-0.00439885,-0.00374195,0.99673492,0.05071457,0.03215644,0.05397677
1757961787114,0.11745685,-0.05475929,-0.06263436,0.01336694,-0.00566292,0.00753241,0.99672994,0.05078809,0.03212530,0.05401819
1757961787126,-0.08446385,0.20151190,0.21034487,0.00635346,-0.00635078,0.01609461,0.99672433,0.05082399,0.03208941,0.05410913
1757961787137,-0.03933828,-0.00381002,-0.01115980,0.00234098,0.00390734,0.01254698,0.99671923,0.05083686,0.03211090,0.05417814
1757961787148,-0.06626746,-0.11824048,-0.03394849,0.01343482,0.00168753,0.00944114,0.99671215,0.05091277,0.03212044,0.05423148
1757961787159,0.05231154,-0.18924246,-0.02817848,0.00378592,0.01293400,0.00120190,0.99670843,0.05093359,0.03219158,0.05423809
1757961787170,-0.03307191,-0.09616472,-0.10920767,0.02553764,0.00390401,-0.00274770,0.99670131,0.05107533,0.03221324,0.05422284
1757961787181,0.02419627,-0.01512577,0.00039666,0.02097649,-0.00030858,-0.01062967,0.99669853,0.05119489,0.03221148,0.05416225
1757961787192,-0.02323000,0.25963280,0.12555260,-0.00031641,0.00232495,-0.02583530,0.99670591,0.05119315,0.03222427,0.05402016
1757961787204,0.03951605,0.00058986,-0.03272635,-0.00017734,0.00084883,-0.01830141,0.99671141,0.05119215,0.03222907,0.05391675
1757961787215,0.00669588,-0.10195847,-0.06096039,0.01456406,-0.00147373,-0.00066289,0.99670775,0.05127225,0.03222096,0.05391311
1757961787226,-0.23445875,0.14990658,0.18562490,-0.00576859,-0.00056926,0.00380238,0.99670836,0.05124024,0.03221780,0.05393421
1757961787237,-0.01520648,-0.05465354,-0.00349884,-0.01403330,0.00639310,0.00916901,0.99670846,0.05116095,0.03225392,0.05398602
1757961787248,0.10836329,-0.07364782,-0.02739906,-0.02237941,0.00364020,0.01769997,0.99670885,0.05103674,0.03227413,0.05408425
1757961787259,0.07740235,-0.26836845,0.07740235,-0.02608421,-0.01147468,0.00383429,0.99671715,0.05089198,0.03221044,0.05410553
1757961787271,0.07438252,-0.01996226,-0.01739702,-0.04384251,-0.03314966,-0.01815662,0.99674116,0.05064646,0.03202480,0.05400385
1757961787282,0.17263488,-0.03633742,-0.05984860,-0.03349531,-0.02834211,-0.00105713,0.99675594,0.05046056,0.03186750,0.05399799
1757961787293,0.05221340,0.00423897,0.01197678,-0.02451854,-0.03476071,0.01403787,0.99676491,0.05032203,0.03167111,0.05407730
1757961787304,0.07068958,0.09328417,0.01876836,-0.02813522,-0.03413546,0.01475465,0.99677433,0.05016588,0.03148165,0.05415919
1757961787315,-0.15698410,0.07922085,0.10465607,-0.01992602,-0.03479935,0.02164292,0.99677949,0.05005429,0.03128678,0.05428039
1757961787326,0.17387884,0.06338073,0.08016672,-0.01529744,-0.02086179,0.01277847,0.99678351,0.04996939,0.03117100,0.05435131
1757961787338,-0.15480469,0.02358353,0.07740235,-0.01595507,-0.03438818,0.01241418,0.99679014,0.04988084,0.03098014,0.05442021
1757961787349,0.17876462,0.00611293,-0.06493060,-0.00965343,-0.02686442,-0.00597267,0.99679933,0.04982678,0.03082970,0.05438676
1757961787360,0.03380820,-0.21716528,0.05189166,0.00358233,-0.02035477,-0.01265541,0.99680582,0.04984720,0.03071368,0.05431463
1757961787371,-0.09885744,0.01980757,0.16560733,-0.00412514,-0.03957461,-0.00085788,0.99681382,0.04982472,0.03049800,0.05430995
1757961787382,0.19158856,0.26308698,-0.04203871,0.00284387,-0.02719225,-0.01437631,0.99682198,0.04984050,0.03034708,0.05423016
1757961787393,-0.11721100,0.19886908,0.18422716,0.01767855,-0.01544959,0.00273521,0.99681880,0.04994039,0.03025979,0.05424562
1757961787404,-0.02502814,-0.05731515,0.12837013,0.00691859,-0.02612481,0.00217618,0.99682062,0.04997913,0.03011349,0.05425780
1757961787415,0.04844799,-0.05836850,-0.00716686,-0.01552559,-0.03518842,-0.02361594,0.99683763,0.04989452,0.02992171,0.05412910
1757961787427,0.15051819,-0.27355312,-0.03864091,0.00147952,-0.02719459,-0.00968171,0.99684472,0.04990280,0.02976942,0.05407488
1757961787438,-0.00000000,0.00510802,0.04561580,-0.00648323,-0.03427261,-0.01855250,0.99685788,0.04986650,0.02957750,0.05397098
1757961787449,-0.03939227,-0.00208516,0.03897761,0.00538206,-0.03040980,-0.01578104,0.99686612,0.04989637,0.02940872,0.05388340
1757961787460,-0.12821738,0.23145224,0.11342307,-0.00494074,-0.02963700,-0.01137414,0.99687583,0.04986870,0.02924276,0.05381970
1757961787471,0.07602633,0.06723579,-0.03041053,0.00492668,-0.02905727,-0.00696697,0.99688131,0.04989629,0.02908003,0.05378069
1757961787482,0.09910265,0.05636506,-0.00635805,0.02470244,-0.01840759,-0.01897810,0.99688309,0.05003339,0.02897787,0.05367536
1757961787493,-0.13462635,0.07121182,0.19838925,0.01566120,-0.03804940,-0.02272216,0.99689155,0.05011952,0.02876860,0.05355039
1757961787505,0.21646770,0.00071059,-0.17334004,0.01496737,-0.03451234,-0.01548823,0.99689754,0.05020334,0.02857533,0.05346365
1757961787516,-0.13144577,-0.04334985,0.17954580,0.01203047,-0.03454339,-0.01403711,0.99690383,0.05027011,0.02838362,0.05338575
1757961787527,0.02383528,-0.02367903,-0.07150585,-0.00134251,-0.03541691,-0.01837707,0.99691534,0.05026259,0.02818528,0.05328284
1757961787538,0.11527421,-0.08495469,-0.11361559,-0.00053498,-0.03627330,-0.01681823,0.99692615,0.05025962,0.02798396,0.05318950
1757961787549,-0.04521572,-0.09399442,0.08679804,-0.00519642,-0.02901082,-0.01527775,0.99693682,0.05023026,0.02782005,0.05310318
1757961787561,0.13443604,-0.01050282,-0.11949870,0.00073647,-0.03441810,-0.00774272,0.99694434,0.05023442,0.02762559,0.05305943
1757961787571,0.03636961,-0.01389610,0.08509920,0.00973515,-0.02319103,-0.01479024,0.99694945,0.05028748,0.02749920,0.05297882
1757961787583,-0.23965732,0.08388399,0.07797930,0.00422708,-0.03240991,-0.01802952,0.99695861,0.05031115,0.02731770,0.05287786
1757961787594,-0.08597189,0.06042091,0.13421014,0.00098370,-0.02607049,-0.02186610,0.99696871,0.05031661,0.02717301,0.05275650
1757961787605,0.09288282,-0.00157224,-0.03096094,-0.00112002,-0.02230560,-0.00965123,0.99697523,0.05031039,0.02704922,0.05270294
1757961787616,0.01641761,0.01179280,-0.08154979,0.00312100,-0.02282401,-0.01238348,0.99698152,0.05032803,0.02692026,0.05263297
1757961787627,0.13210408,0.05980190,-0.03082894,-0.01151658,-0.01569807,-0.00957539,0.99698983,0.05026469,0.02683392,0.05258031
1757961787639,-0.01681118,-0.07007161,-0.05363567,-0.00663717,-0.00832876,-0.01783263,0.99699836,0.05022686,0.02678645,0.05247866
1757961787650,-0.25055210,-0.06937239,0.26050782,-0.00062249,-0.02293661,-0.01054054,0.99700497,0.05022343,0.02666030,0.05242069
1757961787661,-0.01161129,-0.00850545,0.08266136,0.00026565,-0.02638061,-0.00931568,0.99701157,0.05022492,0.02651257,0.05236852
1757961787672,-0.00180279,0.08501469,-0.10803845,0.00039064,-0.02484254,-0.01533853,0.99701988,0.05022717,0.02636972,0.05228032
1757961787684,0.10023138,-0.04034383,0.20213793,0.01605944,-0.02418617,-0.00751719,0.99702109,0.05031469,0.02623791,0.05223935
1757961787694,-0.17659149,0.03072792,-0.06421509,0.00429057,-0.02538904,-0.01600917,0.99702811,0.05033807,0.02609954,0.05215210
1757961787705,0.14457698,0.01492877,-0.14005467,0.01285025,-0.01561378,-0.01105691,0.99703001,0.05041068,0.02601132,0.05208963
1757961787717,-0.34339682,0.01843050,0.19403535,0.00514550,-0.01927540,-0.00430873,0.99703263,0.05043949,0.02590338,0.05206550
1757961787728,0.10643687,-0.01556164,-0.09123160,0.00469569,-0.00819075,-0.00589946,0.99703421,0.05046579,0.02585751,0.05203247
1757961787739,-0.19696133,-0.03164231,0.10559892,0.00294885,0.00108478,-0.00395603,0.99703437,0.05048215,0.02586353,0.05201051
1757961787750,-0.04808152,0.00807673,-0.01342447,0.00171353,0.01310232,-0.00006730,0.99703200,0.05049175,0.02593690,0.05201013
1757961787761,0.28796010,0.03106241,-0.13004650,0.02041097,0.02345772,-0.01140365,0.99702621,0.05060401,0.02606592,0.05194741
1757961787772,-0.17339533,0.16859248,0.06305285,0.01942145,0.03063093,-0.02077445,0.99702231,0.05071083,0.02623439,0.05183315
1757961787783,-0.00896240,0.00746124,-0.12710316,0.02318285,0.02308247,-0.00994783,0.99701512,0.05084181,0.02636480,0.05177695
1757961787794,-0.22617925,-0.05069361,0.17836789,0.01870971,0.03243890,-0.00973137,0.99700785,0.05094565,0.02654484,0.05172294
1757961787806,-0.19862736,-0.02472568,0.00205477,-0.00212715,0.02019121,-0.00819271,0.99700782,0.05093374,0.02665791,0.05167706
1757961787817,-0.10376115,-0.22350992,-0.04281148,0.01442922,0.03627452,0.00102806,0.99699785,0.05101526,0.02686286,0.05168287
1757961787828,-0.12740563,-0.05337465,-0.05137324,-0.00288004,0.02759508,-0.00427284,0.99699576,0.05099928,0.02701602,0.05165915
1757961787839,0.07419446,-0.04481000,-0.08634326,0.00862656,0.02628635,-0.00277419,0.99699024,0.05104629,0.02715928,0.05164404
1757961787850,-0.05097880,0.01396521,0.04412681,0.00374871,0.03171161,0.01059335,0.99698116,0.05106747,0.02733845,0.05170389
1757961787861,-0.11871233,0.12000050,0.14758830,-0.00018590,0.03512938,0.00806123,0.99697359,0.05106645,0.02753166,0.05174822
1757961787872,0.11390127,-0.04181448,-0.10256643,-0.00782773,0.04212738,0.01878880,0.99696383,0.05102262,0.02776757,0.05185344
1757961787884,-0.10643687,-0.19279803,-0.06082107,-0.00671078,0.04037154,0.01212655,0.99695589,0.05098504,0.02799365,0.05192135
1757961787895,0.07121594,-0.11653297,-0.10161642,-0.03116252,0.06088879,0.01286771,0.99695150,0.05081364,0.02832854,0.05199212
1757961787906,-0.17638109,-0.09200698,0.14541764,-0.04350813,0.07082800,0.02365684,0.99694562,0.05057000,0.02872518,0.05212460
1757961787917,-0.33300051,0.00602304,0.00849885,-0.02937680,0.06866485,0.02343099,0.99693566,0.05040108,0.02912000,0.05225933
1757961787928,0.04038342,-0.04366724,-0.10366025,-0.00810738,0.09756947,0.00978781,0.99691958,0.05035730,0.02964688,0.05231218
1757961787940,-0.21797448,0.19596611,0.03360901,-0.02362042,0.09554672,0.01244830,0.99690641,0.05022384,0.03018671,0.05238252
1757961787951,0.00592063,0.19089842,-0.23157755,-0.00755712,0.10782049,0.02079168,0.99688395,0.05018152,0.03079051,0.05249895
1757961787962,-0.22188606,0.13345594,-0.11395311,0.00541949,0.10732689,0.01095550,0.99686108,0.05021106,0.03137544,0.05255866
1757961787973,-0.02734158,-0.01524777,0.06528500,-0.01129142,0.10313214,-0.00060448,0.99684610,0.05014783,0.03195298,0.05255527
1757961787984,0.01520527,-0.07590754,0.16725793,-0.04072205,0.10992716,-0.00902521,0.99684029,0.04991979,0.03256857,0.05250473
1757961787995,0.18977397,-0.07821654,0.08832161,-0.03252230,0.11991842,0.00749204,0.99682515,0.04973929,0.03323412,0.05254631
1757961788006,-0.26496953,-0.09101073,0.06701616,-0.02618062,0.14324145,0.00831956,0.99680273,0.04959137,0.03404343,0.05259332
1757961788018,-0.30522042,-0.08366578,0.13224358,-0.02674769,0.15900888,-0.00146381,0.99678021,0.04944425,0.03491798,0.05258527
1757961788028,0.18520271,0.03273108,-0.16831492,-0.02048304,0.16754814,-0.00290504,0.99675369,0.04933057,0.03584787,0.05256914
1757961788040,-0.03096094,0.00520047,0.07740235,-0.01263083,0.16715633,-0.00027761,0.99672344,0.04926047,0.03677559,0.05256760
1757961788051,-0.07845466,0.15037950,0.08006951,-0.00634465,0.17065885,0.00202767,0.99668856,0.04922462,0.03773981,0.05257906
1757961788062,-0.25727849,0.06184183,0.05880267,0.00718224,0.16895821,-0.00467413,0.99665168,0.04926485,0.03868598,0.05255288
1757961788073,0.22131271,0.08663057,-0.03683767,0.01105369,0.19015483,0.00665508,0.99660602,0.04932509,0.03972232,0.05258915
1757961788084,-0.47332063,-0.11490426,0.03075459,0.02031143,0.18753966,0.01203164,0.99655627,0.04943477,0.04073504,0.05265412
1757961788095,0.01947263,-0.07465631,-0.07863375,0.01211224,0.20372206,0.01862432,0.99650162,0.04950078,0.04184532,0.05275563
1757961788106,0.02441213,-0.02000051,-0.02371464,0.00784973,0.19658891,0.01055855,0.99644947,0.04954474,0.04294622,0.05281476
1757961788117,-0.10643687,0.22047636,0.09123160,0.00406998,0.19884546,-0.00531375,0.99640130,0.04956753,0.04405976,0.05278500
1757961788128,0.16641505,-0.01247422,-0.04810003,0.01787190,0.20085684,0.00191624,0.99634587,0.04966672,0.04517451,0.05279563
1757961788139,0.07835507,-0.01080143,0.03246530,0.02402789,0.20213405,-0.01668622,0.99629214,0.04980128,0.04630646,0.05270219
1757961788151,-0.01333691,0.03079471,0.03160847,0.01462772,0.19865244,-0.00655499,0.99623716,0.04988392,0.04742885,0.05266515
1757961788162,-0.24819415,0.11849757,-0.02230480,0.01118743,0.20004735,0.00429598,0.99618036,0.04994490,0.04851911,0.05268857
1757961788173,0.08774415,-0.09471905,-0.10141494,0.01696284,0.18983561,0.00684935,0.99612122,0.05003989,0.04958219,0.05272692
1757961788184,0.27193956,-0.05379775,0.06228336,0.01489623,0.18877234,0.01734303,0.99605814,0.05012405,0.05064875,0.05282491
1757961788195,-0.01685042,0.00143203,-0.08151221,0.00752303,0.17736942,-0.01060337,0.99600861,0.05016580,0.05163315,0.05276606
1757961788206,0.15480469,0.01922965,0.15480469,-0.00223128,0.17797075,-0.00265281,0.99595832,0.05015342,0.05262089,0.05275134
1757961788217,-0.24383220,-0.01145853,-0.13547755,0.00083670,0.15265762,0.01346480,0.99590855,0.05015811,0.05347577,0.05282674
1757961788229,0.23054842,-0.00500718,0.05929573,0.00996756,0.17574767,0.00086576,0.99585265,0.05021343,0.05445117,0.05283155
1757961788240,-0.09164255,-0.01737026,-0.16520317,0.00822718,0.14232768,0.01042711,0.99580333,0.05025950,0.05524821,0.05288994
1757961788251,0.10643687,0.04739767,0.12164213,0.00780729,0.15058172,0.00967393,0.99575110,0.05030322,0.05609146,0.05294411
1757961788262,0.09804268,-0.06729460,-0.05590153,0.02169877,0.14892938,0.00856045,0.99569658,0.05042148,0.05690313,0.05299077
1757961788273,0.20839556,0.05494469,-0.08428443,0.01157786,0.14130409,0.00197307,0.99564584,0.05048805,0.05771563,0.05300211
1757961788284,-0.24970670,-0.24802615,-0.12343992,0.01602685,0.13626917,0.00826483,0.99559475,0.05057700,0.05847192,0.05304798
1757961788295,0.21101309,-0.08946859,0.13435995,0.00152676,0.14749192,0.01008675,0.99554386,0.05058532,0.05927575,0.05310296
1757961788307,0.09764850,0.05258415,-0.06514550,-0.00445057,0.14646146,0.01129672,0.99549258,0.05056040,0.06009594,0.05316622
1757961788318,0.10082703,0.19795098,-0.07055225,-0.01345058,0.13116796,0.00844625,0.99544887,0.05048440,0.06083703,0.05321394
1757961788329,-0.16254834,-0.15683480,-0.05045996,-0.00245489,0.11551571,0.01144576,0.99540640,0.05047065,0.06148392,0.05327804
1757961788340,-0.07206040,0.12917345,0.13089096,-0.00464454,0.10640040,0.00636271,0.99536950,0.05044511,0.06206913,0.05331303
1757961788351,0.42049473,-0.03100233,-0.29581155,0.00007392,0.09280691,0.00963857,0.99533404,0.05044552,0.06258884,0.05336701
1757961788362,-0.17592870,-0.04823525,0.03321534,0.00110928,0.08806920,0.00398998,0.99530198,0.05045162,0.06307322,0.05338895
1757961788373,0.14987909,0.00488602,-0.07078796,-0.00840671,0.06480306,0.01117760,0.99527815,0.05040497,0.06343288,0.05345099
1757961788385,0.28663540,0.02789922,0.02893268,-0.00220269,0.06151267,0.00603574,0.99525474,0.05039252,0.06378043,0.05348509
1757961788396,-0.01315155,0.05964326,0.12535070,0.00430283,0.04483809,0.01061839,0.99523438,0.05041640,0.06402928,0.05354402
1757961788407,0.12821738,0.07964679,0.06657441,0.01846184,0.04891268,0.01407130,0.99520724,0.05051979,0.06430319,0.05362282
1757961788418,0.16725793,0.07317535,-0.12164213,0.02792428,0.03345382,0.02097531,0.99518083,0.05067616,0.06449053,0.05374028
1757961788429,-0.06082107,0.01413615,-0.16725793,0.02427822,0.01564086,0.01326467,0.99516420,0.05081212,0.06457812,0.05381456
1757961788440,0.16240110,-0.00072564,-0.00845690,0.02953855,0.01558393,0.01257785,0.99514674,0.05097311,0.06466305,0.05388311
1757961788452,0.08674619,-0.07866298,-0.02905244,0.01212728,0.00099245,0.01871679,0.99513714,0.05104163,0.06466866,0.05398886
1757961788463,0.15051775,0.04632405,0.17981221,0.00244136,-0.00330586,0.00329950,0.99513664,0.05105505,0.06465048,0.05400701
1757961788474,-0.01208566,-0.11067846,-0.07047707,0.01387426,-0.00262637,0.00667030,0.99513154,0.05113344,0.06463564,0.05404470
1757961788485,0.21453465,0.09169267,-0.20028713,0.01234476,-0.01273141,0.00343629,0.99513157,0.05120196,0.06456498,0.05406377
1757961788496,-0.07684824,0.07876923,0.00890398,0.00775201,-0.02093687,-0.00217193,0.99513759,0.05124537,0.06444773,0.05405161
1757961788507,0.01561869,-0.06484498,-0.00898420,0.02009511,-0.01356490,0.00061013,0.99513653,0.05135690,0.06437245,0.05405499
1757961788518,0.20124610,0.00713553,-0.01548047,0.00938699,-0.00507907,-0.00285408,0.99513652,0.05140899,0.06434426,0.05403915
1757961788530,-0.16834783,-0.07807829,-0.08679804,0.01190982,-0.01548126,-0.00531420,0.99514033,0.05147628,0.06425679,0.05400913
1757961788541,0.00053824,0.00446781,0.03579293,0.01268172,-0.00711027,-0.00509590,0.99514077,0.05154730,0.06421697,0.05398059
1757961788552,0.12439663,-0.16327705,-0.10255811,0.00101772,-0.00544395,0.00124732,0.99514205,0.05155295,0.06418676,0.05398751
1757961788563,-0.03096094,-0.15250681,0.07740235,-0.03390122,0.00089004,0.00551968,0.99514980,0.05136480,0.06419170,0.05401815
1757961788574,-0.12301198,-0.16754581,-0.02068464,-0.03125377,0.00965027,-0.00422804,0.99515662,0.05118978,0.06424574,0.05399447
1757961788585,0.09315925,0.01449242,-0.08749230,-0.05105459,0.02611782,0.00266272,0.99516098,0.05090642,0.06439069,0.05400925
1757961788597,0.03096094,0.03797553,-0.13932422,-0.02639108,0.00366146,-0.01398758,0.99517136,0.05075995,0.06441102,0.05393162
1757961788608,0.05945122,0.02699663,-0.10972449,-0.01466639,0.00126652,-0.00522345,0.99517667,0.05067782,0.06441811,0.05390237
1757961788619,-0.07546729,0.14171497,0.00234971,-0.01260686,-0.00749615,-0.00574964,0.99518465,0.05060785,0.06437650,0.05387046
1757961788630,-0.03096094,0.08731952,-0.09288282,-0.00212454,-0.00180891,-0.00119150,0.99518626,0.05059606,0.06436646,0.05386384
1757961788641,0.13255205,0.05617166,-0.01789789,-0.00069522,-0.00062720,0.00349559,0.99518562,0.05059213,0.06436292,0.05388359
1757961788652,-0.16590131,-0.10422988,0.08014225,-0.00841256,-0.00108569,0.00116441,0.99518803,0.05054544,0.06435690,0.05389005
1757961788663,0.21672657,-0.09892987,-0.21672657,-0.02697576,-0.01030457,-0.00228548,0.99520000,0.05039573,0.06429970,0.05387737
1757961788675,-0.04644141,-0.06482447,0.13932422,-0.03620822,-0.00023056,0.00739112,0.99520802,0.05019477,0.06429843,0.05391839
1757961788686,-0.04780755,-0.08590098,-0.09260144,-0.00977612,-0.00961643,0.00409661,0.99521301,0.05014003,0.06424457,0.05394133
1757961788698,-0.02441261,0.06180099,-0.08418141,-0.01338375,-0.00199804,0.00367372,0.99521661,0.05006039,0.06423268,0.05396319
1757961788708,0.11092490,0.15427880,0.01322958,-0.00874863,0.00500650,0.00939033,0.99521454,0.05001446,0.06425897,0.05401249
1757961788719,0.03776459,0.27581073,-0.20808746,0.01732064,-0.00254309,0.00017539,0.99521064,0.05010886,0.06424511,0.05401345
1757961788730,0.01891149,0.06387982,0.06742358,0.02526514,-0.00544301,-0.01257653,0.99520928,0.05025161,0.06421436,0.05394239
1757961788741,0.04073326,-0.03109703,-0.03571135,0.00462731,-0.01434414,-0.03301106,0.99522291,0.05027706,0.06413546,0.05376083
1757961788753,0.28896958,0.00973261,-0.03992343,-0.03376690,-0.01275954,-0.03376887,0.99524746,0.05008628,0.06406337,0.05357003
1757961788764,0.18234075,-0.09362345,-0.05055127,-0.03092687,-0.01423476,0.00334114,0.99526016,0.04991463,0.06398437,0.05358858
1757961788775,-0.11397101,-0.12912169,0.01767099,-0.02876894,-0.00188357,-0.01478644,0.99527336,0.04975353,0.06397382,0.05350577
1757961788786,-0.10643687,-0.00688989,0.06082107,-0.04588323,-0.00172550,-0.02090589,0.99529308,0.04949658,0.06396416,0.05338870
1757961788797,-0.11817680,-0.04961719,-0.00179684,-0.01839922,-0.00311851,-0.00826165,0.99530173,0.04939446,0.06394685,0.05334285
1757961788808,0.15480469,0.09639011,-0.04644141,-0.00066224,-0.01519167,-0.01241473,0.99531101,0.04939079,0.06386254,0.05327395
1757961788819,-0.00589033,0.01529730,-0.27150305,-0.00710703,-0.00436439,-0.01159869,0.99531803,0.04935099,0.06383810,0.05320899
1757961788831,-0.18246320,0.04074536,-0.03041053,0.00540687,-0.01823194,-0.01761206,0.99532834,0.04938127,0.06373600,0.05311037
1757961788842,-0.04561580,-0.06260293,0.01520527,0.00892901,-0.00697827,-0.01131402,0.99533174,0.04943127,0.06369692,0.05304701
1757961788853,0.32314584,0.00067293,-0.08866807,0.00197139,-0.01194213,-0.00627503,0.99533724,0.04944211,0.06363124,0.05301249
1757961788864,-0.06964632,-0.07282344,0.19746467,-0.01150153,0.00126067,0.00251605,0.99533927,0.04937655,0.06363842,0.05302684
1757961788875,-0.06463755,-0.06182550,-0.05182270,-0.02289059,-0.00201350,-0.01134499,0.99534944,0.04925180,0.06362745,0.05296501
1757961788886,0.05330848,0.16177227,-0.04330457,-0.02206131,-0.00281630,-0.01328543,0.99536061,0.04912715,0.06361154,0.05288994
1757961788898,0.12041887,0.02127494,-0.05575709,-0.02709663,0.00117684,-0.02132473,0.99537389,0.04897677,0.06361807,0.05277159
1757961788909,-0.15480469,-0.04886023,0.21672657,-0.02748665,0.00749617,-0.02189737,0.99538516,0.04882422,0.06365967,0.05265006
1757961788920,0.02479417,-0.10690026,-0.20972309,-0.03947613,-0.00116019,-0.00091871,0.99539666,0.04860315,0.06365318,0.05264492
1757961788931,-0.02501754,0.02634898,0.07228826,-0.01843190,-0.00198695,-0.01334135,0.99540627,0.04850085,0.06364215,0.05257087
1757961788942,0.07740235,0.10231623,-0.12384376,-0.00394325,0.00182510,-0.00995410,0.99540961,0.04847897,0.06365228,0.05251563
1757961788953,-0.17355921,0.00731154,0.02068464,-0.00855135,-0.00194668,-0.01908853,0.99541827,0.04843108,0.06364138,0.05240873
1757961788965,-0.09723134,-0.01972145,0.03957394,0.00036338,-0.01104863,-0.03851041,0.99543373,0.04843315,0.06357840,0.05218922
1757961788976,0.04131143,0.03282591,0.03356554,-0.01198189,-0.01421072,-0.02745285,0.99544953,0.04836845,0.06350166,0.05204098
1757961788987,0.12862707,0.03380135,-0.12655244,-0.00136587,-0.01625198,-0.02105917,0.99546197,0.04836073,0.06340984,0.05192199
1757961788998,-0.06644272,0.05597971,0.00369887,0.00711647,-0.01802704,-0.01697444,0.99547133,0.04840023,0.06330979,0.05182778
1757961789009,0.04644141,0.02261600,-0.09288282,0.00037784,-0.01340219,-0.01262975,0.99547960,0.04840233,0.06323540,0.05175769
1757961789020,0.00470997,-0.09400913,0.14735482,-0.00045673,-0.01636729,0.00182065,0.99548506,0.04839975,0.06314293,0.05176797
1757961789031,-0.06249486,0.00042830,0.06249486,0.00169505,-0.03679270,0.00183930,0.99549690,0.04840907,0.06294057,0.05177809
1757961789042,-0.00478487,0.02210914,0.06670675,-0.00520556,-0.03268531,-0.00462760,0.99551109,0.04838018,0.06275917,0.05175241
1757961789054,-0.06192188,-0.03132376,-0.10836329,0.01105903,-0.03836720,-0.00275610,0.99552230,0.04844156,0.06254623,0.05173711
1757961789065,-0.00410953,0.08546969,0.05068422,-0.00945650,-0.03662440,-0.00043994,0.99553787,0.04838860,0.06234113,0.05173465
1757961789076,0.03510749,-0.08236957,-0.11306271,0.00146619,-0.03246092,0.00155342,0.99554829,0.04839674,0.06216097,0.05174327
1757961789087,-0.10836329,-0.22591810,0.15480469,-0.00177178,-0.02179566,-0.00411367,0.99555750,0.04838690,0.06204001,0.05172044
1757961789098,-0.15610191,-0.04048578,0.12784208,-0.01720314,-0.01333484,0.00273539,0.99556611,0.04828971,0.06196467,0.05173589
1757961789109,0.06283946,-0.01866282,-0.07912121,-0.00356878,-0.00754167,0.00560671,0.99556808,0.04826972,0.06192243,0.05176729
1757961789120,-0.05770461,0.17942749,-0.14975051,-0.00738587,-0.00062354,0.00604276,0.99556853,0.04822910,0.06191900,0.05180053
1757961789132,-0.12595473,0.06328411,0.06712894,-0.00472067,0.00759916,-0.00254586,0.99556791,0.04820290,0.06196118,0.05178640
1757961789143,-0.18342209,0.01657725,0.09575208,-0.00941420,0.01385295,0.00246284,0.99556491,0.04815018,0.06203875,0.05180019
1757961789154,0.22807900,-0.05476272,0.16725793,-0.00495741,0.02057942,-0.00149423,0.99555950,0.04812242,0.06215400,0.05179182
1757961789166,-0.11846006,0.00627658,0.16402161,-0.00460345,0.02222227,-0.00259185,0.99555352,0.04809572,0.06228289,0.05177679
1757961789176,0.10477879,0.00221338,-0.21102097,-0.00334349,0.01831545,-0.00173663,0.99554878,0.04807800,0.06237996,0.05176758
1757961789187,-0.14232746,0.10577678,-0.01310540,-0.00847795,0.02051862,0.00275329,0.99554301,0.04803010,0.06249589,0.05178314
1757961789198,-0.00027399,-0.02412830,-0.14453005,-0.00227119,0.00717970,0.00344161,0.99554012,0.04801749,0.06253574,0.05180224
1757961789210,0.04714762,0.00128697,0.10636618,-0.00014328,-0.00400570,0.00995353,0.99553869,0.04801670,0.06251371,0.05185699
1757961789221,0.03067948,-0.06682549,-0.05896652,0.00769040,-0.00985868,0.00874827,0.99553754,0.04805938,0.06245899,0.05190554
1757961789232,-0.00301264,-0.05664873,0.15816338,0.01130864,-0.01208781,0.02064168,0.99553247,0.04812554,0.06238828,0.05202629
1757961789243,0.03901461,0.07967892,-0.05467740,0.02162685,-0.01578781,0.01627769,0.99552761,0.04824124,0.06230381,0.05211338
1757961789254,0.06966104,0.16127111,-0.00069801,0.02493800,-0.02243310,0.01929536,0.99552298,0.04838214,0.06217707,0.05222240
1757961789265,0.00460342,0.13893946,0.00823035,0.02115640,-0.01538866,0.00844640,0.99552016,0.04849850,0.06209243,0.05226885
1757961789276,-0.03250899,-0.00245840,-0.01308803,0.01777930,-0.01201316,0.00808677,0.99551715,0.04859718,0.06202575,0.05231373
1757961789287,0.10836329,0.02950964,0.18576563,0.00703414,-0.01094229,-0.00132386,0.99551941,0.04863622,0.06196503,0.05230639
1757961789299,-0.09342335,-0.07274085,0.09205351,0.00510129,-0.00138861,0.00593285,0.99551675,0.04866479,0.06195725,0.05233961
1757961789310,0.10011421,-0.10477021,-0.13208786,0.00163642,0.00005133,-0.00586062,0.99551803,0.04867411,0.06195754,0.05230620
1757961789321,-0.13246629,-0.07629904,-0.06803070,-0.00065550,0.00579810,-0.01239421,0.99551980,0.04867051,0.06198943,0.05223804
1757961789332,-0.04782747,0.02394182,0.07962030,0.00027876,0.00095797,-0.01762991,0.99552457,0.04867207,0.06199480,0.05213931
1757961789343,0.09598670,0.08855151,-0.00225189,0.01095330,-0.00020642,-0.01533373,0.99552611,0.04873231,0.06199366,0.05205497
1757961789354,-0.14087227,0.11059300,0.07852820,0.02290491,-0.00461792,-0.01574951,0.99552604,0.04885943,0.06196803,0.05196756
1757961789366,0.13657343,0.11418183,-0.07561538,0.03011527,-0.00585367,-0.00475609,0.99552118,0.04902808,0.06193525,0.05194093
1757961789377,-0.07588194,-0.06973662,-0.01658622,0.03110062,-0.00954277,0.00522291,0.99551444,0.04920069,0.06188229,0.05196992
1757961789388,-0.01548047,-0.04886023,0.03096094,0.00595357,-0.00030463,-0.00317233,0.99551383,0.04923373,0.06188060,0.05195231
1757961789399,-0.00068492,-0.11267929,-0.01424638,-0.00450351,-0.00877110,-0.00142152,0.99551855,0.04920851,0.06183148,0.05194435
1757961789410,0.07602633,-0.13803531,-0.03041053,-0.01501740,-0.00171425,0.00932468,0.99552057,0.04912441,0.06182188,0.05199657
1757961789421,-0.19766846,0.03623130,0.09123160,-0.02198520,-0.01206911,0.01272124,0.99552711,0.04900130,0.06175429,0.05206781
1757961789432,0.10794863,0.12546782,-0.00055287,-0.00680070,-0.00951142,0.00876959,0.99552969,0.04896355,0.06170150,0.05211648
1757961789444,0.09288282,0.10546070,-0.21672657,0.01428835,-0.00964328,0.01423939,0.99552496,0.04904285,0.06164798,0.05219551
1757961789455,-0.09315916,0.13344921,0.02897023,0.02665904,-0.00648127,0.00076824,0.99551972,0.04918948,0.06161234,0.05219973
1757961789466,0.08799450,-0.04171315,-0.15779260,0.05340369,-0.00714625,-0.02404604,0.99551437,0.04949121,0.06157196,0.05206387
1757961789477,-0.17924805,-0.10374448,0.11949870,0.00948599,-0.00640880,-0.02952538,0.99552266,0.04954480,0.06153575,0.05189705
1757961789488,0.03068944,-0.10020058,-0.02371457,-0.00976571,-0.01118488,-0.01305551,0.99553287,0.04949109,0.06147423,0.05182525
1757961789499,0.03096094,-0.16823576,-0.02814631,-0.00501468,0.00829719,-0.00127459,0.99553178,0.04946326,0.06152028,0.05181817
1757961789510,-0.23220704,-0.12106211,0.15480469,-0.03249017,0.01578685,0.00652402,0.99553342,0.04928294,0.06160790,0.05185438
1757961789522,0.01698606,-0.08475802,-0.08958779,-0.04724147,0.04592819,0.01747285,0.99552543,0.04901839,0.06186510,0.05195223
1757961789533,-0.09123160,-0.02268911,-0.04561580,-0.03251960,0.03780046,0.00859427,0.99551869,0.04883628,0.06207678,0.05200036
1757961789544,-0.11085122,0.02194218,0.05901929,-0.01920780,0.03420998,-0.00508665,0.99551353,0.04872968,0.06226665,0.05197213
1757961789555,-0.01178066,0.02137491,0.15438140,-0.01848098,0.01561571,-0.01034980,0.99551614,0.04862618,0.06235409,0.05191417
1757961789566,-0.03455462,0.04228945,0.01451294,-0.01674690,0.01448785,-0.00066237,0.99551583,0.04853324,0.06243450,0.05191049
1757961789577,0.12384376,0.05744705,0.03096094,-0.01465290,0.01981441,0.01121404,0.99550964,0.04845191,0.06254447,0.05197273
1757961789589,-0.00140470,0.02918046,-0.06831954,0.00385930,0.01374988,0.01949330,0.99549762,0.04847430,0.06262422,0.05208579
1757961789600,0.01176354,0.04547668,-0.04082640,-0.01149567,0.01042733,0.02526436,0.99548988,0.04841165,0.06268105,0.05222348
1757961789611,0.03210754,-0.02445692,-0.00000000,-0.01739115,0.02015640,0.03026182,0.99547890,0.04831686,0.06279090,0.05238841
1757961789622,-0.08411721,-0.17435271,0.14145083,-0.00500056,0.00957397,0.00828742,0.99547443,0.04828886,0.06284452,0.05243482
1757961789633,0.22902802,-0.01018281,0.06164544,-0.01332978,0.00898909,0.00660288,0.99547294,0.04821488,0.06289441,0.05247146
1757961789644,-0.14722025,-0.07586418,0.17870977,-0.01178614,0.00617182,0.00373417,0.99547284,0.04814829,0.06292928,0.05249256
1757961789655,0.02187859,0.09508952,-0.12047432,-0.01666657,-0.00025132,0.00941594,0.99547461,0.04805746,0.06292791,0.05254388
1757961789666,0.08345723,0.17224724,0.01164838,-0.03157618,0.00238389,0.02245633,0.99547565,0.04787905,0.06294138,0.05267076
1757961789678,-0.03397484,0.06538315,-0.06000394,0.00282265,0.00440431,0.01623781,0.99546858,0.04789472,0.06296582,0.05276088
1757961789689,-0.01342447,-0.01985952,0.19725751,-0.00325641,0.01194653,0.01848724,0.99545973,0.04787648,0.06303272,0.05286441
1757961789700,-0.12577881,-0.06123402,0.07961384,-0.01536001,0.00170169,0.00382016,0.99546210,0.04779123,0.06304216,0.05288561
1757961789711,0.09424526,-0.01712091,-0.04849247,-0.02662641,0.00227256,-0.00569360,0.99547014,0.04764212,0.06305489,0.05285372
1757961789722,-0.00450377,-0.01592595,-0.12103895,-0.03220451,-0.00353797,0.00126556,0.99547946,0.04746500,0.06303543,0.05286068
1757961789733,0.00651811,0.02135679,-0.03394849,-0.01349203,0.00089071,-0.00268875,0.99548358,0.04738877,0.06304046,0.05284549
1757961789744,-0.00669588,0.06291117,0.06640079,-0.01655222,0.00130623,0.00112668,0.99548713,0.04729773,0.06304765,0.05285169
1757961789755,0.04869311,-0.09710696,0.07571357,-0.00022583,-0.00084793,0.00601592,0.99548571,0.04729648,0.06304294,0.05288508
1757961789767,0.01698606,-0.02015811,0.13451866,-0.00141895,0.00065457,0.01369575,0.99548178,0.04728853,0.06304661,0.05296177
1757961789778,0.01782138,-0.00485665,0.02253880,-0.00076451,-0.00562040,0.01469678,0.99547955,0.04728418,0.06301457,0.05304555
1757961789789,-0.03985278,0.13646146,-0.07660747,-0.01379086,-0.00936145,0.01055753,0.99548328,0.04720901,0.06296355,0.05310308
1757961789800,-0.04274882,-0.01397814,-0.16105369,-0.01327936,-0.01920935,0.01070062,0.99549034,0.04713531,0.06285694,0.05316247
1757961789811,0.03096094,-0.02092282,0.04644141,-0.01298260,-0.00904244,0.01702985,0.99549187,0.04706326,0.06280676,0.05325699
1757961789822,-0.02610670,-0.08756762,0.10052424,-0.01085014,-0.00886684,0.00938577,0.99549508,0.04700196,0.06275666,0.05331002
1757961789834,0.05753803,-0.06469175,-0.00945268,-0.00078706,0.00003797,0.00537548,0.99549368,0.04699759,0.06275687,0.05333985
1757961789845,-0.07438252,0.04707340,0.04273913,0.00079900,-0.00331099,0.01128229,0.99549125,0.04700206,0.06273833,0.05340303
1757961789856,-0.08360132,0.15658974,0.02251887,-0.00199898,-0.00383031,0.00705828,0.99549101,0.04699107,0.06271726,0.05344185
1757961789867,0.06871175,0.05455841,-0.01018455,-0.00285130,0.00740095,0.01517454,0.99548453,0.04697496,0.06275908,0.05352759
1757961789878,-0.03283261,0.03076270,-0.01184127,0.00190974,0.01106925,0.00843895,0.99547757,0.04698565,0.06282106,0.05357485
1757961789889,-0.03715614,-0.16113530,0.11709815,-0.00207238,0.00673022,0.01334087,0.99547182,0.04697426,0.06285808,0.05364822
1757961789900,-0.01238438,-0.01903394,0.08852014,-0.01321905,0.01274791,0.00898234,0.99546812,0.04690089,0.06292883,0.05369807
1757961789912,-0.02725989,-0.12128148,-0.03547896,-0.01436224,0.01260135,0.00837459,0.99546492,0.04682046,0.06299940,0.05374497
1757961789923,0.12038829,0.06516893,-0.21188892,-0.01588822,0.01246460,0.00417949,0.99546343,0.04673228,0.06306858,0.05376817
1757961789934,-0.12986064,-0.01836889,0.05409738,-0.01712607,0.00532623,0.00511410,0.99546450,0.04663552,0.06309867,0.05379706
1757961789945,0.17864188,0.05679633,0.02233023,-0.01203720,0.00418377,0.01009849,0.99546312,0.04656871,0.06312189,0.05385311
1757961789956,0.01548047,0.01100565,0.17028516,0.00368149,0.01017015,0.00923450,0.99545581,0.04658915,0.06317833,0.05390436
1757961789967,0.07740235,0.11283811,-0.04644141,0.00086407,-0.00262554,0.01093649,0.99545322,0.04659394,0.06316376,0.05396506
1757961789978,-0.10534099,0.04730670,0.08657413,-0.00587909,-0.01080394,0.02124162,0.99545214,0.04656102,0.06310326,0.05408401
1757961789990,0.18493625,0.03480749,-0.06755662,-0.00821572,-0.00404196,0.02501187,0.99544818,0.04651583,0.06308103,0.05422158
1757961790001,0.03123991,-0.04772812,-0.10090768,-0.01173950,-0.01087277,0.02884551,0.99544630,0.04645009,0.06302014,0.05438311
1757961790012,-0.09302103,-0.00093082,0.05044974,-0.01577313,-0.00930500,0.01150752,0.99545015,0.04636255,0.06296850,0.05444698
1757961790023,0.39629582,-0.11715589,-0.03479403,-0.02298212,0.00171309,0.01990788,0.99544943,0.04623385,0.06297809,0.05455846
1757961790034,-0.22958089,-0.03707711,0.03510749,-0.01650375,-0.00405379,0.00054673,0.99545494,0.04614225,0.06295559,0.05456150
1757961790045,0.16323415,0.00777986,-0.11317388,-0.01045879,-0.00218413,0.01027685,0.99545527,0.04608316,0.06294325,0.05461956
1757961790056,-0.18288116,0.09590559,0.10504158,-0.00230825,0.00200498,-0.00685445,0.99545723,0.04607047,0.06295428,0.05458186
1757961790068,0.08840188,0.13046725,-0.01262884,0.00793254,-0.00207918,-0.00842788,0.99545850,0.04611529,0.06294253,0.05453424
1757961790079,0.09244264,0.17441273,-0.07185498,0.01621572,-0.00285684,-0.01733837,0.99546062,0.04620609,0.06292654,0.05443715
1757961790090,-0.07459377,0.15057298,0.19647718,0.03673562,-0.00876254,-0.01181380,0.99545782,0.04640814,0.06287834,0.05437217
1757961790101,0.07599503,0.06307632,-0.03630874,0.03092404,-0.01143660,-0.01016545,0.99545689,0.04657977,0.06281487,0.05431576
1757961790112,0.01548047,-0.04886023,-0.07740235,0.03234569,-0.01554093,-0.00041548,0.99545404,0.04675929,0.06272862,0.05431345
1757961790123,0.04342405,-0.13726477,-0.03465705,0.01566597,-0.01288978,-0.00729050,0.99545668,0.04684702,0.06265643,0.05427262
1757961790134,-0.09123160,-0.04775404,0.03041053,0.00383424,-0.02450728,-0.01728950,0.99546958,0.04686849,0.06251919,0.05417580
1757961790146,0.20304294,-0.04830304,-0.01119570,0.01155687,-0.02124770,0.00656370,0.99547197,0.04693263,0.06240127,0.05421223
1757961790157,-0.03397213,-0.00071382,0.02630100,0.03373496,-0.03152600,0.00031452,0.99547400,0.04712154,0.06222472,0.05421399
1757961790168,-0.06082107,0.10417983,0.03041053,0.02679873,-0.01518420,0.00238998,0.99547147,0.04727162,0.06213969,0.05422737
1757961790179,0.00000000,0.08196589,-0.15205267,0.03578635,-0.02032462,0.01275469,0.99546514,0.04747202,0.06202587,0.05429880
1757961790190,0.06868257,0.04124209,-0.43461427,0.05779052,-0.01449421,-0.00716155,0.99545704,0.04778987,0.06194615,0.05425941
1757961790201,-0.15868769,-0.08754691,0.15315850,0.02841175,-0.01756153,-0.01229364,0.99545925,0.04794897,0.06184781,0.05419057
1757961790212,0.04837647,-0.16382561,-0.16945585,0.00179247,-0.01446668,-0.02570626,0.99547152,0.04795892,0.06176752,0.05404790
1757961790224,0.00000000,-0.18274210,0.13932422,-0.00939648,-0.01634566,-0.00841851,0.99548219,0.04790677,0.06167680,0.05400118
1757961790235,-0.04794453,-0.08001707,-0.03095847,-0.01276465,-0.01052602,-0.01731543,0.99549453,0.04783529,0.06161786,0.05390421
1757961790246,0.00193506,-0.08991004,-0.01520403,-0.00614531,-0.00635366,0.00024663,0.99549828,0.04780118,0.06158259,0.05390558
1757961790257,0.02610670,0.07856505,-0.14964252,-0.01994223,-0.00108013,0.01185209,0.99550043,0.04768851,0.06157649,0.05397254
1757961790268,-0.15093624,0.02555637,0.04352320,-0.01219139,0.00058040,0.01307766,0.99549954,0.04762146,0.06157968,0.05404447
1757961790279,-0.00084439,0.01285275,0.01632486,-0.01229410,-0.00213887,0.00660939,0.99550154,0.04755323,0.06156781,0.05408115
1757961790290,0.10561496,-0.23231802,0.01589019,-0.01302071,-0.00434197,-0.00026618,0.99550661,0.04748031,0.06154350,0.05407966
1757961790302,0.14112106,0.02651311,-0.09343569,-0.01987745,-0.00250211,0.00413089,0.99551148,0.04736999,0.06152961,0.05410259
1757961790313,-0.17027159,-0.04837154,0.07739618,-0.01741340,-0.00072420,0.00632463,0.99551444,0.04727247,0.06152555,0.05413801
1757961790324,-0.01520527,0.12805685,-0.09123160,-0.01980664,0.00712140,0.00706210,0.99551508,0.04716156,0.06156543,0.05417755
1757961790335,0.06586771,-0.10906480,0.07571971,-0.02610530,0.01655319,0.02017560,0.99551019,0.04701798,0.06165648,0.05428852
1757961790345,-0.04590762,0.02682550,0.10837208,-0.04625961,-0.00007353,0.01483527,0.99551679,0.04679593,0.06165612,0.05435973
1757961790356,-0.05514917,-0.19785597,0.12384376,-0.01524447,0.00878368,0.00196622,0.99551715,0.04671132,0.06170487,0.05437064
1757961790367,0.23220704,0.19870634,-0.01548047,-0.02453548,0.00065567,-0.00037137,0.99552342,0.04657515,0.06170851,0.05436858
1757961790378,-0.11185818,0.03556927,-0.01745305,-0.00154364,-0.00353959,-0.00152795,0.99552555,0.04656635,0.06168834,0.05435987
1757961790389,0.02461273,0.13640061,0.08213463,-0.00587777,0.00469259,-0.00165938,0.99552596,0.04653403,0.06171415,0.05435074
1757961790400,0.14735286,0.11683865,-0.12468319,-0.01986742,-0.00153222,-0.00120831,0.99553206,0.04642277,0.06170557,0.05434398
1757961790411,-0.11850557,-0.01662526,0.22152942,0.00241132,0.00830678,-0.00433144,0.99552991,0.04643603,0.06175125,0.05432015
1757961790423,0.11638940,0.09045406,-0.11113668,0.01067783,0.00189931,-0.00874497,0.99552913,0.04649583,0.06176189,0.05427118
1757961790434,0.11209518,0.05491593,0.06330406,0.00910192,-0.00154633,-0.02315706,0.99553430,0.04654634,0.06175331,0.05414266
1757961790445,-0.14358684,0.03823908,0.17548007,0.00686516,-0.00918323,-0.02939476,0.99554472,0.04658513,0.06170142,0.05397658
1757961790456,0.21538406,0.05371633,-0.05217205,0.02252047,-0.02646348,-0.02235292,0.99555458,0.04670899,0.06155587,0.05385364
1757961790467,-0.04091599,0.03658119,-0.03649264,0.01802078,-0.00940411,-0.01507582,0.99555766,0.04680991,0.06150321,0.05376921
1757961790478,0.09123160,0.06937403,0.04561580,0.01638228,-0.01539742,-0.00457396,0.99556005,0.04690165,0.06141698,0.05374360
1757961790490,0.00000000,-0.14017355,0.18246320,0.02792676,-0.02213836,-0.00608176,0.99556215,0.04705804,0.06129301,0.05370954
1757961790501,0.08320752,-0.01856987,-0.05708423,0.02303367,-0.01781163,-0.00349510,0.99556323,0.04718588,0.06119415,0.05369015
1757961790512,-0.06192188,-0.03688706,-0.01548047,0.01522740,-0.02945863,-0.01292103,0.99557312,0.04727039,0.06103066,0.05361843
1757961790525,-0.06049749,-0.00063151,-0.20467471,0.01696369,-0.02847212,-0.00934712,0.99558247,0.04738065,0.06084559,0.05355768
1757961790535,0.10707519,-0.02367774,-0.03160024,0.00878700,-0.02435415,-0.01294485,0.99559183,0.04742722,0.06071651,0.05348907
1757961790547,0.03227029,-0.07948231,-0.04171181,0.02563646,-0.03170668,-0.01182680,0.99559941,0.04757207,0.06053737,0.05342225
1757961790558,0.09055390,0.07548120,0.00273991,0.00381633,-0.03262092,-0.01657002,0.99561432,0.04759325,0.06035632,0.05333028
1757961790569,-0.03096094,-0.09820423,-0.06192188,0.00778776,-0.03448534,-0.00184636,0.99562439,0.04763647,0.06016493,0.05332004
1757961790580,0.05383486,0.03030779,-0.03123244,0.00011757,-0.02966501,-0.01193783,0.99563796,0.04763713,0.05999881,0.05325319
1757961790591,-0.18658335,-0.02989135,0.08909055,0.00928000,-0.01737452,-0.01009213,0.99564441,0.04768956,0.05990064,0.05319616
1757961790602,-0.00767171,0.06039033,-0.12274742,0.00165918,-0.03195022,-0.01535948,0.99565890,0.04769861,0.05972651,0.05311246
1757961790614,-0.13880037,-0.09062348,0.01436828,-0.00218713,-0.02417861,-0.01525837,0.99567216,0.04768636,0.05959111,0.05302701
1757961790625,0.20472155,-0.14919624,-0.01533744,-0.00859730,-0.02020688,-0.02466741,0.99568872,0.04763778,0.05947694,0.05288764
1757961790636,-0.15372619,-0.07419739,0.04812662,-0.01537676,-0.01467914,-0.00664198,0.99569952,0.04755321,0.05939621,0.05285111
1757961790647,0.08127906,-0.04661149,-0.07740863,-0.02546277,-0.00055765,-0.00861571,0.99570907,0.04741062,0.05939308,0.05280286
1757961790658,-0.30410533,0.01389856,-0.09123160,-0.03374478,-0.01736022,-0.00737507,0.99572603,0.04722165,0.05929587,0.05276156
1757961790669,0.04948221,0.01200125,-0.03179025,-0.03658569,-0.01203367,-0.00062086,0.99573980,0.04701860,0.05922908,0.05275811
1757961790680,-0.04644141,-0.01935059,-0.01548047,-0.02170895,0.00200799,-0.00431557,0.99574609,0.04689811,0.05924022,0.05273416
1757961790690,-0.00456566,0.11031921,0.01753214,-0.00990158,-0.01753631,-0.00368371,0.99575435,0.04685009,0.05915517,0.05271630
1757961790701,0.04655633,0.07424569,-0.04436176,-0.01279781,-0.00934080,-0.00782929,0.99576315,0.04677842,0.05910287,0.05267245
1757961790713,-0.03041053,0.01211670,-0.06082107,0.00498226,-0.01155861,0.00203799,0.99576507,0.04680632,0.05903814,0.05268386
1757961790724,-0.22997400,0.03383109,0.09035698,0.00292973,-0.01909023,-0.00351033,0.99577155,0.04682244,0.05893314,0.05266456
1757961790735,0.10422519,-0.00091577,-0.02792240,0.00803057,-0.01454389,0.00613207,0.99577244,0.04686741,0.05885169,0.05269890
1757961790746,0.04561580,0.01437373,-0.01520527,0.00333474,-0.01923938,0.00532768,0.99577634,0.04688608,0.05874395,0.05272873
1757961790757,-0.12103895,-0.00520529,0.09120144,-0.00145913,-0.01303112,0.00393650,0.99577980,0.04687806,0.05867228,0.05275038
1757961790768,0.01244067,-0.00249029,-0.07436758,0.00743305,-0.01128793,-0.00782338,0.99578388,0.04691968,0.05860907,0.05270657
1757961790779,-0.01520527,0.04894195,0.03041053,-0.00506763,-0.00796136,-0.00550667,0.99578947,0.04689130,0.05856449,0.05267573
1757961790791,-0.12164213,0.01342340,0.01520527,-0.00015184,-0.00497081,-0.00567793,0.99579283,0.04689045,0.05853665,0.05264394
1757961790802,0.13960066,0.07207878,-0.09398856,0.00836317,0.00061181,-0.00134007,0.99579084,0.04693687,0.05854005,0.05263650
1757961790813,-0.23220704,-0.00169318,0.15480469,0.00780851,-0.00194819,-0.00262623,0.99579020,0.04698021,0.05852923,0.05262192
1757961790824,0.13739534,0.04962794,-0.01465733,-0.00012205,0.00205917,-0.00251093,0.99579030,0.04697952,0.05854077,0.05260786
1757961790835,-0.12315266,-0.02201669,0.04575032,0.01055923,-0.00527370,-0.00334924,0.99579023,0.04703813,0.05851150,0.05258928
1757961790846,0.07549411,0.07426300,-0.02933639,0.02682063,-0.00808027,-0.00184426,0.99578629,0.04718966,0.05846584,0.05257886
1757961790859,0.12384098,0.12090447,-0.00814450,0.03305371,-0.01776052,-0.00531741,0.99578477,0.04739294,0.05835662,0.05254615
1757961790870,-0.15094008,-0.02195318,0.05402196,0.04336025,-0.02368155,-0.00445246,0.99578227,0.04763576,0.05822400,0.05252122
1757961790881,0.07602633,0.02209515,0.09123160,0.03172217,-0.02991410,0.01355872,0.99577953,0.04781341,0.05805648,0.05259715
1757961790892,0.04897855,-0.17020882,0.14327634,0.02732899,-0.03055060,0.00697735,0.99578005,0.04796372,0.05788845,0.05263552
1757961790903,-0.12413027,0.01903682,0.10256643,0.01959984,-0.04069596,0.01917810,0.99578230,0.04807347,0.05766055,0.05274292
1757961790914,0.15205267,0.04478426,-0.06082107,0.03095330,-0.03347425,0.02175916,0.99577829,0.04824681,0.05747310,0.05286477
1757961790925,-0.09148293,0.13390593,0.00478526,0.04688966,-0.03561756,0.01130357,0.99577375,0.04850471,0.05727720,0.05292694
1757961790937,0.21149143,0.07886436,-0.23277881,0.04641884,-0.02069008,0.02675073,0.99575973,0.04876465,0.05716134,0.05307675
1757961790948,-0.24328426,0.08137193,0.09123160,0.05404041,-0.01686522,0.00219099,0.99574963,0.04906728,0.05706689,0.05308902
1757961790959,0.24328426,0.25290635,-0.18246320,0.05001632,-0.01804603,-0.00350544,0.99574262,0.04934737,0.05696583,0.05306939
1757961790970,0.00534823,-0.04590860,0.06192690,0.03242441,-0.02592321,-0.02032710,0.99574787,0.04952570,0.05682326,0.05295759
1757961790981,-0.00525273,-0.07821641,-0.01520527,0.02303230,-0.02118548,-0.01201134,0.99575178,0.04965468,0.05670462,0.05289032
1757961790992,-0.19861995,-0.22061613,0.12370554,0.02952326,-0.01449440,0.00288098,0.99574733,0.04981854,0.05662417,0.05290631
1757961791003,-0.00082191,-0.04364451,0.04465691,0.02910363,0.00063915,0.00629756,0.99573708,0.04998152,0.05662775,0.05294158
1757961791015,-0.15397538,-0.03070394,0.14070641,0.01667006,0.00614866,0.01692648,0.99572549,0.05007404,0.05666188,0.05303552
1757961791026,0.18576563,-0.01910870,-0.04644141,0.02336256,0.01462188,0.01487695,0.99570994,0.05020370,0.05674303,0.05311809
1757961791037,-0.09232747,-0.09389423,-0.00219175,0.02518271,0.01585349,0.00800046,0.99569537,0.05034472,0.05683181,0.05316289
1757961791048,-0.04561580,-0.04680371,-0.03041053,0.01703249,0.01848268,-0.00245810,0.99568536,0.05044010,0.05693531,0.05314912
1757961791059,-0.15791360,-0.00816749,-0.05911204,0.00003004,0.01743192,-0.00441795,0.99568116,0.05044027,0.05703119,0.05312483
1757961791070,-0.07298528,-0.04614712,0.11887754,0.01035716,0.03079240,-0.00058521,0.99566850,0.05049827,0.05720363,0.05312155
1757961791082,0.04561580,0.03991382,-0.18246320,0.01961733,0.02733871,0.00305511,0.99565321,0.05060813,0.05735672,0.05313866
1757961791093,0.23278886,0.02272559,0.23813709,0.02132365,0.03145434,0.00392381,0.99563610,0.05072541,0.05752972,0.05316024
1757961791104,-0.07444952,-0.00639592,-0.02588388,0.01368665,0.02131702,0.01452453,0.99562067,0.05080342,0.05765123,0.05324303
1757961791115,0.06139356,-0.02415902,-0.00470131,0.01489290,0.02021589,0.00753439,0.99560783,0.05088533,0.05776242,0.05328447
1757961791126,-0.15494543,0.01509676,-0.12651765,-0.00566888,0.02152318,0.01250051,0.99559878,0.05085387,0.05788187,0.05335385
1757961791137,0.07725919,-0.07558648,-0.18397003,-0.00011889,0.00788643,0.00468072,0.99559485,0.05085320,0.05792603,0.05338006
1757961791148,-0.18631851,-0.01891325,0.13918601,0.00139085,0.01873528,0.00118949,0.99558804,0.05086092,0.05803001,0.05338666
1757961791159,0.27588655,-0.10372928,0.04451992,-0.00441020,0.01580619,0.00417994,0.99558288,0.05083623,0.05811853,0.05341007
1757961791171,-0.18548920,0.00271038,0.04796181,0.01001518,0.01297785,0.00985405,0.99557290,0.05089181,0.05819056,0.05346476
1757961791182,0.17028516,0.02576047,-0.06192188,0.03398217,0.01140022,0.01601017,0.99555477,0.05108041,0.05825383,0.05355361
1757961791193,-0.10657385,0.18109335,-0.10780671,0.00940516,0.00835087,-0.00194031,0.99554991,0.05113308,0.05830059,0.05354275
1757961791204,0.23137773,-0.04291684,-0.09246816,0.01555039,0.00448779,-0.00981252,0.99554694,0.05121938,0.05832550,0.05348829
1757961791215,-0.26316798,-0.02721176,0.12384376,0.00450446,-0.00237358,-0.01357293,0.99555047,0.05124438,0.05831233,0.05341296
1757961791226,0.21396961,0.00250425,-0.25917445,0.01447850,-0.00874787,-0.00851714,0.99555172,0.05132546,0.05826334,0.05336526
1757961791237,0.03041053,0.09527050,-0.10643687,0.02314745,-0.00174621,-0.00550737,0.99554725,0.05145509,0.05825356,0.05333442
1757961791249,-0.30850364,0.06727568,0.15217854,0.03687935,0.00249655,-0.00222480,0.99553651,0.05165977,0.05826741,0.05332207
1757961791260,0.15369648,-0.11846795,-0.16602507,0.02597148,-0.00037685,0.00018186,0.99552902,0.05180521,0.05826530,0.05332309
1757961791271,-0.04671785,-0.13782758,-0.00276437,0.00455697,-0.00484888,-0.00353127,0.99553032,0.05183050,0.05823839,0.05330349
1757961791282,-0.10836329,-0.06591294,0.18576563,-0.00022075,0.00169157,-0.00401249,0.99553103,0.05182928,0.05824778,0.05328122
1757961791293,0.35605080,-0.08949646,-0.07740235,-0.00608053,0.00703914,-0.00099602,0.99553080,0.05179553,0.05828685,0.05327570
1757961791304,-0.24479109,-0.07822771,0.09301240,-0.00488049,0.00881257,-0.00125633,0.99552970,0.05176820,0.05833620,0.05326866
1757961791315,0.04575032,0.04845529,-0.21769410,-0.01545710,0.00583828,0.00242299,0.99553154,0.05168241,0.05836860,0.05328211
1757961791327,-0.24768751,-0.05672141,-0.09288282,-0.01395649,0.01588337,0.00679571,0.99552837,0.05160495,0.05845675,0.05331982
1757961791338,-0.01009280,-0.05403956,-0.09729455,-0.01575770,0.01590784,0.00795952,0.99552529,0.05151592,0.05854663,0.05336480
1757961791349,0.13391755,-0.02773166,0.11187695,-0.02883956,0.02252081,0.00260870,0.99552542,0.05135730,0.05867050,0.05337914
1757961791360,-0.00145943,-0.05707982,0.09252810,-0.02396563,0.02083892,0.00452085,0.99552413,0.05122669,0.05878407,0.05340378
1757961791371,0.05029360,0.01717066,0.04083786,-0.02811898,0.01777067,-0.00030194,0.99552645,0.05106782,0.05888447,0.05340208
1757961791382,-0.06383981,-0.01305736,-0.11329512,-0.03708027,0.01323667,-0.00139266,0.99553305,0.05086202,0.05895794,0.05339435
1757961791393,-0.04644141,-0.02189035,-0.09288282,-0.04099917,0.00459098,0.00399830,0.99554195,0.05063448,0.05898342,0.05341654
1757961791404,0.03232831,-0.04031943,0.11068338,-0.04580223,0.00408821,0.00302108,0.99555270,0.05037799,0.05900631,0.05343346
1757961791416,0.16725793,-0.04217086,-0.09123160,-0.04711331,-0.00151714,-0.00234465,0.99556722,0.05011415,0.05899782,0.05342033
1757961791427,-0.12398197,-0.14498254,0.16613861,-0.04699041,-0.01507845,-0.00346627,0.99558631,0.04985336,0.05891413,0.05340109
1757961791438,0.16849079,0.02382779,-0.02780783,-0.03643218,-0.01027214,-0.00287269,0.99560077,0.04964934,0.05885661,0.05338500
1757961791449,0.01575691,0.07960412,0.02805835,-0.02031410,-0.02552740,-0.00671507,0.99561674,0.04953659,0.05871493,0.05334773
1757961791460,-0.13932422,0.24962257,0.03096094,-0.00909309,-0.01687648,-0.00101419,0.99562508,0.04948613,0.05862126,0.05334210
1757961791471,0.12246404,0.18677179,-0.01287653,0.00148777,-0.01721658,0.00089901,0.99563006,0.04949446,0.05852485,0.05334714
1757961791482,0.03123738,0.05379074,0.10587535,0.00513865,-0.02246747,-0.00088224,0.99563623,0.04952298,0.05840016,0.05334224
1757961791494,0.03096094,-0.10558164,0.21672657,-0.00230689,-0.01184563,0.00071161,0.99564051,0.04951017,0.05833441,0.05334619
1757961791505,0.18164129,0.00024828,-0.04602675,-0.00213453,-0.01377348,0.00592537,0.99564384,0.04949822,0.05825728,0.05337937
1757961791516,-0.33451586,-0.04240844,0.15205267,-0.01396070,-0.01326678,0.00595101,0.99565028,0.04942004,0.05818299,0.05341270
1757961791527,0.01433372,-0.05101798,-0.22045269,-0.02486513,-0.00672058,-0.00090434,0.99565940,0.04928452,0.05814636,0.05340777
1757961791538,0.01646075,-0.07424773,0.13852137,-0.04808446,-0.00929147,-0.00819122,0.99567819,0.04901525,0.05809433,0.05336190
1757961791549,-0.06082107,0.07222502,0.09123160,-0.03676577,-0.01105857,-0.00483868,0.99569337,0.04880936,0.05803240,0.05333480
1757961791560,0.18493632,-0.01186951,0.12536416,-0.01044277,-0.01598113,-0.00777336,0.99570368,0.04875141,0.05794371,0.05329166
1757961791572,-0.06136420,0.13409225,-0.00511368,0.00481915,-0.01038147,0.00641932,0.99570382,0.04877863,0.05788505,0.05332793
1757961791583,0.00083698,0.12985251,-0.02357507,0.00088463,-0.01684559,0.00458831,0.99570761,0.04878350,0.05779240,0.05335316
1757961791594,-0.15260558,0.14106988,-0.06552088,0.01815505,-0.00256562,0.00566198,0.99570176,0.04888517,0.05777803,0.05338487
1757961791605,-0.04754716,-0.00842593,0.04823825,0.01164902,-0.00284527,0.01126380,0.99569615,0.04894982,0.05776224,0.05344739
1757961791616,-0.03096094,-0.15117646,0.10836329,0.00635514,0.00224456,0.00795131,0.99569132,0.04898509,0.05777470,0.05349152
1757961791627,0.13862820,-0.12418919,0.04246516,0.00317113,0.00171282,0.00666552,0.99568788,0.04900285,0.05778429,0.05352884
1757961791638,0.01492760,0.03169954,0.08099603,0.00477546,0.00068857,0.00347943,0.99568532,0.04902935,0.05778811,0.05354815
1757961791649,0.01548047,0.09735764,-0.07740235,0.00976102,-0.00968778,0.01046441,0.99568264,0.04908353,0.05773434,0.05360623
1757961791661,-0.07575236,0.06370523,-0.09479319,0.00696444,-0.01379327,0.01015696,0.99568213,0.04912253,0.05765710,0.05366311
1757961791672,0.16931763,-0.07298691,-0.05915751,0.00028136,-0.01014955,0.00903071,0.99568261,0.04912409,0.05760077,0.05371323
1757961791683,-0.01575320,-0.08957708,0.08903985,-0.00423563,-0.01527459,0.01283412,0.99568485,0.04910037,0.05751523,0.05378510
1757961791694,0.09329747,-0.07433778,-0.08984201,0.00242073,-0.01455714,0.01424571,0.99568457,0.04911381,0.05743444,0.05386417
1757961791705,-0.12384376,-0.02116470,0.07740235,0.00605252,-0.02054470,0.00845551,0.99568695,0.04914740,0.05732042,0.05391109
1757961791716,0.10429222,0.06448140,-0.18490002,0.00846260,-0.00961067,0.01297976,0.99568374,0.04919521,0.05726612,0.05398443
1757961791728,-0.07546812,0.15496532,-0.01199678,0.00983930,-0.02291010,-0.00656215,0.99569026,0.04924933,0.05714011,0.05394834
1757961791742,0.06622414,-0.03587384,-0.13431376,0.00144877,-0.02193662,-0.01200497,0.99570338,0.04925969,0.05698327,0.05386250
1757961791750,0.21945168,-0.01928218,0.19380149,-0.04088786,-0.02841966,-0.03028992,0.99572398,0.04910022,0.05687243,0.05374437
1757961791760,0.07355978,0.03476339,-0.00739950,-0.03997577,-0.03423881,-0.00798044,0.99574703,0.04888835,0.05669096,0.05370207
1757961791771,-0.01893486,-0.04982728,0.11733875,-0.03313156,-0.01293258,0.00292654,0.99575936,0.04870281,0.05661854,0.05371846
1757961791782,-0.25848953,-0.13364004,0.12164213,-0.03575655,-0.01838058,0.00076403,0.99577475,0.04850258,0.05651561,0.05372274
1757961791794,0.17097626,-0.08008897,-0.16738258,-0.04146342,-0.00036048,0.00225599,0.99578537,0.04827246,0.05651361,0.05373526
1757961791805,-0.06405561,-0.00859359,0.02718326,-0.01496129,-0.01305965,0.00233929,0.99579294,0.04818792,0.05643982,0.05374848
1757961791816,0.09617070,0.04261196,0.04972930,-0.00175336,-0.02833193,-0.00882949,0.99580495,0.04817819,0.05628258,0.05369948
1757961791827,0.11917641,0.13965772,0.07397157,0.00356917,-0.02642803,-0.01613027,0.99581720,0.04819818,0.05613458,0.05360915
1757961791838,0.10109377,0.11461614,0.08695664,0.00482680,-0.01157760,-0.00166967,0.99582008,0.04822545,0.05606917,0.05359971
1757961791849,-0.25416104,0.12844571,0.11109778,-0.00542605,-0.01443648,-0.00567487,0.99582760,0.04819588,0.05599049,0.05356878
1757961791861,-0.05098613,-0.10979683,-0.10197227,0.01004928,-0.01341328,0.00830682,0.99582660,0.04825165,0.05591605,0.05361489
1757961791872,0.11599986,0.00087576,-0.03687235,0.00725575,-0.00266940,0.00180426,0.99582491,0.04829265,0.05590097,0.05362508
1757961791889,-0.12270997,-0.08509682,-0.08649856,0.00314123,-0.01076072,0.00175627,0.99582794,0.04831935,0.05580950,0.05364001
1757961791892,1.29598959,-0.79031609,1.90963837,-0.01766713,-0.01946357,-0.02148167,0.99583337,0.04828843,0.05577544,0.05360242
1757961791904,-0.46712975,0.11123291,-0.44574410,-0.00860417,-0.01412143,-0.00978378,0.99584326,0.04823939,0.05569495,0.05354665
1757961791915,-0.01467643,0.04311201,0.01467643,0.00287016,-0.00986646,-0.01384074,0.99584985,0.04825575,0.05563871,0.05346776
1757961791927,0.15985606,0.13903039,-0.00189039,-0.00104040,-0.00952796,-0.00674052,0.99585546,0.04824956,0.05558202,0.05342765
1757961791941,0.00095387,0.01999456,-0.01152589,0.00124289,-0.00397455,-0.00088940,0.99585695,0.04825838,0.05555380,0.05342134
1757961791949,-0.15301727,0.00508338,0.54183927,0.01780081,0.00042328,0.00882774,0.99585178,0.04832602,0.05555541,0.05345488
1757961791958,0.15655782,-0.07374785,-0.22416233,0.00547914,-0.00340815,0.00909669,0.99584918,0.04835123,0.05553973,0.05349673
1757961791970,-0.22840394,-0.12314494,0.10303490,-0.01229076,-0.00227213,-0.00973790,0.99585653,0.04827871,0.05552632,0.05343927
1757961791980,0.11882734,-0.01952658,0.04545937,-0.02549847,-0.00093333,-0.01141686,0.99586660,0.04814357,0.05552138,0.05337876
1757961791992,0.14246838,0.04720762,-0.17783887,-0.01805127,-0.00676875,-0.00999882,0.99587668,0.04804158,0.05548313,0.05332227
1757961792004,-0.09342164,0.08831722,0.05075479,-0.00872069,-0.00698840,-0.00854620,0.99588428,0.04798926,0.05544120,0.05327099
1757961792014,0.00319307,0.15878823,0.05733652,-0.00350122,-0.01872828,-0.00492381,0.99589217,0.04797053,0.05534101,0.05324465
1757961792025,0.24779180,0.13496560,0.10842733,0.01243178,-0.01200746,0.00091726,0.99589227,0.04803890,0.05527496,0.05324970
1757961792037,-0.02855232,0.01044236,0.00373582,0.01564861,-0.02825943,-0.00246540,0.99589764,0.04812810,0.05511389,0.05323564
1757961792048,-0.02077642,-0.04748850,-0.01059190,0.01516822,-0.03035015,0.00013280,0.99590284,0.04821228,0.05494544,0.05323638
1757961792059,-0.23025031,-0.16506767,-0.08760547,0.01462627,-0.02891610,-0.01047822,0.99591100,0.04829492,0.05478207,0.05317718
1757961792070,0.01363739,-0.07472660,-0.06429055,-0.00107090,-0.02827529,-0.00625752,0.99592205,0.04828882,0.05462090,0.05314151
1757961792082,0.08379392,-0.08139789,0.10038677,-0.00051985,-0.01715027,0.00170106,0.99592686,0.04828596,0.05452657,0.05315087
1757961792093,0.12187351,0.03797553,0.00928828,-0.00779785,-0.01946577,0.01002243,0.99593189,0.04824268,0.05441854,0.05320649
1757961792104,-0.17023182,0.02069549,0.01776332,0.00848421,-0.01546507,-0.00218723,0.99593500,0.04829061,0.05433116,0.05319413
1757961792115,0.03189069,0.07227232,-0.02408622,0.01037359,-0.01371973,-0.00299754,0.99593727,0.04834871,0.05425433,0.05317735
1757961792126,-0.03160847,0.06642093,0.05374774,0.01020681,-0.00553829,0.00235800,0.99593546,0.04840637,0.05422304,0.05319067
1757961792137,-0.05844943,0.01091132,-0.13712599,0.00954861,-0.01309172,-0.00624395,0.99593866,0.04845889,0.05415103,0.05315633
1757961792149,0.00983338,-0.04826552,0.11865616,0.00085794,0.00185569,-0.00941477,0.99594072,0.04846383,0.05416170,0.05310219
1757961792161,0.09302919,-0.02952017,-0.03120826,-0.00158901,-0.01072857,-0.01007318,0.99594779,0.04845445,0.05409840,0.05304276
1757961792171,0.18394985,0.02116336,0.04598746,-0.01075727,-0.00017525,-0.00643885,0.99595225,0.04839959,0.05409751,0.05300992
1757961792206,-0.08736437,-0.01498029,-0.16713184,-0.00349021,-0.00411066,-0.00201893,0.99596095,0.04833886,0.05402598,0.05297479
1757961792214,0.76629650,-0.42021917,2.58937649,-0.03370901,-0.03841599,-0.01113288,0.99597818,0.04820402,0.05387232,0.05293026
1757961792221,-0.67529916,0.26830346,-1.39187578,0.00258693,-0.03122206,-0.00374412,0.99598487,0.04821385,0.05375368,0.05291603
1757961792230,0.29187409,0.11698758,-0.31053611,0.01130125,-0.05745307,0.00442310,0.99599435,0.04826019,0.05351812,0.05293417
1757961792242,-0.08483728,0.05020085,-0.05798803,0.00603291,-0.01850655,0.01000577,0.99599537,0.04829669,0.05340615,0.05299470
1757961792253,0.01719623,0.08006995,0.05302171,-0.00531065,-0.03237046,0.00634276,0.99600446,0.04826748,0.05322812,0.05302959
1757961792265,-0.01794066,-0.06610704,-0.20783208,-0.00326493,-0.03204073,0.00762323,0.99601337,0.04824756,0.05303267,0.05307609
1757961792276,0.00723736,-0.07700074,0.11250799,-0.02082558,-0.02220081,0.00452695,0.99602398,0.04813406,0.05291167,0.05310076
1757961792288,-0.00879037,-0.09424884,-0.09195185,-0.01833580,-0.01301137,-0.00357155,0.99603485,0.04802130,0.05283165,0.05307880
1757961792298,0.03127982,-0.08951497,0.19425647,-0.02038473,-0.03429349,-0.01047768,0.99605213,0.04791632,0.05265504,0.05302484
1757961792310,0.03035522,0.09691733,-0.14216361,-0.02204884,-0.00812303,-0.00426166,0.99606250,0.04778292,0.05260590,0.05299905
1757961792322,-0.16670291,0.10820236,0.10913091,0.01228340,-0.02201539,-0.01058780,0.99606880,0.04785109,0.05248371,0.05294029
1757961792334,0.06173367,0.15772674,-0.11313928,0.03203854,-0.02090617,-0.01730896,0.99607169,0.04804493,0.05235723,0.05283557
1757961792346,0.20472902,0.14347755,-0.13880976,0.03250763,-0.02392875,-0.01569947,0.99607489,0.04824647,0.05220887,0.05273824
1757961792357,-0.24956015,-0.04691737,0.27839876,0.02170315,-0.02639199,-0.01917566,0.99608235,0.04836693,0.05206240,0.05263181
1757961792367,0.33682110,-0.07677441,0.04239434,0.03931229,-0.03006931,-0.00698282,0.99608247,0.04855169,0.05192107,0.05259899
1757961792378,-0.18587802,-0.10232718,-0.10109156,0.01985025,-0.02076497,-0.00004599,0.99608314,0.04866782,0.05179960,0.05259872
1757961792391,0.01658904,0.13521064,-0.11497563,0.00106686,-0.03804213,-0.00390894,0.99609644,0.04867449,0.05156183,0.05257429
1757961792403,0.18509117,-0.02919361,-0.04843712,0.02989784,-0.03859569,0.00384675,0.99609837,0.04885088,0.05133412,0.05259699
1757961792412,0.16065465,0.07098743,0.02973096,0.03198475,-0.04927757,-0.00014530,0.99610298,0.04900281,0.05110005,0.05259630
1757961792423,-0.12132202,-0.23571539,0.17141937,0.00360826,-0.06083394,-0.02065468,0.99612550,0.04902302,0.05075938,0.05248063
1757961792435,0.12164213,-0.05452514,-0.04561580,0.00719687,-0.06673618,0.00515793,0.99614097,0.04906332,0.05038566,0.05250952
1757961792448,-0.03224641,0.01359803,-0.12784753,0.02038453,-0.03651900,0.01063150,0.99614282,0.04919990,0.05014098,0.05258075
1757961792458,-0.04705436,0.19381673,-0.11226242,0.04168995,-0.06590247,-0.00413039,0.99615005,0.04940626,0.04981476,0.05256030
1757961792468,0.00980650,0.11307273,-0.18069391,0.02476760,-0.06446576,0.01623342,0.99615585,0.04953381,0.04948276,0.05264390
1757961792479,0.00075148,0.06609846,-0.25264727,0.02475212,-0.06915675,0.00676606,0.99616602,0.04967119,0.04909894,0.05268145
1757961792491,0.14517764,-0.14882196,-0.01546975,0.02553222,-0.05924950,-0.00799084,0.99617774,0.04981672,0.04876122,0.05263591
1757961792503,-0.14419161,-0.20266733,0.01021187,-0.00977479,-0.07367691,-0.01802281,0.99620993,0.04975416,0.04828969,0.05252056
1757961792514,0.33011489,-0.11424351,-0.09300450,-0.02829738,-0.08666373,-0.00770616,0.99624231,0.04960136,0.04782170,0.05247895
1757961792525,0.09311971,-0.01192275,0.07998370,-0.02828932,-0.08522395,0.01893584,0.99626695,0.04944577,0.04735297,0.05258309
1757961792536,-0.24199348,-0.03162154,-0.07199806,-0.02531038,-0.10707246,0.01498336,0.99629511,0.04931668,0.04680690,0.05265951
1757961792547,0.18031511,0.08523987,-0.02171977,-0.00796300,-0.06248340,-0.01045738,0.99631776,0.04927010,0.04644138,0.05259833
1757961792558,-0.15052747,-0.14164282,0.23294126,-0.01613412,-0.09651741,0.01811112,0.99634234,0.04917814,0.04589123,0.05270157
1757961792570,0.25822277,-0.02228063,-0.08829725,-0.01417140,-0.08047159,0.00124531,0.99636654,0.04909878,0.04544059,0.05270854
1757961792581,-0.20323747,-0.08697728,0.11738716,-0.02828304,-0.10472187,-0.00011983,0.99639971,0.04894605,0.04487509,0.05270789
1757961792592,0.02519948,0.07686169,-0.25356977,-0.03351586,-0.08577341,0.00997761,0.99642846,0.04875166,0.04437760,0.05276576
1757961792603,0.08605365,-0.01554782,0.04369796,-0.03392058,-0.08155670,0.00027045,0.99645606,0.04857357,0.04394943,0.05276718
1757961792614,-0.16605330,0.00898276,0.01719239,-0.03115233,-0.06655830,0.00808611,0.99647892,0.04839600,0.04357005,0.05281328
1757961792625,0.05377426,0.02115834,-0.17069254,-0.02340298,-0.08032198,0.01711268,0.99649957,0.04826612,0.04312426,0.05290825
1757961792636,-0.04644141,0.08308658,0.10836329,-0.02596056,-0.07083793,0.00965124,0.99652063,0.04812204,0.04273111,0.05296181
1757961792648,-0.02181631,0.11497569,0.01665973,-0.01642536,-0.05707996,0.00185463,0.99653848,0.04802841,0.04240575,0.05297239
1757961792659,0.09683064,0.07980707,-0.04533613,0.00032015,-0.06329137,0.00248020,0.99655280,0.04803022,0.04204816,0.05298640
1757961792671,-0.22224269,0.00098260,0.12495290,0.00452578,-0.04820565,-0.00390087,0.99656490,0.04805738,0.04175892,0.05296299
1757961792681,0.10427582,0.00128402,-0.12075620,-0.03569366,-0.05354482,-0.00092971,0.99658552,0.04787355,0.04148317,0.05295821
1757961792692,-0.07199170,-0.15344733,0.14533606,-0.02609854,-0.04222267,-0.00147672,0.99660263,0.04772871,0.04124883,0.05295001
1757961792703,0.08493032,-0.07669948,-0.10698480,-0.01636394,-0.03875951,0.01314828,0.99661206,0.04763707,0.04103178,0.05302364
1757961792715,-0.11636311,-0.02439997,0.07416838,-0.01982480,-0.03189347,-0.00248256,0.99662567,0.04752407,0.04084999,0.05300949
1757961792726,0.05761996,0.04241677,-0.01467175,-0.03539183,-0.03739148,-0.02076078,0.99664984,0.04732587,0.04064059,0.05289323
1757961792738,-0.03522415,0.03859712,0.06775757,-0.01259011,-0.02528137,-0.01386427,0.99666378,0.04725159,0.04049143,0.05281143
1757961792831,-0.07431510,0.01568859,-0.00799657,-0.00098950,-0.00363649,-0.00009143,0.99667305,0.04720553,0.04032215,0.05280717
1757961792837,19.06946208,-5.99209686,0.87207348,-0.55670605,-0.18243163,0.00442532,0.99676553,0.04564675,0.03981135,0.05281957
1757961792885,-2.13417511,0.53382548,-0.15929544,-0.10317948,0.00278086,0.01251931,0.99685796,0.04314981,0.03987864,0.05312253
1757961792907,0.05839141,-0.59912643,-0.17992702,-0.27818822,0.00153992,0.02630047,0.99697248,0.04000628,0.03989604,0.05341973
1757961792920,0.31308178,-3.49818474,-1.33542770,-0.62245386,0.00057216,0.04129325,0.99710598,0.03614707,0.03989959,0.05367575
1757961792953,-0.15919952,1.53134334,0.42272719,-0.14551918,-0.00632659,-0.00351777,0.99719795,0.03373145,0.03979457,0.05361735
1757961792959,3.51462649,-10.27194922,-8.54328098,-0.61205961,-0.05935675,0.03577316,0.99725467,0.03204829,0.03963134,0.05371573
1757961792984,-0.65645794,2.16455331,1.73078597,-0.15380571,-0.01614292,-0.00170889,0.99732429,0.03011033,0.03942794,0.05369420
1757961792998,0.10518945,-0.93227330,-0.29855074,-0.26830457,-0.01621184,0.01490508,0.99737845,0.02821879,0.03931364,0.05379928
1757961793006,0.43069072,-3.98059941,-1.22719922,-0.60598821,-0.04242855,0.03274311,0.99744057,0.02591603,0.03915242,0.05392370
1757961793027,-0.34976025,1.80507854,0.78010309,-0.23008060,-0.01579822,0.00874146,0.99750194,0.02350019,0.03898654,0.05401549
1757961793031,3.77496084,-21.81144165,-5.55742355,-1.29484221,-0.09262596,-0.00217790,0.99756704,0.02091050,0.03880128,0.05401113
1757961793050,-0.78893611,4.33766301,1.17322595,-0.26141210,-0.02137237,0.00108701,0.99762500,0.01834866,0.03859183,0.05402178
1757961793054,5.04589585,-33.12105950,-15.17372966,-1.46872969,-0.15364948,-0.01879062,0.99768261,0.01570495,0.03831526,0.05398796
1757961793065,-1.29783777,8.41424375,3.82520607,-0.55335663,-0.04522317,-0.00484217,0.99773684,0.01266149,0.03806654,0.05396133
1757961793083,-0.24320047,1.00588324,0.61184345,-0.37951543,-0.01906311,0.00451210,0.99777847,0.00926483,0.03789592,0.05400171
1757961793097,0.21752057,-1.28197204,-0.48159764,-0.53307277,-0.02390874,0.00953892,0.99780953,0.00542670,0.03772378,0.05407039
1757961793109,0.57510754,-1.57763015,-1.06933634,-0.64474677,-0.04497442,-0.02112579,0.99784029,0.00152598,0.03745168,0.05394258
1757961793112,10.51154456,-38.61914207,-31.03382330,-1.95085849,-0.23799524,0.02182874,0.99785038,-0.00081505,0.03716609,0.05396877
1757961793133,-1.59497418,6.99939697,4.41783091,-0.17341036,-0.02399057,0.00231153,0.99785530,-0.00265320,0.03691179,0.05399328
1757961793148,0.38608048,-2.44493790,-1.53909423,-0.47054996,-0.07637803,0.02634195,0.99785007,-0.00615879,0.03634277,0.05418952
1757961793151,7.58934140,-41.39300096,-22.10172229,-1.70453808,-0.20891474,0.11781166,0.99783138,-0.00888605,0.03600851,0.05437802
1757961793167,-1.65182899,9.21409915,5.55977927,-0.36323167,-0.03289664,0.02332762,0.99780120,-0.01173742,0.03575027,0.05456114
1757961793183,-0.10699687,-0.14256176,-0.05354416,-0.39254266,-0.06623035,0.01265546,0.99777198,-0.01493665,0.03521049,0.05466429
1757961793184,49.14640646,-250.21614003,-120.11376963,-4.26477756,-0.79031852,-0.16946883,0.99774869,-0.01792199,0.03465727,0.05454566
1757961793204,-3.42447130,18.45843600,8.60383792,-0.24269754,-0.05752280,-0.02053973,0.99773326,-0.02033683,0.03408492,0.05434129
1757961793207,18.73625650,-34.88929722,-31.41969923,-1.36962571,-0.43638903,-0.06009918,0.99771696,-0.02232279,0.03345216,0.05425414
1757961793224,-3.09547686,5.98721457,5.16469525,-0.21498218,-0.07555323,0.00617617,0.99769241,-0.02418238,0.03279862,0.05430757
1757961793230,3.27182409,-11.40276729,-4.22401282,-0.73835996,-0.24995672,0.02782092,0.99766061,-0.02613904,0.03213623,0.05438129
1757961793254,-0.82434245,2.63324452,1.34004092,-0.19603735,-0.05452069,0.00772175,0.99761243,-0.02847188,0.03148744,0.05447318
1757961793268,0.48055925,-1.56883488,-0.45348950,-0.40252820,-0.10248859,0.02996011,0.99753337,-0.03149084,0.03071877,0.05469788
1757961793272,13.82033030,-42.25752006,-16.76082611,-2.19554480,-0.63157063,0.08924342,0.99741337,-0.03588193,0.02945563,0.05487637
1757961793293,-2.87804272,9.01201575,3.30580621,-0.26210883,-0.09068052,-0.00246205,0.99734151,-0.03856855,0.02852616,0.05485113
1757961793306,0.42225125,-0.13265506,-0.37452841,-0.28611391,-0.12338128,-0.00733761,0.99729153,-0.04048551,0.02769950,0.05480197
1757961793308,63.14089052,-110.66510000,-105.23111078,-1.73485907,-1.07027865,-0.12619493,0.99726318,-0.04187340,0.02684328,0.05470102
1757961793319,-9.16898423,16.49354466,15.59227104,-0.24100689,-0.11816197,0.00447256,0.99722371,-0.04316279,0.02621111,0.05472494
1757961793339,-0.46380940,0.64218044,0.52474174,-0.15486218,-0.07344133,-0.00706863,0.99717816,-0.04471915,0.02547303,0.05465390
1757961793353,0.34102160,-0.53401319,-0.14909398,-0.22578719,-0.11631574,-0.02271442,0.99713392,-0.04634482,0.02463555,0.05449036
1757961793357,19.48295867,-27.52094038,-11.78884109,-1.21780249,-0.63377036,-0.13578191,0.99706678,-0.04865864,0.02343139,0.05423237
1757961793367,-6.25468236,10.21105580,4.58961333,-0.23849389,-0.16715628,-0.03220571,0.99703462,-0.04989881,0.02256218,0.05406491
1757961793378,-0.40304229,1.03361713,-0.25114891,-0.13345044,-0.16132098,-0.02374455,0.99702448,-0.05062612,0.02168298,0.05393550
1757961793392,0.14672393,0.45691286,0.03520670,-0.05504243,-0.13980457,-0.01176550,0.99703013,-0.05101417,0.02069736,0.05385255
1757961793411,-0.23073668,0.16372350,0.04108338,0.00478194,-0.16316299,-0.01731000,0.99707057,-0.05097065,0.01921257,0.05369503
1757961793414,27.42573779,-1.41823586,-14.16085388,0.13447221,-1.13074962,-0.07914128,0.99712771,-0.05072860,0.01717722,0.05355258
1757961793423,-10.26299175,0.21935005,6.69482254,0.01015446,-0.27838929,-0.02505564,0.99715498,-0.05068595,0.01600799,0.05344734
1757961793431,0.21815159,0.04299258,0.05160575,-0.03930014,-0.30438305,-0.02398487,0.99717243,-0.05085887,0.01466870,0.05334181
1757961793450,-0.72296607,0.04524178,0.10170668,-0.02142771,-0.17636848,-0.00589859,0.99718788,-0.05105708,0.01303730,0.05328725
1757961793453,35.16853035,2.20461114,1.17419360,-0.10975308,-1.02786209,-0.02449890,0.99720037,-0.05122171,0.01149550,0.05325050
1757961793465,-7.71060943,0.20887531,-0.26671164,0.02182546,-0.26709991,-0.01298826,0.99722977,-0.05108421,0.00981277,0.05316867
1757961793476,0.66783527,0.43806857,-0.19515440,0.07631270,-0.31676806,0.00066364,0.99726564,-0.05067594,0.00811806,0.05317222
1757961793495,-0.80033507,-0.22892081,0.24937491,0.06598551,-0.16657183,0.00361836,0.99730772,-0.05003917,0.00651065,0.05320714
1757961793509,0.63295648,0.50529908,-0.13543304,0.06388462,-0.24363170,-0.01089149,0.99734133,-0.04962392,0.00492704,0.05313634
1757961793510,80.85854026,25.21826951,8.63106954,0.61679055,-1.72820356,-0.06110125,0.99737819,-0.04906881,0.00337166,0.05308135
1757961793541,-5.29351623,-1.79343647,-0.42554497,0.02062027,-0.09543826,-0.00326313,0.99739998,-0.04875642,0.00192577,0.05303192
1757961793542,287.49136510,84.98291240,10.43271441,1.14841665,-3.97177566,-0.23466735,0.99745236,-0.04789510,-0.00105307,0.05285592
1757961793575,-13.09222317,-3.89715309,-0.49216250,0.03113652,-0.08515699,-0.00402745,0.99747794,-0.04738135,-0.00245816,0.05278946
1757961793577,154.03285171,48.83562074,-4.43603053,0.81440986,-2.77966277,-0.06544782,0.99750903,-0.04656694,-0.00523782,0.05272402
1757961793606,-10.30466084,-3.25670605,0.30297442,0.03580091,-0.11998370,0.00240354,0.99752077,-0.04604067,-0.00700158,0.05275935
1757961793608,107.60949582,33.00967062,10.80506513,0.55487650,-1.85537295,0.01567374,0.99753065,-0.04548579,-0.00885695,0.05277502
1757961793627,-10.74666792,-3.27041275,-1.10161271,0.06367623,-0.19565084,-0.00493338,0.99754229,-0.04488087,-0.01071563,0.05272815
1757961793641,0.14983100,0.20114410,-0.00055907,0.06568998,-0.20712607,-0.00261309,0.99754705,-0.04444074,-0.01210338,0.05271065
1757961793660,-0.50992916,-0.19082060,-0.01534131,0.06732098,-0.13164426,-0.00434032,0.99756149,-0.04380456,-0.01334742,0.05266963
1757961793662,86.00449167,38.92085194,9.61523489,0.67930622,-1.31448130,0.07659256,0.99756797,-0.04319319,-0.01453045,0.05273856
1757961793673,-12.80483158,-5.70432866,-1.26097634,0.09992091,-0.19470353,0.00947343,0.99757294,-0.04260865,-0.01566947,0.05279398
1757961793686,-0.09257562,-0.18619363,-0.05789650,0.07674436,-0.17349092,0.01987569,0.99756896,-0.04211365,-0.01678848,0.05292218
1757961793693,3.46831392,0.61113631,0.18838464,0.12738998,-0.34135412,0.02786101,0.99756214,-0.04169326,-0.01791495,0.05301412
1757961793705,-1.75436297,-0.72085211,-0.07599345,0.05442299,-0.18039031,0.00693226,0.99755342,-0.04136400,-0.01900631,0.05305606
1757961793717,0.15680900,0.03262920,-0.11721603,0.05347264,-0.18773531,0.00708487,0.99754202,-0.04103514,-0.02016088,0.05309964
1757961793731,-0.22653353,0.36397416,0.23768415,0.07867499,-0.17380883,-0.01996665,0.99754652,-0.04050015,-0.02134278,0.05296386
1757961793743,0.20051844,0.24619032,-0.01624612,0.08803515,-0.21719951,-0.01217026,0.99754277,-0.03994993,-0.02270028,0.05288780
1757961793760,-0.31138979,-0.16096956,-0.19250804,0.06859323,-0.16912369,-0.00618886,0.99753536,-0.03939090,-0.02407864,0.05283736
1757961793773,0.64255424,-0.11023485,0.12701199,0.10265072,-0.22951790,0.01926634,0.99751713,-0.03870314,-0.02561641,0.05296644
1757961793816,-0.46883903,-0.12872571,-0.03645045,0.02553041,-0.07017762,0.00429874,0.99749313,-0.03814658,-0.02714628,0.05306016
1757961793828,11.02566356,4.16925406,1.21579575,0.48673812,-1.14434375,0.03357331,0.99738049,-0.03525049,-0.03395513,0.05325992
1757961793851,-4.71336385,-1.76612432,-0.55650065,0.15198000,-0.29505356,-0.01674084,0.99732970,-0.03350272,-0.03734824,0.05306740
1757961793876,-0.14271526,-0.06687511,0.15438945,0.06564353,-0.25963547,-0.01120530,0.99723950,-0.03269858,-0.04052878,0.05293013
1757961793888,0.64882218,0.29538053,0.11121566,0.08378295,-0.28350747,0.00552746,0.99718399,-0.03220007,-0.04221565,0.05296302
1757961793906,-1.06203357,-0.15007648,-0.36125414,0.06844317,-0.16698093,-0.00453307,0.99714037,-0.03157382,-0.04374352,0.05292154
1757961793918,0.91839101,0.18301077,0.06407379,0.12213743,-0.23516992,0.02180854,0.99709264,-0.03082878,-0.04517806,0.05305458
1757961793932,-0.38374906,-0.08233513,0.19466498,0.09500979,-0.19364520,0.00786355,0.99704870,-0.03017796,-0.04650453,0.05310844
1757961793943,0.37069774,-0.06269831,0.46481501,0.11825358,-0.22226218,-0.00200422,0.99701029,-0.02951574,-0.04774920,0.05309722
1757961793945,45.85405734,23.09982364,18.60621971,0.43895055,-1.04662568,0.00483077,0.99696838,-0.02903290,-0.04890049,0.05310253
1757961793960,-7.37739332,-3.48461999,-2.90995897,0.05363541,-0.14490256,0.01075434,0.99692182,-0.02863063,-0.04998725,0.05318319
1757961793974,0.07487526,-0.04454955,-0.19616441,0.07505486,-0.14664223,0.01679787,0.99688100,-0.02813527,-0.05095509,0.05329405
1757961793986,0.22610751,0.18858548,0.26615027,0.07427632,-0.15327402,0.01491134,0.99683958,-0.02767104,-0.05191306,0.05338725
1757961794002,-0.33051425,-0.32556084,-0.03888065,0.05618480,-0.11003846,0.01006630,0.99680068,-0.02721314,-0.05280987,0.05346929
1757961794015,1.59335770,0.91626334,0.94237909,0.13751930,-0.24127923,-0.00407152,0.99674643,-0.02638802,-0.05425754,0.05344486
1757961794029,-1.23302984,-0.58176815,-0.68705473,0.06434178,-0.09859286,-0.01682328,0.99672589,-0.02591833,-0.05497727,0.05332205
1757961794041,0.16079889,0.05251802,-0.03616219,0.07475133,-0.10330167,-0.00974746,0.99670586,-0.02546234,-0.05560741,0.05326259
1757961794043,45.17455456,35.88085622,21.21206386,0.30158496,-0.52981471,-0.04553964,0.99668823,-0.02519092,-0.05608425,0.05322161
1757961794060,-5.19919332,-4.04698008,-2.41920152,0.04279505,-0.04649209,0.00235614,0.99667398,-0.02482716,-0.05647943,0.05324163
1757961794073,0.23058330,0.06203668,0.35322395,0.05814421,-0.04549309,-0.00348377,0.99666778,-0.02445213,-0.05677286,0.05321916
1757961794085,-0.23221748,0.02924749,-0.03529630,0.04524939,-0.05711572,-0.02256617,0.99666180,-0.02416932,-0.05712983,0.05307812
1757961794087,55.52768710,19.72666943,35.71510317,0.31645520,-0.30763188,-0.22751521,0.99666344,-0.02391616,-0.05737594,0.05289611
1757961794103,-5.65655883,-2.00601084,-3.83642570,0.01940689,-0.02802917,-0.02090381,0.99666309,-0.02376187,-0.05759877,0.05272993
1757961794128,-0.20646344,-0.15293481,-0.09838539,0.01472022,-0.01848510,-0.01029546,0.99666092,-0.02358155,-0.05782521,0.05260381
1757961794129,120.89142640,53.29120087,116.33158419,0.44932762,-0.44265208,-0.32319872,0.99666220,-0.02326702,-0.05813507,0.05237757
1757961794166,-4.61313388,-2.00799916,-4.38725799,0.01524846,-0.00201448,-0.00308905,0.99666960,-0.02298416,-0.05817244,0.05232027
1757961794178,1.29305842,0.72128800,1.80574048,0.10820879,-0.03842025,-0.03534362,0.99668199,-0.02233491,-0.05840296,0.05210821
1757961794214,-0.44824624,-0.26521017,-0.58312280,0.01014585,-0.00408343,-0.00465722,0.99668615,-0.02215127,-0.05847687,0.05202391
1757961794252,0.08927558,0.04863659,0.12900525,0.02672001,-0.01127753,-0.01018684,0.99669475,-0.02164626,-0.05869001,0.05183138
1757961794263,0.80301030,0.60194104,2.18562303,0.11138332,-0.06916733,-0.03206839,0.99669453,-0.02101137,-0.05908427,0.05164859
1757961794290,-0.35738607,-0.30504815,-0.92381807,-0.00280353,-0.01249911,-0.00613484,0.99668806,-0.02104894,-0.05925176,0.05156638
1757961794306,0.12688228,0.04979883,0.03113675,-0.00065405,-0.01244628,-0.01326941,0.99668751,-0.02105417,-0.05935133,0.05146023
1757961794328,-0.11227213,0.13792899,-0.10538717,0.05647664,-0.00439266,-0.00342873,0.99669945,-0.02043575,-0.05939943,0.05142268
1757961794364,-0.09199037,-0.07318739,-0.14239241,0.02770744,-0.00737425,-0.00195566,0.99670343,-0.01993979,-0.05953143,0.05138768
1757961794365,3.37149178,33.39194658,37.41107175,0.16506116,-0.00417079,0.16521996,0.99669904,-0.01980774,-0.05953476,0.05151985
1757961794390,-0.29151075,-2.26943251,-2.35689542,-0.00426933,0.00726562,-0.00212351,0.99670472,-0.01986068,-0.05944467,0.05149352
1757961794403,0.12822305,-0.16670689,0.16863423,-0.02117825,0.02228702,0.00266582,0.99670951,-0.01999305,-0.05930537,0.05151018
1757961794420,-0.00535325,0.06955077,-0.15427544,-0.01345540,0.01451873,-0.00040742,0.99671482,-0.02010944,-0.05917979,0.05150666
1757961794424,-1.37076356,0.31496511,0.74900095,0.03110573,0.04306209,0.00090741,0.99672124,-0.02004567,-0.05909151,0.05150852
1757961794446,0.15648832,0.04728795,-0.32730165,0.01567638,0.00892407,-0.00150440,0.99673123,-0.01987558,-0.05899468,0.05149219
1757961794462,-0.03916522,0.03746472,0.02872116,0.04140768,0.01079557,0.01011050,0.99673875,-0.01954225,-0.05890778,0.05157358
1757961794476,0.30332606,0.13137497,0.12304737,0.00834885,0.01522905,0.02113406,0.99673853,-0.01948464,-0.05880270,0.05171941
1757961794477,14.87351250,7.17525174,-3.29034617,0.09733800,0.08081853,0.01030666,0.99674374,-0.01940190,-0.05873400,0.05172817
1757961794490,-2.14174680,-1.30150585,0.16315246,0.01669445,-0.00121148,0.00225699,0.99674457,-0.01929923,-0.05874145,0.05174205
1757961794507,-0.01071306,-0.00003207,-0.04991083,0.01055740,0.00584810,0.00398025,0.99674758,-0.01920633,-0.05868999,0.05177708
1757961794511,2.52484833,-1.78757260,-4.17829666,0.11757248,0.00848468,-0.03746487,0.99675580,-0.01900058,-0.05867514,0.05171151
1757961794521,-0.61580113,0.35847936,1.32152012,0.00137614,0.00988847,-0.01036307,0.99676153,-0.01899369,-0.05862570,0.05165970
1757961794531,-0.05635811,0.12010049,0.16126568,-0.00450430,-0.00452723,-0.03223795,0.99676850,-0.01901757,-0.05864969,0.05148884
1757961794574,-0.04758786,0.03192459,0.05463359,-0.00265481,-0.00019400,-0.00100917,0.99676829,-0.01907465,-0.05865387,0.05146714
1757961794612,0.13744550,-0.04370683,-0.18215375,-0.01772382,-0.00274775,0.01108401,0.99674825,-0.01940431,-0.05870497,0.05167330
1757961794664,-0.03888823,-0.03515396,0.06921752,-0.02530659,-0.00885287,0.00260949,0.99671794,-0.02006608,-0.05893648,0.05174154
1757961794699,0.22684085,-0.24364192,-0.24847523,-0.07196565,-0.01228991,0.02500554,0.99665552,-0.02133987,-0.05915401,0.05218414
1757961794710,1.38574358,-0.37580406,-1.48759559,-0.08031416,0.02601877,-0.02806337,0.99666227,-0.02176553,-0.05901611,0.05203540
1757961794778,-0.34323998,0.21579222,0.35754132,-0.00723221,0.00981781,-0.00719008,0.99668915,-0.02200998,-0.05868427,0.05179238
1757961794789,1.95845220,-1.49816930,-2.61761111,-0.15594690,-0.01168624,0.00408350,0.99666332,-0.02292227,-0.05875263,0.05181627
1757961794852,-0.39230445,0.25801505,0.47683619,-0.02422720,0.03018453,0.00645700,0.99669035,-0.02368179,-0.05780635,0.05201869
1757961794896,-0.06517167,-0.07275986,-0.15274001,-0.05463446,0.08970622,-0.00467346,0.99677971,-0.02489468,-0.05581487,0.05191494
1757961794938,-0.12461413,-0.12994635,-0.09067023,-0.10254860,0.14566562,0.01041387,0.99687812,-0.02703282,-0.05277774,0.05213207
1757961794975,0.00524261,0.17364638,-0.00915997,-0.04672548,0.12762738,-0.00035104,0.99697555,-0.02788556,-0.05044854,0.05212566
1757961795008,-0.23190230,-0.53402272,-0.28915927,-0.18316909,0.18733405,0.01534993,0.99702550,-0.03096280,-0.04730133,0.05238354
1757961795042,0.14295898,0.53255786,0.16638687,-0.04628391,0.14383642,0.02471825,0.99709049,-0.03173574,-0.04489926,0.05279634
1757961795086,-0.00515035,-0.08051057,0.11285974,-0.06526233,0.12582049,0.02068185,0.99714098,-0.03319109,-0.04209346,0.05325754
1757961795119,-0.10425750,-0.14669963,-0.02760163,-0.12699971,0.17173829,-0.00604142,0.99719045,-0.03531198,-0.03922543,0.05315665
1757961795147,-0.06798381,0.67993677,-0.39378980,0.01500205,0.18090369,-0.03467089,0.99731596,-0.03510871,-0.03677419,0.05268686
1757961795181,0.15758679,-0.40081992,0.26155268,0.00722534,0.12442664,0.01254882,0.99738572,-0.03498407,-0.03462783,0.05290333
1757961795221,0.10076930,0.12326382,0.12798538,-0.01906029,0.05841706,-0.00226160,0.99741413,-0.03535956,-0.03347701,0.05285878
1757961795264,0.11479450,0.22220069,-0.08068694,0.05408544,0.00608931,-0.00450398,0.99746476,-0.03418320,-0.03334457,0.05276081
1757961795309,-0.14346120,0.00226264,0.03355115,0.08267833,0.09997825,-0.01948304,0.99762252,-0.03232294,-0.03109506,0.05232245
1757961795361,-0.07257849,-0.05405535,0.13491774,0.04720893,0.10490763,-0.00655491,0.99775101,-0.03110259,-0.02838320,0.05215300
1757961795402,-0.15376595,0.05280388,-0.09084243,0.07579880,0.17255622,0.03085686,0.99786007,-0.02953734,-0.02481991,0.05279020
1757961795455,0.16998655,-0.07539983,0.14314169,0.01556883,0.07508154,0.00041316,0.99791890,-0.02912632,-0.02283776,0.05280110
1757961795503,-0.07882095,-0.00239351,0.00772775,0.03277548,0.12350082,-0.00896588,0.99801731,-0.02833152,-0.01984286,0.05258368
1757961795536,0.10910993,0.09475076,-0.07730789,0.03541762,0.09943674,-0.01273244,0.99807500,-0.02775775,-0.01823199,0.05237741
1757961795579,0.06788048,0.03529408,0.01591277,0.04822790,0.06246370,-0.01103876,0.99813979,-0.02671362,-0.01687965,0.05213843
1757961795614,0.01526071,-0.13342939,0.06000002,0.01235552,0.05070786,-0.01045426,0.99816996,-0.02649554,-0.01598466,0.05195391
1757961795647,-0.06199679,0.18632808,0.06693345,0.08965287,0.04616215,0.00377372,0.99821693,-0.02501179,-0.01522067,0.05201636
1757961795658,-1.40509308,1.93082905,-0.85023390,0.20304480,0.13018358,0.00723427,0.99825032,-0.02397626,-0.01455674,0.05205326
1757961795713,0.29955435,-0.43838402,0.14166854,0.03351600,0.02582901,0.01409038,0.99826187,-0.02305289,-0.01384515,0.05244145
1757961795744,-0.13952419,0.07473227,-0.01417647,0.03573481,0.04695806,0.02039506,0.99826765,-0.02250258,-0.01312199,0.05275553
1757961795783,0.09934729,-0.08961019,0.01815091,0.01132513,0.03567351,0.01047932,0.99827071,-0.02227947,-0.01241922,0.05296197
1757961795816,-0.24860198,0.12033271,-0.10013859,0.04711826,0.09244962,-0.00830250,0.99831332,-0.02149260,-0.01087532,0.05282332
1757961795837,-0.20074797,-0.06206153,0.09723905,0.06198732,0.11960468,-0.01992541,0.99834966,-0.02086653,-0.00966731,0.05262208
1757961795889,0.22248401,-0.04138682,0.02696394,0.01769683,0.03861786,0.00090070,0.99836712,-0.02040729,-0.00866517,0.05264545
1757961795892,-43.11862021,8.64929392,-3.83618767,0.24768917,1.04140471,-0.02269673,0.99839013,-0.02001099,-0.00699893,0.05260913
1757961795937,2.99241808,-0.57440205,0.24436433,0.04402203,0.04672078,0.00009201,0.99841620,-0.01902050,-0.00594771,0.05261120
1757961795983,0.05861242,-0.00319681,-0.00532339,0.03641719,0.03351607,-0.00721231,0.99844507,-0.01817562,-0.00517014,0.05244388
1757961796015,-0.32347419,0.07403285,0.00753347,0.04021566,0.09037576,0.01463378,0.99845073,-0.01752613,-0.00371057,0.05268021
1757961796049,0.03376856,0.00573217,0.03015947,0.07022997,0.09357930,0.00781745,0.99846841,-0.01634627,-0.00213844,0.05281155
1757961796100,0.09130999,-0.03916759,0.04855499,0.02598901,0.06317504,0.00743351,0.99847114,-0.01568875,-0.00054011,0.05299961
1757961796111,-3.86412099,0.97051802,0.44966721,0.18494470,0.35908610,0.03250921,0.99847626,-0.01465306,0.00147077,0.05318167
1757961796148,1.04364465,-0.26245006,-0.07142739,0.05236340,0.09218797,-0.00197796,0.99848793,-0.01368957,0.00316703,0.05314527
1757961796171,-0.01892926,0.14130399,0.06084406,0.06230662,0.10402306,0.00864105,0.99848769,-0.01297305,0.00436330,0.05324464
1757961796191,0.11021810,-0.18034643,-0.00251548,0.02819839,0.08315877,-0.00900405,0.99849219,-0.01268683,0.00520736,0.05315325
1757961796203,-0.02297451,0.18307766,0.09626193,0.06388037,0.06987539,0.00740151,0.99849235,-0.01230036,0.00563011,0.05319803
1757961796236,0.28700353,-0.12362151,-0.11840844,0.01658840,0.02142744,0.00564592,0.99848860,-0.01202250,0.00598902,0.05329260
1757961796247,-1.56604476,1.11639464,0.25685501,0.06146224,0.10838011,0.00836271,0.99848647,-0.01169368,0.00656885,0.05333734
1757961796267,0.51315053,-0.54071071,-0.03945545,0.02611923,0.04273077,0.00516876,0.99848387,-0.01143640,0.00698975,0.05338825
1757961796282,0.11676771,-0.05879196,-0.00855368,0.04896241,0.04369103,0.01073593,0.99848125,-0.01105450,0.00733054,0.05347199
1757961796295,-0.61317800,0.46150439,0.22318386,0.12003723,0.10260035,-0.02306711,0.99849215,-0.01029826,0.00797692,0.05332667
1757961796305,0.14240185,0.05526232,-0.38354326,0.10991383,0.08551817,0.00114198,0.99849390,-0.00973221,0.00841734,0.05333255
1757961796318,0.25042191,-0.26813433,-0.00948119,0.05101409,0.07483009,-0.00148994,0.99849340,-0.00941337,0.00888503,0.05332324
1757961796334,0.24935049,-0.15729445,0.03992827,0.01864087,0.05390240,-0.01123156,0.99849562,-0.00926704,0.00930816,0.05323507
1757961796346,-0.23417672,-0.10520157,0.13701108,0.02718827,0.08048494,0.00058608,0.99849212,-0.00909439,0.00981924,0.05323879
1757961796349,-15.47615732,3.99508442,3.00592031,0.06453337,0.34174108,0.01297904,0.99848751,-0.00901050,0.01026350,0.05325567
1757961796363,2.83108027,-0.68787456,-0.75455550,0.03081693,0.07501245,-0.01239456,0.99848852,-0.00879478,0.01078859,0.05316891
1757961796380,0.16105257,-0.02564030,-0.00191187,0.01500406,0.06490364,0.00169486,0.99848265,-0.00866499,0.01135001,0.05318357
1757961796383,-21.80980725,6.96395371,3.75368848,0.28810132,0.38723186,0.00663250,0.99847939,-0.00827606,0.01187277,0.05319252
1757961796395,4.48912771,-1.23644046,-0.68317807,0.06552641,0.08247064,0.00526551,0.99847473,-0.00786979,0.01238409,0.05322517
1757961796408,-0.08987919,0.04100107,0.02214986,0.07988400,0.08653154,0.00395316,0.99847037,-0.00737052,0.01292491,0.05324987
1757961796420,0.06103516,0.08831024,-0.10986328,0.08560924,0.07849696,0.01170228,0.99846380,-0.00683546,0.01341552,0.05332301
1757961796432,-0.35179150,0.19282140,0.01426784,0.11132916,0.12626512,0.01364817,0.99845358,-0.00618419,0.01415417,0.05340285
1757961796434,-27.17869912,12.04915164,3.88024539,0.31517183,0.55116954,0.01919291,0.99844502,-0.00580598,0.01481557,0.05342589
1757961796446,6.03142239,-2.89660327,-0.85149493,0.05126340,0.10986393,0.02675151,0.99842930,-0.00551890,0.01543081,0.05357569
1757961796457,-0.14174707,0.07955080,0.07796089,0.08130823,0.12264195,-0.00560507,0.99842230,-0.00504732,0.01614213,0.05354318
1757961796469,0.02558468,0.15951574,0.03939800,0.10980724,0.11611188,-0.00839946,0.99841676,-0.00440494,0.01682139,0.05349405
1757961796480,0.00517723,0.20149034,-0.03759658,0.14191868,0.12618041,-0.01353555,0.99841171,-0.00358891,0.01754692,0.05341622
1757961796493,0.04461865,0.12051472,-0.15622009,0.11505302,0.10295132,-0.00025371,0.99840275,-0.00288134,0.01818007,0.05341466
1757961796503,-0.24557865,0.17601188,-0.08101564,0.11565219,0.11968038,-0.01005212,0.99839550,-0.00227416,0.01880840,0.05336188
1757961796518,0.39217118,-0.44850858,0.06652100,0.06873786,0.09242726,-0.00552829,0.99838553,-0.00176206,0.01949698,0.05332070
1757961796530,-0.23212273,-0.01628100,0.03767238,0.05747256,0.10203699,0.00078036,0.99837409,-0.00142872,0.02008879,0.05332522
1757961796545,0.21374521,-0.20586115,-0.03028778,0.06080464,0.07767149,0.01209490,0.99835779,-0.00096965,0.02067521,0.05341654
1757961796557,-0.32155708,0.15202873,0.08079238,0.10806701,0.12139813,0.00831736,0.99833988,-0.00031044,0.02141574,0.05346728
1757961796570,0.02619454,0.07762195,-0.19852705,0.09715469,0.09382064,-0.00162769,0.99832758,0.00030163,0.02200681,0.05345702
1757961796581,-0.21226654,0.14725314,0.08026886,0.11043197,0.11546910,-0.00626024,0.99831497,0.00090349,0.02263612,0.05342290
1757961796583,-26.86691547,19.18724839,-1.28164432,0.46411080,0.49820781,-0.01291878,0.99830314,0.00139081,0.02315924,0.05340934
1757961796597,4.38230799,-3.06821101,0.14454389,0.08501422,0.06250196,-0.00247763,0.99829251,0.00200291,0.02360925,0.05339150
1757961796609,-0.12529872,0.13779890,0.01718899,0.07285901,0.09168804,-0.01285675,0.99828241,0.00244370,0.02416396,0.05331372
1757961796621,-0.15401972,-0.05071304,-0.18510827,0.07374645,0.08549277,0.02265872,0.99826141,0.00288618,0.02467692,0.05344967
1757961796635,0.14024622,-0.08567738,-0.14987096,0.05231597,0.08730344,0.01051224,0.99824164,0.00324193,0.02527058,0.05352115
1757961796646,0.02758562,-0.07480463,-0.16018205,0.03034416,0.08128969,-0.01510480,0.99823412,0.00340883,0.02571768,0.05343808
1757961796656,-0.01992025,-0.22612359,0.12130538,0.01347044,0.07370603,-0.01525964,0.99822794,0.00348157,0.02611569,0.05335567
1757961796669,0.14617079,0.06335528,0.13215442,-0.00481870,0.04628771,0.00070796,0.99822014,0.00345121,0.02640730,0.05336013
1757961796680,-0.00700819,-0.09563257,0.00934425,0.01910971,0.05243556,0.02200618,0.99820588,0.00355440,0.02669045,0.05347897
1757961796690,-0.01298449,-0.05247627,0.07652192,0.00727141,0.04980299,-0.00165334,0.99819944,0.00359112,0.02694196,0.05347062
1757961796704,0.21815904,-0.10354033,0.10312973,0.01125294,0.03341310,0.00486545,0.99819111,0.00366877,0.02717251,0.05350419
1757961796739,0.12935276,-0.00968573,-0.00938133,0.00578270,0.01912994,0.00619413,0.99817584,0.00376939,0.02750537,0.05361197
1757961796760,-0.44788411,-0.29774437,-0.33357610,-0.04626579,0.03917652,0.01145858,0.99815974,0.00328591,0.02791476,0.05373171
1757961796788,0.27847344,0.11494051,0.06473538,-0.01353416,0.01278753,0.00819169,0.99814907,0.00309508,0.02809507,0.05384721
1757961796811,0.04647057,0.06779365,-0.17836973,-0.01656539,0.00711162,-0.01972167,0.99815968,0.00290209,0.02817792,0.05361746
1757961796825,0.16531995,-0.31983054,0.06675556,-0.08714400,-0.03896331,-0.02287709,0.99817727,0.00230080,0.02790907,0.05345960
1757961796841,0.16070424,0.08447521,0.28509453,-0.06126916,-0.00664658,0.01029514,0.99817527,0.00179226,0.02785391,0.05354505
1757961796878,-0.04291461,0.06711559,0.05637103,-0.01848402,-0.00401837,0.00004713,0.99817784,0.00145216,0.02777997,0.05354592
1757961796880,-7.79691461,-2.38494564,-25.87027146,0.13199119,-0.20298679,-0.21262688,0.99819297,0.00157095,0.02759728,0.05335456
1757961796908,0.47629902,0.32462119,1.60462284,0.00483686,-0.01778523,-0.00369504,0.99820265,0.00163987,0.02734384,0.05330190
1757961796922,0.03497946,-0.00341332,0.08771608,-0.00938691,-0.01122906,0.00447926,0.99820322,0.00157557,0.02726692,0.05333259
1757961796934,-0.06747950,-0.25350294,-0.04453015,-0.01050044,-0.01220045,0.01840428,0.99819957,0.00151519,0.02719677,0.05343841
1757961796951,-0.02352980,-0.03226605,0.01779083,-0.01446138,-0.00813819,0.00568619,0.99819904,0.00139227,0.02712759,0.05348674
1757961796968,0.01378560,-0.02053480,0.09716623,-0.00713757,0.00630302,0.00209601,0.99819666,0.00133018,0.02718243,0.05350498
1757961796981,-0.08166083,0.01287406,-0.01031284,0.00643673,0.01827773,0.00533095,0.99819170,0.00137041,0.02729667,0.05353830
1757961796982,-21.18324746,0.51825630,-4.53871123,0.08118995,0.14036697,0.01372650,0.99818841,0.00142724,0.02739492,0.05354790
1757961797000,1.77811603,0.07471260,0.28960559,0.00779203,0.02170630,0.00121039,0.99818251,0.00149542,0.02758485,0.05355850
1757961797050,-0.01225140,-0.01368802,0.02713056,0.00095251,0.00503148,0.00128889,0.99817723,0.00151937,0.02771139,0.05359091
1757961797086,-0.11377191,-0.26894702,-0.15539831,-0.07888351,0.04588863,-0.00209855,0.99815791,0.00015075,0.02850756,0.05355450
1757961797101,0.02776374,0.13046771,-0.24894265,-0.07601421,0.03683769,0.03682017,0.99813304,-0.00046877,0.02880779,0.05385459
1757961797125,0.11657106,0.02291581,0.16576637,-0.06684224,0.02001888,0.01738738,0.99811378,-0.00128425,0.02905202,0.05406671
1757961797148,-0.02556411,-0.01603691,0.03877470,-0.03068101,0.03654803,-0.01152635,0.99810811,-0.00163708,0.02947232,0.05393416
1757961797160,-0.05240602,0.24787128,-0.13533422,-0.02991162,0.04787285,0.00571528,0.99809743,-0.00181655,0.02975956,0.05396845
1757961797176,-0.05291854,0.12002915,0.12515266,-0.01851861,0.02933927,0.00127858,0.99808952,-0.00196562,0.02999574,0.05397874
1757961797189,-0.03590432,-0.05365724,0.06533662,-0.02676323,0.05862918,0.00195575,0.99807753,-0.00213155,0.03035924,0.05399087
1757961797200,0.10495027,-0.11633703,-0.10247821,-0.05039359,0.04593579,0.00794505,0.99806613,-0.00242636,0.03062797,0.05403735
1757961797213,-0.01422355,-0.15272130,0.06982469,-0.04924594,0.04412227,-0.00491323,0.99805862,-0.00272922,0.03089932,0.05400713
1757961797225,-0.09521687,-0.09889574,0.05962970,-0.06916449,0.06128453,-0.00583713,0.99804775,-0.00314766,0.03127009,0.05397182
1757961797236,0.06793974,-0.09061891,-0.07270744,-0.02967924,0.03952063,-0.01163689,0.99804367,-0.00331832,0.03149733,0.05390490
1757961797247,0.12497501,0.16648559,-0.14797654,0.01184073,0.04861758,-0.00635075,0.99803765,-0.00325675,0.03175014,0.05387188
1757961797258,0.02454375,0.38456936,0.00787252,0.02122050,0.05783826,0.01696388,0.99802294,-0.00314110,0.03206536,0.05396433
1757961797268,-0.01785266,0.16389243,-0.31549708,0.01249213,0.03409613,-0.00159832,0.99801769,-0.00307364,0.03224948,0.05395570
1757961797280,-0.03942106,0.00569758,0.07433686,-0.00171799,0.03696582,-0.03100124,0.99802032,-0.00308326,0.03245649,0.05378210
1757961797291,0.13465972,-0.20860629,0.10934774,-0.04544950,0.04338280,-0.03026949,0.99802070,-0.00334687,0.03270811,0.05360653
1757961797303,0.08337057,-0.10508043,-0.08596852,-0.06337668,0.01487607,-0.03241544,0.99802675,-0.00372079,0.03279588,0.05341528
1757961797314,0.04638895,-0.13224273,0.05334729,-0.05493473,0.02126609,-0.00115284,0.99802198,-0.00402842,0.03291497,0.05340883
1757961797325,0.02061291,0.05306450,0.09669878,-0.04315223,0.03311998,0.00394605,0.99801411,-0.00425713,0.03309051,0.05342974
1757961797335,-0.05108460,-0.01412910,0.04618831,0.00272131,0.01355524,-0.00851017,0.99801420,-0.00424284,0.03316167,0.05338506
1757961797347,0.06936438,0.32228573,0.10164285,0.01380139,0.02488881,-0.01423453,0.99801414,-0.00416349,0.03330478,0.05330321
1757961797357,0.12450389,0.09716530,-0.18635730,0.03025884,-0.00074205,0.00305049,0.99801407,-0.00400916,0.03330100,0.05331877
1757961797368,0.06274376,0.04422054,0.34277259,-0.01205714,0.01741056,0.00069518,0.99801039,-0.00407548,0.03339675,0.05332259
1757961797379,-0.07511930,-0.12198367,0.02604943,-0.00614042,0.00135332,-0.00650619,0.99801188,-0.00410833,0.03340399,0.05328779
1757961797391,0.00389606,-0.09311924,0.01083591,-0.02151063,0.00773381,-0.02040661,0.99801635,-0.00423847,0.03345078,0.05316433
1757961797402,-0.11935211,-0.29163242,0.10467568,-0.02765370,0.00780575,0.00107060,0.99801385,-0.00439610,0.03349528,0.05317043
1757961797404,12.78362774,-9.98823035,-0.75812925,-0.20437683,0.09961734,0.00560211,0.99801020,-0.00455960,0.03357497,0.05317491
1757961797417,-1.48396662,1.56779565,0.10378331,0.01605098,0.00709863,-0.01179455,0.99801327,-0.00445286,0.03362218,0.05309648
1757961797428,-0.02945203,0.36640207,-0.00422468,0.04162925,0.00802762,-0.02322511,0.99801951,-0.00422598,0.03366593,0.05296990
1757961797439,0.01755262,0.36091753,0.04815719,0.06540823,-0.00511660,-0.03516206,0.99803193,-0.00387277,0.03363830,0.05278002
1757961797473,-0.02038393,-0.15826634,0.00570750,0.01204759,-0.00050003,-0.00506026,0.99803757,-0.00366676,0.03362975,0.05269349
1757961797494,0.16078576,-0.05137127,0.18461150,-0.03236869,0.00912517,-0.00099663,0.99803358,-0.00400663,0.03372556,0.05268303
1757961797518,-0.04130501,-0.16975005,-0.02087699,-0.04166456,0.00859264,-0.00523848,0.99803130,-0.00450244,0.03382781,0.05262069
1757961797552,0.03205628,0.00623337,-0.00542128,-0.03491308,-0.00940537,-0.01587077,0.99804804,-0.00509596,0.03366792,0.05235089
1757961797573,0.18827644,0.14995594,0.05177477,-0.00811586,-0.01260698,-0.01569373,0.99806081,-0.00518199,0.03353429,0.05218453
1757961797607,-0.17102789,0.00055590,-0.07883967,0.01195455,-0.01196879,-0.01161489,0.99807880,-0.00498056,0.03333261,0.05198882
1757961797628,0.23932819,-0.12555169,0.18886495,-0.00957706,0.00084330,-0.00957528,0.99808323,-0.00508112,0.03334147,0.05188828
1757961797662,-0.13890568,0.20761033,-0.12246469,0.02197272,0.01721123,-0.00350317,0.99807837,-0.00470978,0.03363234,0.05182908
1757961797708,-0.00376433,-0.01420888,0.00676526,0.02626138,0.00454815,-0.00668280,0.99808552,-0.00410183,0.03373763,0.05167437
1757961797739,0.14810903,-0.05446513,0.17848458,0.02254012,-0.02796464,0.00367931,0.99809866,-0.00374795,0.03329858,0.05173214
1757961797757,0.34200378,0.21143829,0.04686438,0.02491219,-0.02941929,0.00807384,0.99810448,-0.00352498,0.03303528,0.05180440
1757961797801,-0.20486462,-0.13750657,-0.13074495,-0.00911175,-0.00731207,-0.00663359,0.99811665,-0.00372590,0.03287405,0.05165813
1757961797829,0.14750695,-0.14354235,-0.03171570,-0.04135744,-0.01762682,-0.01575893,0.99813357,-0.00429663,0.03263080,0.05144065
1757961797862,-0.04673756,0.10375456,-0.12834200,-0.01387535,-0.02283325,-0.00580342,0.99814964,-0.00452418,0.03225633,0.05134548
