UnixTime(ms),Ax,Ay,Az,Gx,Gy,Gz,QuatW,QuatX,QuatY,QuatZ
1761623509699,0.00000000,0.00000000,0.00000000,0.00000000,0.00000000,0.00000000,0.99156975,0.11929845,0.04258691,0.02727026
1761623509701,-59.06840927,36.85072635,49.41616921,0.79649349,0.36732244,0.36425892,0.99146604,0.11997547,0.04289914,0.02757988
1761623509710,9.02989814,-5.72625618,-7.26134502,0.09876772,0.05934444,0.03936995,0.99139248,0.12043968,0.04317805,0.02776492
1761623509721,0.03559787,-0.12836876,-0.01607746,0.07091212,0.05365293,0.04170179,0.99132506,0.12083324,0.04347583,0.02799636
1761623509733,0.41622034,0.10363070,0.02753737,0.04643510,0.04263434,0.02712063,0.99127645,0.12110489,0.04372524,0.02815502
1761623509744,-0.00054827,-0.18994069,0.12607700,0.06447916,0.02526618,0.02189500,0.99122253,0.12146597,0.04386673,0.02827763
1761623509755,0.02728079,0.03488877,0.05592112,0.05413911,0.01905010,0.00578975,0.99117891,0.12177456,0.04397532,0.02831063
1761623509767,0.05057687,0.01984153,0.05674035,0.03362524,-0.00900645,0.00288835,0.99115696,0.12196791,0.04392353,0.02832724
1761623509778,-0.09711369,0.01948465,-0.12511655,0.03457924,0.00107994,0.01561469,0.99112987,0.12216501,0.04392968,0.02841624
1761623509789,0.40559498,-0.23250019,-0.19007434,0.04092490,-0.00562902,-0.00236619,0.99110313,0.12239624,0.04389788,0.02840288
1761623509801,-0.03583288,-0.05288650,-0.07545445,0.02456733,-0.00788617,-0.00598632,0.99108905,0.12253381,0.04385372,0.02836935
1761623509812,0.27961790,0.01348530,0.02954942,0.02204719,-0.00285296,-0.00571997,0.99107515,0.12265948,0.04383746,0.02833675
1761623509823,0.16746770,-0.04226206,0.02817129,0.02647794,0.00143971,0.00184653,0.99105597,0.12280908,0.04384559,0.02834718
1761623509835,0.01750469,-0.06310442,0.01867167,0.00199497,-0.00391345,-0.00742493,0.99105675,0.12282035,0.04382348,0.02830523
1761623509846,-0.23170401,-0.06503959,-0.03556741,0.01564230,0.00335683,-0.00688941,0.99104625,0.12290717,0.04384211,0.02826699
1761623509857,-0.13959341,-0.06490275,-0.10719743,0.01250822,0.01348439,-0.01842572,0.99103699,0.12297847,0.04391897,0.02816197
1761623509868,-0.08219512,-0.01878633,0.00694826,0.00966151,0.00299112,-0.01098687,0.99103139,0.12303160,0.04393542,0.02810154
1761623509880,0.02856554,0.18543410,-0.07466971,-0.00914464,0.01023929,-0.00713859,0.99103637,0.12297994,0.04399327,0.02806121
1761623509891,0.00793546,-0.02167664,-0.13817037,0.00709936,0.01200828,-0.00461553,0.99102912,0.12302005,0.04406112,0.02803513
1761623509902,-0.04768935,-0.13428537,-0.01101100,-0.00606631,0.01637122,0.00471573,0.99102851,0.12298638,0.04415198,0.02806130
1761623509913,-0.04660037,-0.29767028,0.02926329,-0.03154562,0.02484888,0.00678027,0.99104314,0.12280972,0.04429113,0.02809927
1761623509924,-0.12924477,-0.25415365,-0.01520527,-0.08120800,0.02877696,0.02064860,0.99108888,0.12235496,0.04445229,0.02821490
1761623509936,-0.08531454,-0.01115664,-0.04419518,-0.05370665,0.02969450,0.02325656,0.99111501,0.12205152,0.04462006,0.02834630
1761623509947,-0.27837496,0.14756909,-0.08655564,-0.01056045,0.05716636,-0.00297372,0.99110830,0.12199238,0.04494019,0.02832965
1761623509958,-0.13428357,0.27778350,-0.03279233,0.01036625,0.05283531,0.01659933,0.99108524,0.12204991,0.04523343,0.02842178
1761623509969,-0.05508056,0.23814173,-0.03402350,0.04010431,0.06870524,0.03026506,0.99103505,0.12227450,0.04561818,0.02859126
1761623509980,0.15941772,0.12351309,0.13874806,0.03130626,0.06867296,0.02251549,0.99099198,0.12244981,0.04600274,0.02871735
1761623509992,-0.00647882,-0.04335016,0.01233664,0.03657077,0.08126226,0.03245743,0.99093968,0.12265643,0.04646188,0.02890073
1761623510003,-0.03687655,-0.18476203,-0.01493734,0.01888304,0.08243193,0.03814155,0.99089821,0.12276312,0.04692762,0.02911623
1761623510014,-0.10582407,0.09353549,0.12638469,-0.01641166,0.09226337,0.02980739,0.99088039,0.12267286,0.04743507,0.02928017
1761623510025,-0.02124418,-0.09407179,-0.01886835,-0.02039019,0.08548362,0.02228666,0.99086780,0.12255867,0.04791377,0.02940498
1761623510036,-0.04000656,-0.13866738,0.01890507,-0.02002263,0.08074333,0.00924902,0.99085807,0.12244555,0.04836997,0.02945723
1761623510047,0.06765408,-0.23398763,0.08451802,-0.02983043,0.09718429,-0.00476761,0.99085287,0.12228148,0.04890449,0.02943101
1761623510059,0.01216853,-0.05163743,0.00055292,-0.01997192,0.08234273,0.00985530,0.99084216,0.12216964,0.04936561,0.02948620
1761623510070,-0.02309162,0.13169474,-0.02699415,0.00540753,0.08665482,-0.00552781,0.99081456,0.12220046,0.04985954,0.02945469
1761623510081,0.00095935,0.08799127,0.17285969,-0.00654755,0.09182576,0.03070923,0.99078866,0.12216478,0.05035999,0.02962206
1761623510092,0.02370447,0.02292418,-0.05038254,0.00354196,0.08314527,0.03850119,0.99075626,0.12218443,0.05082145,0.02983574
1761623510103,-0.02444315,-0.00030393,-0.04900616,0.01496356,0.08359936,0.02002906,0.99071842,0.12226823,0.05128960,0.02994790
1761623510114,-0.02711061,-0.08163971,-0.00175929,0.00563274,0.08900284,0.01487544,0.99068665,0.12229921,0.05177912,0.03002972
1761623510126,0.03620183,-0.01499887,0.00441330,-0.03710502,0.07041326,0.01143010,0.99068968,0.12208957,0.05217695,0.03009430
1761623510137,0.01937186,-0.03953143,-0.02053884,-0.01243069,0.07420812,-0.00327021,0.99067672,0.12201933,0.05259623,0.03007582
1761623510148,-0.04963788,-0.25987061,-0.03141973,-0.00537401,0.05591249,-0.01396226,0.99066612,0.12198924,0.05290934,0.02999763
1761623510159,-0.00260814,-0.02817883,0.11357957,-0.00884626,0.06508336,-0.03361915,0.99065851,0.12194058,0.05326730,0.02981273
1761623510170,0.10028385,0.10724144,-0.02714182,-0.00581114,0.05763796,-0.00477752,0.99064580,0.12190775,0.05359295,0.02978573
1761623510182,0.07375310,0.34930614,0.02800751,0.00838096,0.05512209,0.01026912,0.99062133,0.12195510,0.05390439,0.02984375
1761623510192,-0.07983572,0.16341756,0.10475330,0.01251986,0.06361284,0.00323034,0.99059373,0.12202271,0.05424790,0.02986120
1761623510204,0.06170980,-0.02734066,-0.07849015,0.01353696,0.06105064,0.01402892,0.99056323,0.12209852,0.05458978,0.02993976
1761623510215,0.00879054,-0.05853434,0.06842370,-0.00248353,0.05386391,0.00649476,0.99054718,0.12208461,0.05489142,0.02997613
1761623510226,-0.14231179,-0.04932802,0.17866188,-0.02457055,0.04503168,0.00091579,0.99054996,0.12194701,0.05514360,0.02998126
1761623510237,-0.01354219,-0.12018694,0.08172831,-0.05417597,0.03650204,-0.01482622,0.99057838,0.12164363,0.05534801,0.02989823
1761623510248,0.08207074,-0.00830493,0.31526424,-0.04958975,0.03823230,-0.01374769,0.99060234,0.12137089,0.05555829,0.02982262
1761623510259,0.12727931,0.23181066,-0.40466743,-0.02069730,0.02089255,-0.00761040,0.99061125,0.12125498,0.05567529,0.02978000
1761623510271,0.11446713,-0.03522148,-0.17631370,0.00556953,0.02216151,0.00398473,0.99059957,0.12128673,0.05580161,0.02980272
1761623510282,0.00991098,0.06443648,0.24173640,0.01996777,0.02581498,0.01563041,0.99057596,0.12139455,0.05594101,0.02988712
1761623510293,0.23321261,-0.16405023,-0.06334793,-0.00200229,0.03501756,0.01552563,0.99056328,0.12138304,0.05614236,0.02997639
1761623510304,-0.38107993,0.01629062,0.15960252,-0.01714792,0.03529305,-0.00812742,0.99056516,0.12128873,0.05633647,0.02993169
1761623510315,-0.00897164,-0.00294602,-0.13300890,-0.02107386,0.03127761,-0.00349912,0.99057018,0.12117177,0.05651006,0.02991227
1761623510326,-0.22825879,0.04943023,0.14232677,-0.04664796,0.04007316,-0.00184552,0.99058958,0.12091054,0.05673447,0.02990194
1761623510338,-0.01401736,0.06444420,-0.26039019,-0.02045588,0.04569929,-0.00314987,0.99058940,0.12079598,0.05699039,0.02988430
1761623510349,-0.22000120,0.03741921,-0.01140395,0.00848044,0.04352276,-0.00528125,0.99057044,0.12084348,0.05723411,0.02985472
1761623510360,-0.15300299,-0.06468178,-0.09883423,0.01184677,0.04748695,-0.01479230,0.99054944,0.12090982,0.05750004,0.02977188
1761623510371,-0.16408477,0.18158101,0.11812497,0.00115408,0.06219871,-0.02096879,0.99053205,0.12091622,0.05784524,0.02965551
1761623510382,0.33016939,-0.27644127,-0.10449317,0.00558197,0.05932346,0.00860443,0.99050756,0.12094720,0.05817449,0.02970326
1761623510394,-0.19892510,0.01846020,-0.05196249,-0.00815537,0.06139462,0.00910631,0.99049106,0.12090072,0.05852444,0.02975517
1761623510404,-0.02381662,-0.14342063,0.11698834,0.00081380,0.07680884,-0.00514866,0.99046654,0.12090515,0.05894305,0.02972711
1761623510416,0.13159518,0.00295460,-0.13406781,-0.01717168,0.07596789,0.00996942,0.99045077,0.12080641,0.05937986,0.02978443
1761623510427,-0.06992784,0.08979650,-0.05962606,-0.01146351,0.07056626,0.01624826,0.99043242,0.12074337,0.05976798,0.02987380
1761623510438,-0.01231501,-0.09436376,-0.08275686,-0.00595831,0.07745731,0.00887214,0.99040914,0.12071059,0.06019399,0.02992259
1761623510449,0.04258339,-0.01336886,0.03766759,0.00508700,0.07130372,0.03468129,0.99037544,0.12073908,0.06059329,0.03011681
1761623510460,-0.02898504,0.08092647,0.07982765,-0.00608864,0.08043744,0.01721405,0.99034899,0.12070499,0.06104374,0.03021321
1761623510471,0.06407290,-0.10857817,0.02252961,-0.02155218,0.06699588,0.03066101,0.99033537,0.12058537,0.06141557,0.03038338
1761623510483,0.04094731,0.09329765,0.19886172,-0.00720686,0.06430963,0.00512305,0.99031684,0.12054465,0.06177892,0.03041232
1761623510494,0.10750894,0.02082844,0.28978852,-0.02914608,0.05076921,0.02170436,0.99031521,0.12038435,0.06205815,0.03053170
1761623510505,0.03430688,0.15445873,-0.16356029,-0.00955336,0.04135770,0.01193107,0.99030511,0.12033085,0.06228975,0.03059851
1761623510516,0.09604888,-0.04527951,-0.32265376,0.01598574,0.03191934,0.02076563,0.99027960,0.12041957,0.06246691,0.03071376
1761623510527,0.03262797,-0.05698818,0.13730972,0.01448751,0.02260526,0.02137921,0.99025801,0.12050070,0.06259350,0.03083348
1761623510539,0.29460204,-0.04897165,-0.13494674,0.01464554,0.02378394,0.02219639,0.99023572,0.12058272,0.06272669,0.03095778
1761623510550,0.09907181,-0.01318582,0.28699941,0.00358829,0.00316777,0.01832873,0.99022894,0.12060281,0.06274442,0.03106042
1761623510561,0.32283733,0.14353044,0.18018506,-0.01379562,-0.00112128,0.02135682,0.99023493,0.12052624,0.06273820,0.03117895
1761623510572,-0.33729836,-0.11519423,-0.16337100,-0.00502500,-0.02207821,0.02057331,0.99024255,0.12049810,0.06261456,0.03129417
1761623510583,0.16908439,-0.01250985,-0.08671482,-0.00339428,-0.03829625,0.02312319,0.99025419,0.12047927,0.06240202,0.03142250
1761623510594,0.09780471,0.03045441,-0.06801275,0.01795627,-0.02075038,0.03497822,0.99024303,0.12057982,0.06228582,0.03161838
1761623510605,-0.00237582,0.08122345,-0.00380132,0.01398884,-0.02729221,0.04227749,0.99023550,0.12065816,0.06213298,0.03185513
1761623510617,-0.20256889,-0.02036666,0.09065764,0.00685745,-0.01656388,0.04131849,0.99022911,0.12069690,0.06203939,0.03208858
1761623510628,0.00584146,-0.12851448,-0.02240678,0.00607742,-0.02179545,0.05253312,0.99022314,0.12073033,0.06191952,0.03237751
1761623510639,0.12902878,0.02551202,0.02937381,-0.01832180,-0.01881207,0.02993137,0.99023673,0.12062773,0.06181417,0.03254513
1761623510650,0.25373789,-0.03180633,-0.22617834,0.01204890,-0.02743930,0.02004213,0.99023439,0.12069520,0.06166051,0.03265736
1761623510661,0.15205267,0.11953359,0.03231119,0.00952914,-0.02584334,0.01649383,0.99023383,0.12074856,0.06151579,0.03274973
1761623510672,0.11110777,0.16779310,-0.03743763,0.01419281,-0.03727454,0.00935623,0.99023532,0.12082662,0.06131078,0.03280119
1761623510684,0.17645021,0.19588282,-0.13999212,0.00230495,-0.03495822,0.00902003,0.99024418,0.12083953,0.06111501,0.03285170
1761623510695,0.05203052,-0.05090201,0.00190066,0.00432733,-0.03217355,0.01509722,0.99024951,0.12086377,0.06093484,0.03293625
1761623510706,-0.06113792,-0.21765928,-0.02481022,0.00492392,-0.02880632,0.01410236,0.99025340,0.12089109,0.06077497,0.03301451
1761623510717,-0.07256930,-0.20925677,0.00349884,-0.00383884,-0.03537054,0.01574611,0.99026532,0.12086940,0.06057512,0.03310348
1761623510728,0.07992392,0.02345188,0.06416518,-0.02284377,-0.03661357,-0.01151063,0.99029533,0.12074262,0.06037192,0.03303959
1761623510745,0.09685440,0.04686841,-0.34191495,-0.00402211,-0.04267543,0.00847679,0.99031844,0.12070944,0.06001985,0.03310953
1761623510749,1.92996720,1.24938335,3.40468956,-0.00892042,-0.14713714,0.06256624,0.99033578,0.12068981,0.05969614,0.03324717
1761623510760,-0.40913830,-0.19022242,-1.23179938,0.01432846,-0.05417201,0.00519994,0.99034326,0.12077005,0.05939278,0.03327629
1761623510772,-0.02718635,-0.15192995,-0.07885684,0.02566675,-0.05506225,0.02462168,0.99033932,0.12092149,0.05906791,0.03342156
1761623510784,-0.05999612,-0.12072830,0.23018983,0.00078919,-0.05951331,0.01673730,0.99035572,0.12092599,0.05872869,0.03351696
1761623510796,0.19211592,-0.12580777,-0.05350989,0.00233541,-0.07146186,0.00580605,0.99037928,0.12094070,0.05827848,0.03355354
1761623510805,0.85107443,-0.26942981,0.37886268,-0.01826820,-0.12389626,-0.00326684,0.99042247,0.12085849,0.05772094,0.03353884
1761623510816,-0.12350586,0.20656376,-0.20557855,-0.03814205,-0.13300188,-0.04555919,0.99049886,0.12064871,0.05698943,0.03328827
1761623510839,-0.26611594,0.08122913,-0.25427491,-0.01342491,-0.07219757,-0.02374989,0.99057421,0.12049432,0.05615916,0.03301514
1761623510848,3.23836061,0.97382686,1.86100640,0.00800631,-0.37733688,-0.13582497,0.99067876,0.12052835,0.05455548,0.03243789
1761623510858,-1.60288352,-0.26152976,-0.97098916,0.01485895,-0.17203943,-0.05577893,0.99072860,0.12060710,0.05364367,0.03214226
1761623510869,-0.23099274,-0.10058528,-0.15908151,0.01422685,-0.14901290,-0.02279635,0.99076786,0.12068677,0.05280920,0.03201460
1761623510881,-0.16863970,-0.28260263,-0.05883675,0.00385268,-0.12278662,-0.01674796,0.99080532,0.12070873,0.05210932,0.03191913
1761623510892,-0.19966210,-0.19260097,-0.00621698,-0.02316579,-0.12424791,-0.01110126,0.99086139,0.12057437,0.05138868,0.03185475
1761623510904,-0.15741167,-0.01032474,0.04186817,-0.01710685,-0.09690248,-0.01623034,0.99090509,0.12047601,0.05083149,0.03176142
1761623510916,-0.16995889,0.04815414,-0.03948653,0.01987381,-0.08563681,-0.00458217,0.99091697,0.12058829,0.05034764,0.03173553
1761623510927,-0.25925558,0.14635321,-0.15618526,0.03464216,-0.05781895,0.01471706,0.99090629,0.12079788,0.04999784,0.03182457
1761623510938,-0.11303962,0.12003967,0.02616728,0.04747851,-0.04062748,0.01907045,0.99088274,0.12105426,0.04977845,0.03192755
1761623510949,-0.02264951,-0.03913838,-0.04610856,0.02418109,-0.01265280,0.04377584,0.99086181,0.12118968,0.04970759,0.03217270
1761623510960,-0.11816384,-0.09885564,-0.03028712,0.01164035,-0.00277205,0.03930782,0.99084757,0.12125428,0.04969221,0.03239086
1761623510972,-0.06772266,-0.23030340,-0.05492163,-0.00121479,0.01360665,0.03032481,0.99083894,0.12124742,0.04976908,0.03256219
1761623510983,-0.13587467,-0.12916809,0.03495393,-0.05417263,0.01315012,0.02938917,0.99086739,0.12093863,0.04984404,0.03272971
1761623510995,0.00829106,-0.06015622,-0.02817760,-0.02497743,0.00920872,0.00569337,0.99088152,0.12079127,0.04989837,0.03276330
1761623511019,0.05335317,0.08307733,-0.11964414,-0.01057408,-0.00229744,0.00544773,0.99089572,0.12066861,0.04987172,0.03282649
1761623511028,0.55653142,0.14461189,0.47173093,-0.03828014,0.00175881,-0.01712366,0.99091986,0.12048869,0.04987999,0.03274601
1761623511036,0.16808921,0.32836434,-0.46247647,-0.01895016,-0.00864124,-0.00484304,0.99093275,0.12040436,0.04984153,0.03272446
1761623511048,-0.14057169,-0.01364189,-0.16208834,-0.02366266,-0.04057709,-0.01282459,0.99096235,0.12027304,0.04961633,0.03265328
1761623511061,-0.15473386,-0.22194571,0.03592233,-0.01500112,-0.02166829,-0.00609665,0.99098330,0.12017178,0.04947007,0.03261213
1761623511071,0.21246632,-0.10903282,0.01753112,-0.03020596,-0.02644544,-0.00735412,0.99100862,0.12002528,0.04934181,0.03257646
1761623511083,0.03213403,-0.12928718,0.04496072,-0.02829135,-0.03615651,0.00193923,0.99103905,0.11985836,0.04912849,0.03258791
1761623511094,0.19494868,-0.21566086,0.02855412,-0.02782871,-0.05086313,-0.00518631,0.99107231,0.11970530,0.04884874,0.03255938
1761623511105,0.12661091,0.07652017,0.06076781,-0.02746959,-0.05164770,0.00412682,0.99110462,0.11955010,0.04855693,0.03258270
1761623511115,-0.08575122,0.15972192,-0.10149597,-0.02137095,-0.06122269,0.01051700,0.99113176,0.11943897,0.04823857,0.03263739
1761623511128,-0.12539291,0.13336466,-0.04144265,-0.03257801,-0.04861614,0.00882209,0.99116950,0.11923373,0.04793229,0.03269297
1761623511138,0.20208078,-0.13370099,0.07915574,-0.03882569,-0.06858232,0.01981053,0.99120718,0.11903378,0.04757909,0.03279499
1761623511149,-0.04450635,-0.05648804,-0.11279701,-0.04173790,-0.07245395,0.01618160,0.99125122,0.11880213,0.04717697,0.03288480
1761623511161,-0.03208271,0.00204742,-0.22903515,-0.03171189,-0.07470184,0.00873441,0.99129174,0.11861979,0.04674744,0.03293502
1761623511174,0.01043285,0.05303137,0.00070694,0.00104019,-0.05812145,0.02031409,0.99130495,0.11862691,0.04634930,0.03307417
1761623511183,0.68125883,0.08996796,0.10647386,0.00899965,-0.10002370,0.05649452,0.99131203,0.11866471,0.04592920,0.03331145
1761623511194,-0.31636221,0.20192988,0.27505199,0.00378304,-0.07292489,0.02442267,0.99132393,0.11868627,0.04551353,0.03345066
1761623511205,0.05069256,0.03044284,0.05265157,-0.00443176,-0.08511173,0.02272000,0.99134437,0.11866146,0.04503691,0.03357789
1761623511220,-0.12220067,-0.16981351,0.02310892,-0.00418422,-0.06452575,0.01771658,0.99136492,0.11863091,0.04456587,0.03370722
1761623511268,-0.12074516,0.00285041,-0.03887894,-0.00264665,-0.02046883,0.00417077,0.99139097,0.11856766,0.04407666,0.03380690
1761623511272,27.61689120,-9.38466256,16.99324107,-0.21487895,-0.79416355,0.21012002,0.99149981,0.11812716,0.04244863,0.03423765
1761623511289,-5.89290894,2.50128967,-3.57976666,0.03087598,-0.04770651,0.03078709,0.99147617,0.11839578,0.04203358,0.03450550
1761623511335,-0.20138321,-0.05084805,-0.12721601,0.01177617,-0.01519706,0.00342301,0.99145602,0.11866368,0.04168785,0.03458337
1761623511341,8.97255839,0.63405753,7.94739636,-0.01802331,-0.17975707,-0.03648728,0.99148829,0.11861052,0.04115757,0.03447573
1761623511364,-1.89439732,-0.18249017,-1.70955315,0.02435348,-0.03659775,-0.01304895,0.99147695,0.11890032,0.04072205,0.03432045
1761623511410,-0.16249722,0.01728358,-0.12192651,0.01829306,-0.01153879,-0.00614397,0.99144245,0.11931740,0.04045897,0.03418037
1761623511413,30.67768389,13.22594853,26.17547450,0.26220998,-0.28127474,-0.10735005,0.99141604,0.11973694,0.04000893,0.03400861
1761623511440,-3.54615808,-1.63656800,-2.86434375,-0.00571306,-0.02434400,-0.02056389,0.99144745,0.11966124,0.03968637,0.03373614
1761623511466,-0.03990404,0.10159240,-0.05156952,0.02152287,-0.02094414,0.00076195,0.99142390,0.11994427,0.03941096,0.03374616
1761623511517,-0.08337465,-0.00864056,-0.11817278,0.03053353,-0.00163157,-0.00387979,0.99133370,0.12072898,0.03936902,0.03364644
1761623511573,0.01493752,-0.00669042,-0.00732928,0.02402205,0.00209933,-0.02342166,0.99127183,0.12139559,0.03942728,0.03299649
1761623511598,0.04564281,-0.08910432,0.56742914,0.00690681,0.10037257,-0.03525226,0.99122531,0.12148158,0.04067692,0.03255760
1761623511638,-0.16273706,-0.00280535,-0.28759309,0.00891519,0.03630078,-0.01191115,0.99118107,0.12166033,0.04140475,0.03231878
1761623511672,-0.04129716,-0.06351664,0.03882534,-0.00218450,0.04609313,0.01911561,0.99114251,0.12162374,0.04217681,0.03263897
1761623511738,0.02239851,0.01107305,-0.05361583,-0.00420803,0.01035855,0.00353371,0.99114109,0.12148487,0.04251864,0.03275558
1761623511773,-0.11839868,0.20633157,0.52274508,0.06352781,0.05547037,-0.00355889,0.99096209,0.12260932,0.04350047,0.03269259
1761623511817,0.07652219,-0.12179871,-0.27196389,0.02332244,0.02209962,-0.00091041,0.99087690,0.12312707,0.04399108,0.03267238
1761623511852,0.02346555,0.07131966,0.03808122,0.02783825,0.00345769,0.01350377,0.99080614,0.12361146,0.04405124,0.03290735
1761623511876,0.12550607,-0.13280881,0.26829736,0.00579085,-0.00855167,0.00023053,0.99080200,0.12367979,0.04395033,0.03291007
1761623511901,0.13723833,0.11298194,-0.10879163,0.01852760,-0.01598981,0.00451661,0.99077968,0.12391509,0.04374726,0.03296743
1761623511924,0.07852196,-0.03700114,-0.02431506,0.01273631,-0.01125831,-0.00146601,0.99076773,0.12406029,0.04361892,0.03295071
1761623511945,0.02067370,-0.05224774,-0.04995573,-0.00068969,-0.02555442,-0.00327727,0.99078182,0.12405291,0.04334548,0.03291565
1761623511993,-0.10343643,-0.00033692,-0.12996095,0.00612541,-0.01625042,-0.00694595,0.99078587,0.12419869,0.04295872,0.03275033
1761623512025,0.24221907,0.04665077,0.40260394,0.04282938,-0.07230322,-0.00321182,0.99075069,0.12488825,0.04179464,0.03269862
1761623512057,-0.07855575,-0.07600118,-0.07427298,0.00877914,-0.06844448,0.00083181,0.99077830,0.12502959,0.04069269,0.03271202
1761623512096,0.03715961,-0.16856012,0.11885972,-0.05910103,-0.15230950,-0.03214501,0.99105678,0.12389485,0.03776834,0.03209483
1761623512130,-0.03851474,-0.17346029,0.17358709,-0.11106058,-0.25817216,0.06733401,0.99140774,0.12202348,0.03341814,0.03322941
1761623512165,-0.11235539,-0.29160050,0.09322126,-0.23546393,-0.12928744,0.03422360,0.99197042,0.11782045,0.03111036,0.03384030
1761623512176,-1.15730166,-2.87665357,8.42278745,-0.60146397,-0.19708822,-0.18007249,0.99240407,0.11466276,0.03007565,0.03289492
1761623512208,0.10398384,1.40394630,-2.58033451,-0.08973816,0.04332442,-0.03095742,0.99256346,0.11323144,0.03076667,0.03240115
1761623512222,-1.22198245,-0.15316798,3.09103335,-0.09201451,0.09871811,-0.14603400,0.99264791,0.11258734,0.03145770,0.03137891
1761623512247,0.39192982,0.35235389,-1.28152239,-0.03820916,0.03651905,-0.03701212,0.99270234,0.11210590,0.03191784,0.03091256
1761623512262,0.03490844,0.40895065,0.77932567,0.04193681,0.03373679,0.02171110,0.99265384,0.11241833,0.03216918,0.03107431
1761623512276,0.31907225,-0.04360394,-0.15081032,0.11928250,0.06326228,0.05868877,0.99252889,0.11327120,0.03262151,0.03149393
1761623512309,0.14101527,-0.05471212,-1.14196111,0.07625990,0.01551166,0.01493565,0.99236770,0.11453330,0.03287822,0.03174112
1761623512339,-0.04641354,0.27247464,0.77456025,0.12085994,0.02100906,-0.01688429,0.99215293,0.11635829,0.03319546,0.03148616
1761623512371,-0.00124935,0.04016318,0.54710269,0.16714447,0.00969037,-0.02631998,0.99184762,0.11899917,0.03334857,0.03107031
1761623512380,-2.54718934,0.15315230,16.26159268,0.44185464,0.03669140,-0.00749581,0.99159429,0.12105379,0.03351918,0.03103545
1761623512428,0.56064478,-0.18000002,-3.81445724,0.01469822,-0.00601707,-0.00146293,0.99155729,0.12140508,0.03337538,0.03100049
1761623512457,-0.01042541,0.25474295,1.49720266,0.13048737,-0.03408080,-0.06962021,0.99136941,0.12331672,0.03287609,0.02998055
1761623512469,-0.89030571,3.46845502,6.44444508,0.35000753,-0.04048871,-0.20113203,0.99115344,0.12538177,0.03263721,0.02879387
1761623512491,0.23796243,-1.89526274,-3.84608875,0.10903582,-0.01389100,-0.05418608,0.99102552,0.12655935,0.03248719,0.02820866
1761623512513,0.02000847,-0.19044036,-0.74675479,0.04508774,-0.01282628,0.00932054,0.99096375,0.12705532,0.03234610,0.02831119
1761623512536,0.06910257,-0.04841597,-0.56830811,0.07529795,-0.01974426,0.00587215,0.99085780,0.12792124,0.03211904,0.02837872
1761623512557,-0.04761085,0.02619126,-0.22584302,0.07750485,-0.03066366,-0.01144117,0.99076621,0.12873504,0.03179707,0.02825859
1761623512568,-0.22042409,0.64924297,2.82251447,0.11062110,-0.03778987,-0.01265550,0.99069045,0.12938771,0.03157411,0.02818392
1761623512579,0.20933846,-1.03133506,-0.66649665,0.05820068,-0.03888810,0.02783931,0.99065101,0.12970781,0.03136022,0.02833704
1761623512591,-0.13521880,-0.42422128,-0.28964902,-0.00872807,-0.06429277,0.03667815,0.99066264,0.12965981,0.03100661,0.02853877
1761623512604,-0.09339127,0.27262815,-1.25984676,-0.00722504,-0.04545416,-0.02002152,0.99068187,0.12961248,0.03070889,0.02840762
1761623512614,-0.36776283,0.12607339,0.20722232,0.01545738,-0.05297929,-0.04924828,0.99068717,0.12969286,0.03043340,0.02815153
1761623512624,-0.34476702,0.25316500,-0.35845316,0.00413513,-0.04455112,-0.04420768,0.99069753,0.12971354,0.03021064,0.02793049
1761623512635,0.29603273,-0.13668513,0.36830497,0.01430453,-0.04350693,-0.03511060,0.99070001,0.12979507,0.02996265,0.02773036
1761623512647,-0.04620667,-0.41244791,-0.20120925,0.06379034,-0.07889894,-0.02578252,0.99066831,0.13017782,0.02948926,0.02757567
1761623512668,0.49679402,-0.26757453,-0.78898443,0.04461117,-0.04066798,-0.03960490,0.99063166,0.13063508,0.02907241,0.02716972
1761623512670,-30.19665295,-16.94082621,105.15095353,0.18502534,-0.48483320,-0.96125102,0.99064650,0.13081085,0.02861182,0.02625653
1761623512690,2.67156703,1.80820896,-9.88174580,0.00811456,-0.04648087,-0.12501366,0.99068178,0.13089281,0.02814236,0.02499389
1761623512692,-13.48942371,23.72822331,194.07194892,-0.30926241,-0.59443281,-1.37139829,0.99075490,0.13064540,0.02766682,0.02389677
1761623512703,2.76739070,-2.27966464,-24.76094126,-0.04532826,-0.09930787,-0.15343148,0.99082590,0.13038476,0.02709580,0.02301454
1761623512714,0.08077612,-0.52797239,-0.97530343,-0.00626684,-0.08963044,-0.12762769,0.99085802,0.13035218,0.02662972,0.02235088
1761623512724,0.46814114,-0.09048019,0.97651101,-0.02252977,-0.16404324,-0.10044178,0.99090762,0.13023502,0.02577669,0.02182858
1761623512735,0.42965843,-0.47683908,0.25454201,-0.03277781,-0.16995452,-0.07725597,0.99096546,0.13005147,0.02482495,0.02139595
1761623512747,0.18818629,0.01954484,-0.37524908,-0.01453799,-0.15963231,-0.09643867,0.99101276,0.12996424,0.02386715,0.02081732
1761623512758,0.16961873,0.56743201,0.14810851,0.03317124,-0.19941931,-0.12311828,0.99102862,0.13014668,0.02277035,0.02014017
1761623512769,0.50580099,0.61088707,-0.33813257,0.11756947,-0.22341753,-0.11420022,0.99098395,0.13078743,0.02155272,0.01951777
1761623512779,0.18134769,1.05493972,-0.07253289,0.16219927,-0.24330571,-0.06224428,0.99090607,0.13162276,0.02029970,0.01919722
1761623512790,-0.02815850,-0.27534394,-0.30560777,0.20020725,-0.23878703,0.00911387,0.99079097,0.13266384,0.01905801,0.01924461
1761623512801,-0.11670358,-1.11221219,-0.84978846,0.19853379,-0.22100983,0.03625872,0.99066172,0.13376570,0.01783140,0.01944584
1761623512812,-0.30329633,-0.70372870,0.27508387,0.12173253,-0.21890453,0.02863874,0.99058624,0.13445958,0.01658364,0.01960909
1761623512823,-0.08350033,0.11625868,0.33089503,0.03294902,-0.21477273,0.00327456,0.99058027,0.13464244,0.01539166,0.01962726
1761623512835,-0.40256055,-0.73625949,-0.61388128,0.04668283,-0.23837672,-0.02837947,0.99056744,0.13490854,0.01403291,0.01946550
1761623512846,-0.26544613,-0.08697196,-0.20396388,0.05950081,-0.24537565,-0.12525417,0.99055445,0.13523281,0.01269561,0.01878286
1761623512857,0.08467989,-0.15501529,-0.06228459,0.00755540,-0.20622159,-0.09038685,0.99057242,0.13527550,0.01153046,0.01827218
1761623512868,0.13753506,0.86261921,0.32341292,-0.09272041,-0.19237808,-0.02450059,0.99065464,0.13477481,0.01049162,0.01813987
1761623512879,-0.17906220,0.08903216,0.12968168,-0.11354498,-0.11993991,0.06878623,0.99074146,0.13413328,0.00981396,0.01852851
1761623512890,-0.23174749,-0.40064255,-0.39828051,-0.09861998,-0.08796416,0.16060189,0.99080086,0.13360567,0.00934335,0.01938773
1761623512902,-0.31535571,-0.50665429,-0.27078662,-0.11837365,-0.03077455,0.15486616,0.99088078,0.13288359,0.00915562,0.02033242
1761623512912,0.64889035,-1.11789877,1.24128162,-0.20559688,0.02412405,0.17342967,0.99100349,0.13181448,0.00928107,0.02123425
1761623512923,-0.53941156,-0.24421161,-0.16749421,-0.25306368,-0.00393464,0.11917154,0.99117510,0.13040998,0.00925923,0.02189565
1761623512935,-0.31331753,0.20604886,0.43033644,-0.28374769,0.03938428,0.02095038,0.99137819,0.12882099,0.00947978,0.02201298
1761623512946,-0.18437263,0.13313361,-0.30859812,-0.25498294,0.04127879,0.03502515,0.99155923,0.12736759,0.00971507,0.02221262
1761623512957,-0.27985397,0.67998437,0.16455639,-0.22551105,0.05153562,-0.01392101,0.99172093,0.12609345,0.01000625,0.02213397
1761623512970,-0.23575024,0.61881822,-0.62979995,-0.12671344,0.04370773,-0.05892955,0.99183003,0.12527615,0.01028816,0.02175387
1761623512992,0.12013534,0.14271923,-0.70590403,-0.01570643,0.03710595,-0.03657373,0.99185662,0.12510102,0.01070190,0.02134607
1761623513002,-0.75091932,0.82333596,7.01603631,-0.03121429,0.07456011,-0.12383901,0.99188334,0.12495588,0.01104860,0.02077022
1761623513006,1.54823416,-0.60933080,-0.46216321,0.03062292,0.05777857,-0.07998435,0.99187781,0.12501559,0.01116127,0.02061425
1761623513039,0.15776720,-0.09580434,-2.10620449,0.00849625,-0.00549414,0.00628899,0.99185887,0.12515663,0.01107007,0.02071865
1761623513059,1.62341969,-0.85790666,3.03362899,-0.06630528,-0.33092600,0.12126271,0.99194847,0.12448695,0.00772771,0.02194340
1761623513070,-2.79263913,1.26746406,1.38175555,-0.29057180,-0.35349149,0.06525024,0.99214198,0.12297597,0.00588956,0.02228270
1761623513080,-0.27537482,0.90320718,-0.61498864,-0.13259036,-0.16912535,0.00796869,0.99223279,0.12227324,0.00499319,0.02232494
1761623513090,-0.18361310,0.01921886,-1.50696040,-0.04486583,-0.02582190,0.03141576,0.99225849,0.12203994,0.00485892,0.02248830
1761623513102,-0.07797735,-0.55505719,-1.08799609,-0.02817467,0.01244112,0.00758437,0.99227690,0.12187935,0.00492983,0.02253153
1761623513113,-0.03973177,-0.76289769,-0.08224038,-0.05737230,0.02888085,0.02880647,0.99231089,0.12156667,0.00508723,0.02268853
1761623513124,-0.03834665,0.50975160,0.12148520,-0.12982410,0.05666044,0.03728361,0.99239321,0.12083965,0.00540453,0.02289731
1761623513135,-0.20075586,-0.14742593,-0.42842545,-0.08205497,0.08949011,0.02808630,0.99244212,0.12038425,0.00590120,0.02305319
1761623513146,0.00077738,0.13499072,0.84925899,-0.09440930,0.15354363,0.04426072,0.99249344,0.11986972,0.00673802,0.02329441
1761623513157,-0.08106831,-0.02319740,-0.42372459,-0.04296973,0.16214341,0.06441383,0.99250724,0.11963123,0.00763791,0.02365191
1761623513169,0.12415995,0.07098174,-0.35546113,-0.01262559,0.18446367,0.04760137,0.99250051,0.11955674,0.00872625,0.02393276
1761623513180,-0.30846176,0.11299359,0.44466858,-0.02136066,0.19124391,0.06899287,0.99249573,0.11944140,0.00975896,0.02430532
1761623513191,-0.05270347,0.32449019,0.16582378,0.00234145,0.18974697,0.06440725,0.99247443,0.11945439,0.01081206,0.02466278
1761623513202,0.33110955,-0.09089614,-0.17824145,0.03174299,0.20436126,0.08836851,0.99242832,0.11962898,0.01193605,0.02514881
1761623513213,0.03158695,-0.40778268,0.19763116,0.07965201,0.19878275,0.08179900,0.99234801,0.12007901,0.01305917,0.02561097
1761623513224,0.48654739,-0.00607141,0.39341626,0.07150270,0.19632916,0.10634991,0.99226956,0.12047585,0.01414880,0.02620121
1761623513236,0.10512110,0.15726612,-0.35867756,0.03653572,0.14620589,0.07931299,0.99221910,0.12068776,0.01499679,0.02666123
1761623513247,0.57763057,0.89855602,0.47612385,0.02782531,0.12508718,0.02223137,0.99218714,0.12083802,0.01567226,0.02678128
1761623513258,-0.36482960,0.11495903,-1.06739563,0.09185661,0.06557961,-0.03231614,0.99212335,0.12135241,0.01603951,0.02660031
1761623513269,0.21580440,0.39548733,0.22811232,0.11391581,0.04070833,-0.04860704,0.99204934,0.12198465,0.01626544,0.02633054
1761623513280,0.46366212,0.26922397,0.10391534,0.13109356,0.05402488,0.00071522,0.99195710,0.12269255,0.01655717,0.02633440
1761623513292,0.08602978,-0.33130348,-0.33450686,0.10615098,0.02798084,0.03456530,0.99186905,0.12333476,0.01672646,0.02654352
1761623513302,0.14795328,0.28069146,0.94804089,0.09060895,-0.01946550,0.02363729,0.99180759,0.12381499,0.01662329,0.02666880
1761623513314,-0.24582595,-0.18777406,-0.41739174,0.09732365,-0.02161993,-0.04364867,0.99174796,0.12436000,0.01650222,0.02642437
1761623513325,-0.28346974,0.21449031,0.15502489,0.07892585,-0.05492993,-0.08114709,0.99170917,0.12480593,0.01619186,0.02596589
1761623513336,0.39475361,0.02668125,-0.30959294,0.07502149,-0.07218100,-0.06345971,0.99167330,0.12521105,0.01580209,0.02562320
1761623513347,-0.19657735,-0.62205753,-0.35014350,0.11442935,-0.08005661,-0.07456022,0.99160993,0.12585186,0.01535377,0.02520567
1761623513359,-0.13662140,-0.22350575,0.23274363,0.06981851,-0.05902512,-0.05187727,0.99157129,0.12625680,0.01501142,0.02490478
1761623513369,-0.20207610,-0.76783891,-0.05246985,0.12523569,-0.07510931,-0.06689223,0.99150399,0.12689550,0.01462837,0.02456363
1761623513381,-0.01224138,0.17108994,-0.20989231,0.07285880,-0.02303534,-0.04224431,0.99145662,0.12732901,0.01449131,0.02431227
1761623513392,0.06710280,0.24808064,-0.14429316,0.05807410,-0.00283658,-0.00428478,0.99141416,0.12766584,0.01447485,0.02428742
1761623513403,-0.18470437,-0.13614738,-0.11376227,0.07421066,-0.02247953,-0.00756595,0.99136569,0.12806287,0.01435459,0.02424694
1761623513414,0.03122995,0.20426878,0.14854740,0.05153008,-0.01170895,-0.04529069,0.99133576,0.12834886,0.01428960,0.02399558
1761623513425,0.66911351,-0.27266273,-0.35436012,0.09190370,-0.01844791,-0.07044523,0.99128295,0.12883595,0.01419183,0.02362222
1761623513436,0.28310103,0.04639982,-0.02457609,0.05745083,-0.02120536,-0.04802841,0.99124854,0.12916342,0.01407096,0.02334846
1761623513447,-0.87287489,-0.05107812,-0.12959711,0.05213834,-0.03393666,-0.07381416,0.99122324,0.12945018,0.01388431,0.02294248
1761623513458,-0.80566314,-0.11297956,-0.06351654,0.04109667,-0.00827428,-0.07696872,0.99120369,0.12968032,0.01383797,0.02251146
1761623513470,-0.02333403,0.05371004,-0.19340678,-0.00081098,-0.00618832,-0.06470321,0.99121350,0.12967550,0.01380115,0.02212647
1761623513481,-0.50253099,-0.02073912,-0.06198137,0.02199518,0.01542276,-0.08282437,0.99120681,0.12979207,0.01388289,0.02168750
1761623513492,0.36512629,0.25672458,0.18961625,0.01223667,0.02868526,-0.05564720,0.99120246,0.12985876,0.01403923,0.02138423
1761623513503,-0.23697635,-0.20835013,-0.48867843,0.02420914,0.01647111,-0.04919810,0.99118928,0.12999433,0.01413146,0.02110872
1761623513514,-0.27599139,0.23785165,-0.15005618,0.01617902,0.04651088,-0.07703064,0.99118292,0.13008251,0.01438495,0.02068890
1761623513525,-0.15939577,0.14276356,-0.10874358,0.03626927,0.04118333,-0.07426182,0.99116108,0.13028925,0.01461969,0.02026561
1761623513536,-0.24115863,-0.35496994,-0.35985445,0.03751843,0.07056319,-0.09179418,0.99113853,0.13049372,0.01500426,0.01976533
1761623513547,-1.13295042,0.32670253,-0.00265926,0.01174325,0.06346458,-0.08752601,0.99113400,0.13056066,0.01536601,0.01926643
1761623513558,-0.12535974,0.50200378,0.18041475,0.01305494,0.08354445,-0.04802729,0.99112262,0.13063115,0.01581715,0.01900708
1761623513570,-0.05075169,-0.91924680,-0.79476797,0.07508966,0.07693761,-0.01899150,0.99106001,0.13106667,0.01626339,0.01889693
1761623513581,0.92893689,0.11931478,0.80829357,0.02433944,0.09690130,-0.00301886,0.99103396,0.13119932,0.01679150,0.01888048
1761623513592,-0.02346104,-0.12732571,-0.36801664,0.02016733,0.07499952,0.01862908,0.99100915,0.13131529,0.01722275,0.01898760
1761623513603,-0.05622643,-0.10609082,-0.28653664,0.02116998,0.09190021,0.00321302,0.99098402,0.13143384,0.01773739,0.01900559
1761623513615,-0.39007803,0.57624497,-0.21490187,0.03277065,0.08522795,-0.00865683,0.99095107,0.13162227,0.01822745,0.01895581
1761623513651,0.45125681,-0.11220275,-0.36630360,0.02559899,0.02103936,0.00808770,0.99088012,0.13208177,0.01860511,0.01910099
1761623513660,-5.86460941,1.09568084,3.84000503,0.28280739,0.18295127,0.11513355,0.99067493,0.13341097,0.01946498,0.01964212
1761623513671,3.92270102,-1.07469543,-2.28688939,0.06299335,0.04119841,0.02294986,0.99062073,0.13376058,0.01969363,0.01976949
1761623513681,-1.09781314,-0.77286543,-0.20324039,0.02487771,0.03980153,0.05148243,0.99059556,0.13388124,0.01988667,0.02001918
1761623513692,0.64369378,0.40148540,-0.03912010,-0.04654773,0.01027472,0.05337733,0.99062327,0.13362290,0.01994369,0.02031542
1761623513704,-0.44043911,0.67549089,0.13062600,-0.03881171,0.00807251,0.03040770,0.99064925,0.13339585,0.01999092,0.02049331
1761623513715,1.09817674,-0.65364675,-0.53827327,-0.00594844,-0.02740076,0.04147579,0.99065194,0.13336313,0.01984021,0.02072142
1761623513726,0.18201584,0.15002760,0.16945453,0.01031290,-0.03201156,0.00813150,0.99064688,0.13341985,0.01966415,0.02076615
1761623513737,0.09726990,0.09598431,-0.17653954,-0.00999645,-0.02749647,-0.01670180,0.99065986,0.13336187,0.01950467,0.02066928
1761623513748,-0.00328747,0.30259789,0.06164478,-0.01153298,-0.03792516,0.01425325,0.99067025,0.13330190,0.01930746,0.02074339
1761623513759,0.11785243,0.08747700,-0.11525935,-0.02607752,-0.04255819,0.01535769,0.99069310,0.13315326,0.01906488,0.02083093
1761623513770,0.04216095,-0.10969582,-0.14517046,0.02402269,-0.01390491,0.03588817,0.99067281,0.13328418,0.01898909,0.02102652
1761623513781,-0.03974246,-0.11847660,-0.12505722,-0.04819948,-0.08348690,0.08329914,0.99070731,0.13301909,0.01852992,0.02148467
1761623513793,-0.07345210,-0.28042835,-0.11451732,0.01321531,-0.04707807,-0.02282681,0.99070489,0.13309772,0.01824980,0.02134885
1761623513804,-0.38356055,-0.24629203,0.22871843,-0.04830293,-0.03077550,-0.02962549,0.99074599,0.13283930,0.01808515,0.02119035
1761623513815,-0.47209328,-0.08198568,0.17341381,-0.07817306,0.01026171,0.02258572,0.99080034,0.13240544,0.01814210,0.02131570
1761623513826,0.00442561,0.03207741,-0.08994873,-0.03974362,-0.02208821,0.09974906,0.99082084,0.13217492,0.01801399,0.02189425
1761623513837,-0.15785039,0.10653536,0.17522486,-0.00667292,-0.03590497,0.05905646,0.99082205,0.13213889,0.01782011,0.02221315
1761623513849,0.29184689,0.01524813,-0.14686620,-0.01477806,0.00382430,0.01860937,0.99083050,0.13205465,0.01784190,0.02231923
1761623513859,-0.02579339,0.00563867,-0.19000463,-0.06605487,-0.00893476,0.13496803,0.99086158,0.13170456,0.01779455,0.02303456
1761623513870,0.17511011,-0.07628174,-0.03388709,-0.01658523,-0.02469763,0.12015398,0.99086056,0.13161417,0.01765995,0.02368939
1761623513882,0.08971151,0.02142665,-0.14644488,-0.02943216,-0.02148848,0.02932386,0.99088135,0.13144347,0.01753532,0.02385947
1761623513893,0.03094709,-0.05744758,0.05467903,-0.07757217,0.00425780,0.06231949,0.99093043,0.13100518,0.01755937,0.02421158
1761623513904,-0.05978454,-0.00130038,-0.07325308,-0.05780114,0.00935558,0.08792484,0.99095850,0.13069884,0.01760896,0.02467758
1761623513915,0.07985392,0.01667471,-0.03062272,-0.04836185,-0.00602211,0.09368145,0.99098240,0.13041834,0.01757403,0.02522093
1761623513926,-0.00088443,0.08364061,-0.02978943,-0.04572882,0.00335618,0.03522279,0.99100994,0.13016912,0.01759232,0.02541290
1761623513938,0.11998719,0.03552414,-0.12438631,-0.04725576,-0.01564766,0.04681480,0.99104051,0.12989503,0.01750156,0.02568442
1761623513948,-0.40539251,-0.34093815,-0.26115452,-0.06442487,-0.01257626,0.07445558,0.99107507,0.12956325,0.01743680,0.02606787
1761623513959,0.01859140,-0.02153420,-0.02620428,-0.08589556,-0.00415582,0.04432975,0.99113017,0.12909512,0.01741415,0.02630947
1761623513971,0.20092261,-0.04259271,-0.05810062,-0.03889063,-0.00520430,0.03810083,0.99115519,0.12885983,0.01738266,0.02653998
1761623513982,0.30519581,0.03722174,0.07982114,-0.04568962,0.00339243,0.02498657,0.99118304,0.12861539,0.01740081,0.02667365
1761623513993,0.22944993,0.15108384,0.10883875,-0.05897803,-0.00099352,0.01471015,0.99122444,0.12827921,0.01739515,0.02675750
1761623514004,0.00370319,-0.05449173,-0.05344216,-0.04960773,0.01312134,0.01372531,0.99125611,0.12800885,0.01746666,0.02683230
1761623514015,0.36015949,0.44655281,0.02720208,-0.04370624,0.02250333,0.01135302,0.99128374,0.12776410,0.01759268,0.02689588
1761623514026,0.05133937,0.05205550,-0.12226667,-0.00588841,0.03568461,0.02044155,0.99128137,0.12773200,0.01778716,0.02700729
1761623514038,0.22113626,0.17594760,0.06433738,-0.02072944,0.02016522,0.01284195,0.99129340,0.12760452,0.01791117,0.02708627
1761623514049,-0.27488102,-0.55501469,-0.01637195,-0.06035444,0.00879314,-0.00325779,0.99133569,0.12727257,0.01795954,0.02706835
1761623514060,0.21206446,-0.03962354,0.06896405,-0.09122608,0.00436722,0.01796885,0.99139684,0.12677082,0.01798356,0.02716718
1761623514071,0.08371927,0.08523776,-0.12415143,-0.02712793,0.01276729,-0.00981846,0.99141541,0.12662705,0.01805122,0.02711514
1761623514081,-0.39986980,0.16678571,0.15571605,0.03319919,0.02104949,-0.00792925,0.99139247,0.12679968,0.01816068,0.02707391
1761623514093,0.05908938,0.14034665,-0.06971303,0.00317471,0.00676803,-0.01034032,0.99139106,0.12681778,0.01819926,0.02701497
1761623514104,0.03210469,0.11597818,-0.04036018,-0.00019780,0.01307786,-0.02998088,0.99139447,0.12681665,0.01827380,0.02684408
1761623514116,0.49005512,0.03534382,-0.18345535,-0.00509709,0.01642144,-0.00275657,0.99139688,0.12678760,0.01836740,0.02682836
1761623514126,0.06055513,0.10192371,-0.02947743,0.02554940,0.01698724,-0.03282235,0.99138231,0.12692556,0.01845913,0.02665112
1761623514138,-0.01055921,-0.15200427,-0.03963225,0.03068579,0.01544000,-0.03233950,0.99136353,0.12709740,0.01854560,0.02647002
1761623514149,0.15047724,-0.04530241,0.00668310,-0.01814632,0.02612356,-0.04361318,0.99137985,0.12699851,0.01868797,0.02623233
1761623514159,0.07951634,0.04038527,0.04615459,-0.04352738,0.00983073,-0.01377802,0.99141118,0.12676128,0.01874155,0.02615724
1761623514171,0.09862063,-0.10977028,-0.00896406,-0.02873288,0.00129265,0.00872378,0.99143117,0.12659320,0.01874911,0.02620827
1761623514182,0.02979936,-0.11301187,-0.05675984,-0.03485348,0.00739368,-0.00988044,0.99145561,0.12640673,0.01878867,0.02615541
1761623514194,-0.04162893,0.02878229,0.06521086,-0.04860130,0.00627984,-0.01065166,0.99149308,0.12611998,0.01882572,0.02609257
1761623514204,0.06803942,-0.22967512,-0.20857388,-0.01333080,0.00303952,-0.03085436,0.99150592,0.12605000,0.01884168,0.02593058
1761623514216,-0.03466659,0.12247105,0.05109122,-0.03568826,-0.01039642,-0.03482723,0.99154031,0.12583230,0.01877826,0.02571814
1761623514228,0.16608444,-0.01910127,-0.00121995,-0.00429678,-0.01335944,-0.02590813,0.99154882,0.12580738,0.01870077,0.02556787
1761623514238,0.03524278,-0.07811963,0.01108163,0.00254718,-0.01546712,-0.06468519,0.99155719,0.12582049,0.01862112,0.02523474
1761623514278,-0.16307258,0.08521750,0.12136956,-0.00700591,-0.00020292,-0.00744147,0.99157854,0.12568213,0.01861711,0.02508777
1761623514296,0.50085262,0.03537870,-0.18036909,-0.00580617,-0.01001383,0.00629750,0.99158538,0.12563016,0.01852749,0.02514414
1761623514306,0.36411153,-0.45641880,-0.26986264,-0.08209368,-0.00135270,-0.00984038,0.99163920,0.12521559,0.01852066,0.02509444
1761623514316,-0.11110643,0.21978056,0.39432345,-0.01398021,0.00278790,0.01010961,0.99164700,0.12514079,0.01853557,0.02514853
1761623514338,-0.36922654,0.07565877,0.06774992,0.00411615,-0.00505068,-0.01431325,0.99164631,0.12518525,0.01848102,0.02499394
1761623514349,0.25325132,0.02759674,-0.07615237,-0.00193684,0.01180489,-0.05468732,0.99165398,0.12517460,0.01854595,0.02469316
1761623514360,-0.14988897,-0.03110451,-0.13054894,0.00003117,-0.00964271,-0.00288296,0.99165538,0.12517477,0.01849147,0.02467688
1761623514371,0.10865762,0.07964269,0.12031655,0.00502374,-0.00235251,-0.01213122,0.99165379,0.12520240,0.01847853,0.02461015
1761623514383,-0.03668771,0.01489649,0.04905557,-0.00289554,-0.02060879,-0.00805798,0.99165915,0.12518604,0.01836209,0.02456463
1761623514393,-0.01462642,-0.03470141,0.06334492,-0.00565570,-0.01017088,-0.00642672,0.99166493,0.12515522,0.01830666,0.02452960
1761623514405,-0.00549658,-0.01959535,-0.07043845,-0.00556442,-0.02040134,-0.00234651,0.99167135,0.12512378,0.01819139,0.02451634
1761623514407,8.78391952,-2.08080083,-4.36009149,0.00042760,-0.09592727,-0.02807769,0.99167422,0.12512429,0.01807628,0.02448265
1761623514417,-2.17565164,0.40185320,1.07490266,-0.01545769,-0.04351435,0.00861190,0.99168672,0.12504778,0.01786088,0.02452528
1761623514427,-0.00369368,-0.06906538,0.08780547,0.00784404,-0.01727789,0.01401009,0.99168159,0.12508700,0.01777449,0.02459533
1761623514438,-0.25197134,0.10397103,0.03933283,-0.01959468,-0.02651506,0.00409893,0.99169779,0.12497531,0.01762336,0.02461869
1761623514450,0.05149548,0.02012795,0.01196681,0.01190593,-0.02533047,0.01463189,0.99168993,0.12504139,0.01748277,0.02469990
1761623514460,0.06378695,-0.02623089,-0.06264752,0.04363174,-0.02997356,0.02912879,0.99165910,0.12527700,0.01732092,0.02485720
1761623514472,-0.00196871,0.10470355,0.12757237,0.02103853,-0.01911171,0.01082338,0.99164404,0.12539902,0.01721007,0.02491997
1761623514483,-0.09594853,0.23812978,-0.21904403,0.02211385,-0.00461565,0.00233987,0.99162890,0.12551954,0.01718491,0.02493272
1761623514494,-0.03083301,0.07850853,-0.14527409,0.02797323,-0.00989314,0.02297372,0.99160777,0.12566920,0.01713198,0.02505563
1761623514505,-0.01058940,-0.06487456,0.02518653,0.04154729,0.00641131,0.02094511,0.99157407,0.12590602,0.01716853,0.02517502
1761623514516,-0.05274341,-0.17660444,0.31554321,0.00062854,-0.00615768,-0.00846859,0.99157545,0.12590960,0.01713343,0.02512675
1761623514528,0.12861505,-0.15788559,0.13360519,0.00257413,0.00175523,0.01530647,0.99157108,0.12592466,0.01714370,0.02521629
1761623514539,0.08907947,0.06530467,0.09304410,-0.02131398,-0.00665174,0.00875953,0.99158472,0.12581276,0.01710878,0.02526228
1761623514549,0.11592739,-0.04132370,-0.01731888,-0.00693004,-0.00913885,-0.01172263,0.99159179,0.12577603,0.01706034,0.02520015
1761623514561,-0.03666953,0.08938852,-0.07414977,0.00774581,-0.00434192,-0.01277330,0.99158841,0.12582096,0.01703516,0.02512606
1761623514572,0.03051262,0.09113777,0.02635683,0.02104899,0.00312245,-0.01156866,0.99157490,0.12593778,0.01705249,0.02506186
1761623514583,-0.11634540,0.04604835,-0.04257129,0.02111936,0.00113571,-0.00583025,0.99156072,0.12605499,0.01705879,0.02502950
1761623514595,-0.06714430,-0.01621417,0.02614659,0.00691752,-0.00408993,0.00623821,0.99155511,0.12609511,0.01703507,0.02506568
1761623514605,0.05632238,-0.16875704,-0.04793203,0.01169242,0.00131842,0.01288891,0.99154529,0.12615767,0.01704212,0.02513464
1761623514616,-0.26313149,0.12057328,0.04995518,-0.01667588,0.00072331,0.01774805,0.99155424,0.12606762,0.01704603,0.02523048
1761623514628,0.06580285,-0.07257680,-0.02452866,-0.00178075,0.00154612,0.02212913,0.99155211,0.12605720,0.01705507,0.02535993
1761623514639,0.24459705,-0.13135262,-0.04949913,-0.00433204,-0.00915374,0.04127758,0.99155019,0.12603359,0.01700519,0.02558489
1761623514650,0.19358575,-0.10833555,0.02925667,-0.00317833,-0.02419521,-0.00439192,0.99155535,0.12601595,0.01687090,0.02556052
1761623514661,0.04583285,0.07786006,0.01333770,-0.00107172,-0.01900027,-0.00692673,0.99155898,0.12600984,0.01676260,0.02552104
1761623514672,0.02633602,0.07454464,0.01043847,0.00884629,-0.01577182,0.00318180,0.99155386,0.12605805,0.01667664,0.02553838
1761623514683,0.36877013,0.45273363,0.10504590,-0.00363446,-0.00655262,0.00117489,0.99155684,0.12603807,0.01664060,0.02554484
1761623514694,0.03232208,0.00182676,-0.11643776,0.04178625,0.00374657,0.00457644,0.99152632,0.12626998,0.01666140,0.02557024
1761623514706,0.02246581,-0.01852095,-0.00815314,0.02102291,0.00765928,0.00428583,0.99150955,0.12639086,0.01670544,0.02559488
1761623514718,-0.33991230,-0.13711032,-0.02636557,0.00201616,0.01527070,-0.01388256,0.99150858,0.12640326,0.01679935,0.02550951
1761623514728,0.21009219,-0.02380882,-0.17758980,0.03409652,0.00028044,-0.02359381,0.99148965,0.12657545,0.01680077,0.02539036
1761623514739,-0.01768728,0.04556096,0.08408347,0.02741806,0.01504339,-0.06427245,0.99147797,0.12672625,0.01688351,0.02503686
1761623514750,-0.06231395,-0.01881118,-0.03349683,0.02226005,-0.01057435,-0.05081694,0.99147032,0.12684868,0.01682535,0.02475736
1761623514762,-0.11505674,-0.10322318,-0.02590106,0.02148103,-0.01724935,-0.06384437,0.99146524,0.12697327,0.01672530,0.02438707
1761623514773,0.03128583,-0.04906818,0.01138295,-0.02720464,-0.00739723,-0.06045903,0.99149295,0.12682500,0.01668499,0.02405757
1761623514783,0.06677225,0.05375239,0.17736500,-0.01138232,0.01399147,0.00674113,0.99149854,0.12676468,0.01675914,0.02409329
1761623514795,-0.08949552,-0.06490069,-0.06794240,0.02181349,0.00359693,0.01945013,0.99147826,0.12689774,0.01678108,0.02421194
1761623514806,0.14307907,-0.07723971,0.10846313,0.00492150,0.00705746,-0.00284615,0.99147469,0.12692358,0.01681814,0.02419700
1761623514817,0.04507293,0.27638693,0.50658084,-0.02360993,-0.00316424,0.01638110,0.99148940,0.12679372,0.01680073,0.02428709
1761623514828,-0.03093772,-0.02013107,-0.00778973,-0.00762425,-0.00394422,-0.00886818,0.99149626,0.12675217,0.01677924,0.02423876
1761623514839,-0.08958596,-0.00204573,-0.07047042,0.01102319,-0.00721247,-0.00851557,0.99149010,0.12681500,0.01673813,0.02419022
1761623514850,-0.24895228,-0.12522454,-0.47613868,0.01323546,-0.01316232,-0.02427944,0.99148530,0.12688713,0.01666639,0.02405790
1761623514861,0.20795575,0.06665701,0.02936078,0.04303321,0.01049796,0.00740624,0.99145214,0.12713027,0.01672570,0.02409975
1761623514873,0.04341164,0.12334973,0.01867167,0.06569434,-0.00807924,0.02565821,0.99140171,0.12750145,0.01668006,0.02424471
1761623514884,-0.27965573,-0.08551236,-0.01969428,0.05055444,-0.00838468,-0.02531340,0.99137037,0.12777697,0.01663436,0.02410676
1761623514896,-0.03688043,-0.13067207,-0.03262833,0.02975698,-0.00440499,-0.01462531,0.99134855,0.12796741,0.01660617,0.02401315
1761623514931,-0.11620625,-0.03499098,-0.02431626,0.00391910,-0.00406167,-0.00598011,0.99134341,0.12803600,0.01653509,0.02390850
1761623514940,3.00766930,-0.40009486,1.42554968,-0.06145672,-0.01449853,-0.01911982,0.99138225,0.12775944,0.01646985,0.02382246
1761623514951,-1.35017570,0.75106500,-0.61936396,0.00608736,-0.00824657,-0.04439679,0.99138444,0.12779170,0.01642614,0.02358716
1761623514962,-0.36735622,0.07264711,-0.16680260,0.00792363,-0.02744006,-0.06198309,0.99138927,0.12783449,0.01627796,0.02325245
1761623514973,-0.13339580,-0.04868412,-0.04024555,0.02187384,-0.01969300,-0.02927483,0.99137884,0.12796027,0.01616473,0.02308412
1761623514984,-0.07091770,0.01194125,-0.04794436,0.02370039,-0.01727090,-0.02199076,0.99136726,0.12808114,0.01607665,0.02297197
1761623514996,-0.11028828,-0.09111580,-0.06561619,0.03959956,-0.01881709,-0.00100055,0.99133826,0.12832071,0.01596280,0.02296591
1761623515006,0.02723638,0.01011473,0.10972590,0.01997390,-0.02210283,-0.01406916,0.99132816,0.12842658,0.01584566,0.02289135
1761623515017,-0.13587017,-0.28179333,0.04977573,0.01841541,-0.01888999,0.00018112,0.99131645,0.12852970,0.01573987,0.02289236
1761623515029,-0.04352040,-0.12708768,0.06831275,-0.01262320,-0.01699250,0.01693744,0.99132515,0.12845712,0.01564217,0.02298975
1761623515039,-0.05738028,-0.04986001,-0.00432785,-0.00423458,-0.02998627,-0.00155123,0.99133080,0.12843446,0.01548174,0.02298145
1761623515051,0.00937946,0.10102961,-0.04495161,-0.00080219,-0.01572375,0.01489564,0.99133082,0.12842993,0.01539290,0.02306561
1761623515062,0.01727130,0.08886549,-0.03547618,0.00969873,-0.01788158,0.00811096,0.99132421,0.12848473,0.01529187,0.02311144
1761623515073,-0.15172813,0.01164911,-0.09533184,0.02122496,-0.01721346,-0.00265934,0.99131039,0.12860571,0.01519375,0.02309628
1761623515084,0.09462597,-0.02553028,0.07734434,0.01287465,-0.00401765,0.00945426,0.99130087,0.12867266,0.01517286,0.02314544
1761623515095,-0.06337550,0.01767747,-0.00759138,0.00549297,-0.00701432,0.00888392,0.99129636,0.12870315,0.01513393,0.02319475
1761623515108,-0.02449015,-0.02815610,-0.07830455,0.00414781,-0.00283928,0.00055288,0.99129313,0.12872949,0.01511590,0.02319826
1761623515118,0.02741344,-0.00877878,-0.04856605,0.01465555,-0.01597121,-0.00569359,0.99128549,0.12880276,0.01503605,0.02316979
1761623515129,0.06999946,0.01996562,0.05476343,-0.00519657,-0.00126169,-0.00548521,0.99128997,0.12877444,0.01502917,0.02313990
1761623515140,-0.10401739,0.01806417,-0.03247058,-0.00711209,-0.00409529,-0.01099812,0.99129730,0.12873248,0.01500501,0.02307501
1761623515151,-0.16465570,0.30002544,-0.01341269,-0.01529485,-0.01291652,-0.01108456,0.99130998,0.12865295,0.01493784,0.02301737
1761623515162,0.03297107,-0.03950335,-0.04005220,-0.01036637,-0.00797793,-0.00808889,0.99131907,0.12859593,0.01489396,0.02297288
1761623515173,0.02182301,0.02221286,0.06068284,-0.02095223,-0.01259017,-0.00879803,0.99133648,0.12847860,0.01482346,0.02292361
1761623515184,0.22003164,-0.27679934,0.03002915,-0.01646626,-0.01366377,-0.01094865,0.99135060,0.12838886,0.01474899,0.02286394
1761623515195,-0.10177684,0.08951292,-0.01217295,-0.00503488,-0.01432969,-0.01633127,0.99135773,0.12835991,0.01466660,0.02277004
1761623515207,0.05327885,0.01708212,0.00993411,-0.00414104,-0.01226998,0.00404672,0.99136148,0.12833506,0.01459298,0.02279432
1761623515219,0.04304780,-0.24770593,-0.02152390,0.00545461,-0.01104043,-0.00740294,0.99135923,0.12836779,0.01452673,0.02274990
1761623515229,0.06787699,-0.16320998,0.08799910,0.01450679,-0.01864301,-0.00390403,0.99135172,0.12843960,0.01443445,0.02273058
1761623515240,0.00672323,-0.05545845,-0.01177946,0.00842447,-0.01847027,-0.00173488,0.99134753,0.12848467,0.01433563,0.02272129
1761623515252,-0.04141465,0.22760569,-0.08484953,0.01055978,-0.01346138,0.00270239,0.99134036,0.12854592,0.01425756,0.02273697
1761623515262,0.00272871,0.09870722,0.00868880,0.01835113,-0.02498950,-0.00499799,0.99133015,0.12864409,0.01412386,0.02271023
1761623515274,0.04405511,0.11232668,-0.01434403,0.02984117,-0.01584117,-0.00852529,0.99131063,0.12881270,0.01403436,0.02266206
1761623515285,-0.03026223,0.02524986,-0.11499821,0.03049084,-0.03521306,0.00666039,0.99129071,0.12898040,0.01384069,0.02269869
1761623515297,-0.05968200,0.05023964,0.04966714,0.00693951,-0.01735418,-0.00651749,0.99128760,0.12902238,0.01373570,0.02265926
1761623515307,0.07221617,-0.06332090,-0.02514774,0.00326000,-0.01410123,-0.00327408,0.99128681,0.12903917,0.01366308,0.02264240
1761623515318,-0.03628235,-0.07427255,-0.08050220,0.00878204,-0.00456808,0.00575921,0.99128008,0.12908791,0.01363772,0.02267436
1761623515329,-0.06966211,0.06225447,-0.10062305,0.01368847,-0.00799581,-0.00713611,0.99127170,0.12916388,0.01359335,0.02263476
1761623515341,0.06259812,0.08740928,-0.01068679,0.01872361,0.01800190,-0.00380596,0.99125674,0.12927154,0.01369686,0.02261287
1761623515351,-0.13253475,0.04120021,-0.21562114,0.03340996,-0.00176044,-0.00342122,0.99123375,0.12945196,0.01368735,0.02259440
1761623515363,0.03809236,-0.10360458,-0.07567436,0.02103901,0.01351605,-0.00071928,0.99121740,0.12956977,0.01376304,0.02259037
1761623515373,-0.08108734,-0.05122983,-0.23116946,0.03744995,0.02278617,-0.02145989,0.99119210,0.12977013,0.01388495,0.02247556
1761623515385,-0.00052936,0.00144584,-0.06590676,0.03694552,-0.00170959,-0.00775658,0.99116564,0.12998072,0.01387520,0.02243135
1761623515396,0.08465849,0.00417176,0.03704616,0.02950917,0.01224950,-0.03273008,0.99114712,0.13014597,0.01394380,0.02224806
1761623515407,0.01695663,0.07061711,0.14672267,-0.01907843,-0.00635867,-0.02967699,0.99116553,0.13003818,0.01390787,0.02208039
1761623515418,0.14949187,-0.10320048,-0.08737230,0.00388833,0.01672899,-0.01570084,0.99116336,0.13005937,0.01399905,0.02199482
1761623515429,0.02033809,0.11367166,0.08043808,0.00833735,-0.00172257,0.00721062,0.99115654,0.13010564,0.01398949,0.02203483
1761623515441,0.08340935,0.17317058,0.24092380,-0.01263972,0.00539052,0.00976120,0.99116439,0.13003296,0.01402048,0.02209096
1761623515451,0.11483996,-0.06352976,-0.15700465,0.00790570,0.00717543,0.01553867,0.99115666,0.13007407,0.01405779,0.02217176
1761623515463,-0.06403782,-0.14244895,-0.05126977,-0.00374469,-0.00183477,0.00670945,0.99115883,0.13005198,0.01404697,0.02221135
1761623515474,-0.04763286,-0.17494762,-0.35665198,-0.00967131,-0.02665760,0.00152965,0.99116728,0.13000121,0.01390702,0.02221938
1761623515485,-0.00817693,0.03172449,0.07674722,-0.00365612,-0.02298272,-0.01500668,0.99117381,0.12998018,0.01377487,0.02213309
1761623515498,-0.00174149,-0.15217532,0.04710322,0.00246936,-0.01819260,-0.00688862,0.99117433,0.12999562,0.01366116,0.02209004
1761623515546,-0.09639621,0.01942444,0.10312129,-0.00436689,-0.00552078,-0.00094234,0.99119055,0.12988972,0.01352728,0.02206718
1761623515565,0.72836463,-0.43045625,-0.95478985,-0.01012738,-0.04479819,-0.01233521,0.99121137,0.12979402,0.01310394,0.02195062
1761623515609,-0.28568074,0.15781067,0.34644562,-0.02255606,-0.00475143,0.00049045,0.99127751,0.12929665,0.01299917,0.02196143
1761623515629,0.80131829,-0.21525108,-0.96666363,-0.03118067,-0.05220497,-0.03238135,0.99133331,0.12897705,0.01246407,0.02162952
1761623515652,-0.49059598,0.10856840,0.63080737,-0.04474656,-0.01941533,0.01432620,0.99139672,0.12848260,0.01224953,0.02178783
1761623515674,-0.17882086,0.03262903,0.06801725,-0.01761357,-0.00605499,0.02245677,0.99141782,0.12828269,0.01218081,0.02204271
1761623515696,-0.00883943,0.07872968,0.22449210,-0.00280637,-0.01238483,0.02056932,0.99141843,0.12825168,0.01204395,0.02227000
1761623515708,0.01365550,0.09112780,-0.21006955,-0.00658200,-0.00593451,0.01676583,0.99142157,0.12821383,0.01200983,0.02236641
1761623515720,-0.06061117,0.02782463,-0.12267406,-0.00687847,-0.00310537,0.00482056,0.99142639,0.12817325,0.01199151,0.02239485
1761623515731,-0.02141191,0.05215239,0.12046589,-0.00956483,0.00720443,-0.00267209,0.99143335,0.12811825,0.01203293,0.02237948
1761623515741,0.11589249,-0.03952136,-0.03200959,-0.00061356,0.00583360,0.00671257,0.99143262,0.12811515,0.01206239,0.02241338
1761623515753,-0.01613898,0.10247900,0.20420524,-0.00342526,0.01513859,-0.00281329,0.99143444,0.12809580,0.01214793,0.02239749
1761623515765,-0.00848056,0.00644370,-0.09320469,0.00852004,0.00744565,-0.00149265,0.99142737,0.12814777,0.01219335,0.02238838
1761623515775,0.21233959,0.10823833,-0.20344229,0.03022937,0.01541219,0.00099618,0.99140717,0.12829590,0.01226886,0.02239326
1761623515787,-0.20277196,-0.04272770,-0.03679930,0.03010905,0.00370763,-0.01105840,0.99138518,0.12847504,0.01229093,0.02232746
1761623515797,0.06393684,0.07318842,0.00917358,0.02316117,0.01142742,-0.00947179,0.99136920,0.12860127,0.01235320,0.02227584
1761623515808,0.01405991,0.04272181,0.03863076,0.02434657,0.00754714,-0.00295648,0.99135199,0.12873274,0.01239396,0.02225988
1761623515819,0.01890751,0.20727996,0.41494317,0.02204923,0.00690293,0.00609897,0.99133531,0.12885181,0.01243124,0.02229281
1761623515830,0.01257745,-0.02910317,0.02657256,0.00962688,0.00654205,-0.00566368,0.99132850,0.12890620,0.01246820,0.02226081
1761623515841,0.07033304,-0.18017341,-0.20724887,0.01191074,0.00252745,-0.01105852,0.99132137,0.12896992,0.01248172,0.02220165
1761623515852,-0.02741972,-0.22051130,-0.22573581,0.00490174,0.00480890,-0.01204248,0.99131892,0.12899786,0.01250913,0.02213301
1761623515864,-0.05793982,-0.05305972,-0.03472634,0.01140313,-0.01217981,-0.00714909,0.99131201,0.12906514,0.01243727,0.02209083
1761623515875,0.03776738,-0.00522328,-0.02456331,0.00816254,-0.00645303,-0.01188540,0.99130813,0.12910922,0.01240242,0.02202665
1761623515886,-0.05303715,-0.31657219,0.08493657,0.01188032,-0.00125047,-0.00233175,0.99130021,0.12917278,0.01239573,0.02201417
1761623515897,-0.02709137,0.08945416,-0.00188462,0.00741684,-0.00504155,-0.00251115,0.99129542,0.12921469,0.01236725,0.02199998
1761623515908,0.05321426,0.03308387,-0.15870921,0.01565934,-0.01418763,0.00102122,0.99128476,0.12930316,0.01228709,0.02200575
1761623515920,0.17387995,0.14324673,0.03547618,-0.00401232,0.00167333,-0.01191746,0.99128909,0.12928049,0.01229654,0.02193842
1761623515931,-0.05089263,-0.05653936,0.02095937,-0.01374370,-0.00754189,-0.01428124,0.99130163,0.12920215,0.01225355,0.02185702
1761623515942,-0.00127620,0.07201039,0.11714677,-0.04097737,0.00052627,-0.02442228,0.99133360,0.12897883,0.01225642,0.02172392
1761623515953,-0.09331255,0.14053321,-0.01605377,-0.01023144,-0.00373488,-0.01613294,0.99134303,0.12892306,0.01223607,0.02163599
1761623515964,0.00081519,0.13417651,0.08664561,-0.00806386,0.00050305,-0.00683034,0.99134970,0.12887791,0.01223888,0.02159774
1761623515975,0.01211670,-0.04315088,-0.07222502,0.00856358,-0.00191472,-0.00580979,0.99134431,0.12892586,0.01222816,0.02156521
1761623515986,0.09019568,-0.17843758,-0.13318817,0.00836477,0.00320239,-0.01966102,0.99134059,0.12897020,0.01224513,0.02146100
1761623515998,-0.09601720,-0.03579393,0.09013727,-0.00535693,-0.01401468,-0.00514628,0.99134638,0.12893859,0.01216245,0.02143064
1761623516009,0.03549398,-0.10634570,0.09577935,-0.01062785,-0.00575072,0.00744808,0.99135367,0.12887854,0.01212996,0.02147272
1761623516020,-0.13419086,-0.26510280,0.09518423,0.01937724,-0.00517123,-0.01246934,0.99134186,0.12898318,0.01210203,0.02140539
1761623516032,-0.06360572,0.03890764,-0.05945502,0.03178886,-0.01290358,-0.00429908,0.99131931,0.12916756,0.01202719,0.02138045
1761623516042,0.14355408,0.13854425,-0.13675388,0.01779186,-0.00603801,-0.00753955,0.99130826,0.12926185,0.01199519,0.02134049
1761623516053,0.15415056,0.34479298,-0.11457742,0.01460238,0.00282716,-0.01077021,0.99129870,0.12934363,0.01201102,0.02128018
1761623516064,-0.09395353,0.02898748,-0.22886116,0.07881533,-0.01414488,-0.01096030,0.99124527,0.12976923,0.01193464,0.02122099
1761623516076,0.02561783,0.10350182,0.09784486,0.02654917,-0.00318325,-0.01257906,0.99122688,0.12992321,0.01191618,0.02114804
1761623516087,-0.08493525,-0.05108948,0.00702627,-0.00072758,-0.00927789,-0.03507175,0.99123249,0.12991892,0.01186144,0.02094111
1761623516098,-0.05684812,-0.05126053,-0.10459326,-0.00632260,-0.03872489,-0.02082816,0.99124181,0.12988478,0.01165232,0.02082864
1761623516109,0.18194946,-0.08184361,0.08491597,-0.00732622,0.00840631,-0.00483480,0.99124692,0.12984595,0.01169688,0.02080302
1761623516119,-0.05695875,-0.11242001,-0.05677074,-0.00263116,-0.01871739,-0.00148782,0.99125013,0.12983174,0.01159580,0.02079498
1761623516131,0.02338567,-0.08060297,0.08430612,-0.01018459,-0.01001900,0.02018891,0.99125624,0.12977114,0.01153619,0.02091511
1761623516142,-0.03503753,-0.06163976,-0.06320330,-0.01537781,-0.02775837,0.01279753,0.99126748,0.12968733,0.01138491,0.02098485
1761623516154,0.08173182,-0.10147435,0.09961114,-0.01506872,-0.01469989,-0.00490481,0.99127993,0.12960370,0.01130332,0.02095763
1761623516165,-0.01297071,0.04409105,-0.01563334,-0.03652664,-0.02964534,-0.00014172,0.99130854,0.12939915,0.01113731,0.02095684
1761623516176,-0.10782916,-0.00184018,-0.04825531,-0.00312441,-0.04052727,0.00483431,0.99131285,0.12938134,0.01090630,0.02098439
1761623516186,0.15777399,0.16200290,-0.14195890,-0.01081280,-0.00113213,0.00790468,0.99131926,0.12932620,0.01090053,0.02102471
1761623516199,-0.22548405,0.02993157,0.10883305,-0.00900414,-0.01851170,0.01153221,0.99132639,0.12926947,0.01078390,0.02109736
1761623516210,0.06120680,0.04828013,-0.12309535,0.01877213,-0.01079991,0.02364854,0.99131122,0.12936990,0.01072612,0.02122388
1761623516220,-0.06065107,0.16252795,0.26030503,0.00252385,0.00442582,-0.00967768,0.99131030,0.12938341,0.01074980,0.02117210
1761623516231,-0.02977994,-0.13127393,-0.01620000,-0.00704852,-0.00882226,0.00676677,0.99131518,0.12934394,0.01070040,0.02121000
1761623516243,0.08838061,-0.11154488,-0.00570197,-0.03591679,-0.00263694,0.00292175,0.99134121,0.12914280,0.01068563,0.02122636
1761623516253,0.00321663,-0.09919858,-0.17490638,-0.05375239,-0.00587548,-0.01783815,0.99138101,0.12885523,0.01065420,0.02113093
1761623516265,0.04968497,0.01212432,-0.06852678,0.00176175,-0.00792663,0.01991151,0.99137779,0.12886518,0.01060941,0.02124343
1761623516276,-0.03566122,0.02782402,0.04901592,0.01061621,0.00388365,-0.00423897,0.99137047,0.12892357,0.01063077,0.02122011
1761623516287,-0.18437680,0.03789917,0.20900568,-0.02585024,-0.00578253,-0.02855957,0.99139344,0.12877622,0.01059781,0.02105732
1761623516324,-0.03552631,0.01667476,0.16188013,-0.00876838,-0.00016051,-0.00510249,0.99141616,0.12861664,0.01059489,0.02096446
1761623516333,1.21606143,0.46136512,-3.40022149,0.01481464,-0.04964882,-0.02331768,0.99141204,0.12868404,0.01036899,0.02085836
1761623516344,-0.55621610,-0.26357131,1.79792924,0.01134076,-0.01425755,0.01245636,0.99140284,0.12874982,0.01028629,0.02093061
1761623516355,-0.43246987,0.05068935,0.03920732,0.00799861,-0.02683607,0.00425577,0.99139828,0.12879261,0.01014272,0.02095338
1761623516366,-0.03834774,-0.03212746,0.15861173,-0.00303744,-0.02273209,0.00695393,0.99140100,0.12877530,0.01001315,0.02099301
1761623516376,0.13297339,-0.13092489,-0.04281683,-0.00803995,-0.02814560,0.00555886,0.99140717,0.12873430,0.00986961,0.02102136
1761623516387,0.22686678,-0.19028030,0.16290894,-0.01097144,-0.01162142,0.00836932,0.99141418,0.12867779,0.00980976,0.02106447
1761623516399,-0.21443727,0.06422785,0.12478718,-0.01952052,-0.01689916,0.00358373,0.99142992,0.12856067,0.00970836,0.02108597
1761623516410,0.15017593,0.06181199,-0.02556898,-0.02626692,0.00943012,0.01636943,0.99144607,0.12841752,0.00975975,0.02117518
1761623516421,-0.17208151,0.05380994,-0.06875501,0.00745209,0.00703160,-0.00550985,0.99144093,0.12845925,0.00979913,0.02114433
1761623516432,0.08577968,0.03937256,0.13816664,0.02677888,0.01249682,-0.00352900,0.99142139,0.12860787,0.00986849,0.02112474
1761623516443,0.02709082,0.13965681,0.11416846,0.01332463,0.01319219,-0.00537122,0.99141170,0.12868182,0.00994171,0.02109493
1761623516454,-0.05275779,-0.08920193,-0.03180021,0.02611432,0.01313629,-0.01437170,0.99139416,0.12882414,0.01001330,0.02101660
1761623516465,-0.07106902,-0.09182153,-0.20097981,0.01269606,0.01427552,-0.01154451,0.99138555,0.12889461,0.01009253,0.02095253
1761623516477,0.01822967,-0.07420698,0.08481210,-0.00521192,0.01161773,-0.00763395,0.99138980,0.12886386,0.01016107,0.02090749
1761623516488,0.14416045,-0.12073493,-0.00610614,-0.01310231,0.01837435,-0.00236720,0.99139816,0.12879376,0.01025937,0.02089483
1761623516499,-0.02410423,0.01220133,0.09316789,-0.02250865,0.00777626,0.00832580,0.99141336,0.12866546,0.01030370,0.02094228
1761623516510,-0.05201582,0.01970093,-0.04701327,-0.01252730,0.00470336,0.00119589,0.99142174,0.12859781,0.01032910,0.02094874
1761623516521,-0.06767464,0.03167153,-0.01783594,0.00272792,-0.00098677,0.00254518,0.99141947,0.12861336,0.01032347,0.02096325
1761623516532,0.06997401,0.02113845,0.01955428,-0.00053324,0.00584757,0.00482918,0.99141895,0.12861040,0.01035593,0.02099005
1761623516543,-0.07208094,-0.07471141,-0.07933741,0.00858497,0.00179631,0.00434875,0.99141215,0.12865805,0.01036590,0.02101419
1761623516554,-0.09353251,0.02081574,0.00426364,-0.00141886,-0.00315324,-0.00304586,0.99141373,0.12865010,0.01034824,0.02099713
1761623516566,0.05797008,0.01208700,-0.03611251,-0.00841497,0.00303225,0.00541257,0.99141902,0.12860298,0.01036522,0.02102744
1761623516577,0.01069120,-0.00579107,-0.03041053,0.00962787,0.00883409,0.00220124,0.99141125,0.12865690,0.01041469,0.02103977
1761623516588,0.02630470,-0.00930545,0.03959959,-0.00491775,0.00395627,0.00772964,0.99141365,0.12862960,0.01043665,0.02108267
1761623516599,0.11140574,-0.02658321,0.11017238,-0.02265182,0.01250918,0.00477370,0.99142906,0.12850049,0.01050795,0.02110988
1761623516610,-0.02191692,-0.07004826,-0.00523559,-0.02908088,0.00682761,-0.00598592,0.99144912,0.12834781,0.01054379,0.02107845
1761623516621,0.10054703,0.04887578,0.09111362,-0.03190054,0.00061876,0.00082471,0.99147189,0.12817076,0.01054723,0.02108303
1761623516632,-0.05219284,-0.02990365,-0.02176660,-0.02118584,-0.01056219,-0.01424523,0.99148907,0.12805530,0.01048966,0.02100539
1761623516643,0.13064882,0.09855071,0.16807203,-0.04938492,0.00978668,-0.00842611,0.99152581,0.12777381,0.01054545,0.02095736
1761623516654,-0.13880227,-0.06087399,-0.16478552,-0.00749172,-0.01474014,-0.00063311,0.99153211,0.12773223,0.01046364,0.02095385
1761623516666,0.04323291,0.05459046,0.04102721,-0.01231879,-0.00313317,-0.00608535,0.99154199,0.12766263,0.01044594,0.02091947
1761623516677,0.05457898,0.01727441,-0.01933712,0.00641648,-0.00136887,-0.00528440,0.99153820,0.12769728,0.01043855,0.02089093
1761623516688,0.09251999,-0.16608078,0.07573605,-0.00778101,-0.00848697,0.00939005,0.99154316,0.12765409,0.01039144,0.02094305
1761623516700,0.01124504,-0.10159549,0.04582199,-0.00182299,-0.00830331,0.00297307,0.99154470,0.12764325,0.01034204,0.02096074
1761623516711,-0.09302045,0.03340950,0.04040708,-0.02177045,-0.02148645,-0.00612853,0.99156346,0.12751371,0.01021420,0.02092427
1761623516722,0.08725238,0.26684043,0.13375678,-0.06082042,-0.00366311,0.00468372,0.99160531,0.12718528,0.01019441,0.02094956
1761623516732,0.04134796,0.05426230,-0.13333780,0.00101087,-0.01814385,0.02252195,0.99160321,0.12719034,0.01010369,0.02106217
1761623516743,-0.13874089,0.16371573,0.06206765,0.02106425,0.00001350,-0.02810335,0.99159161,0.12730619,0.01010377,0.02090760
1761623516755,-0.19017464,0.04277631,-0.02909037,0.02535939,-0.01378343,-0.01171093,0.99157496,0.12745327,0.01002383,0.02083968
1761623516766,0.06363109,0.12031188,0.09765451,0.00202044,-0.00264755,-0.01383367,0.99157528,0.12746459,0.01000900,0.02076221
1761623516777,0.07343085,-0.03015323,-0.05883958,0.02777009,0.00290425,-0.02072490,0.99155817,0.12761455,0.01002468,0.02065030
1761623516788,0.01424614,-0.09963387,-0.08391054,0.02439180,-0.00512101,-0.00968091,0.99154199,0.12775114,0.00999600,0.02059608
1761623516800,-0.04012739,-0.03128699,0.08935128,0.00948901,0.00605433,-0.02585430,0.99153765,0.12780618,0.01003112,0.02044613
1761623516811,0.02846079,-0.08667937,0.02348761,-0.00437328,0.00658876,-0.01221620,0.99154180,0.12778190,0.01006769,0.02037833
1761623516821,-0.02728747,-0.16006062,-0.01718482,-0.00671725,-0.00227828,-0.00413946,0.99154701,0.12774597,0.01005550,0.02035618
1761623516832,-0.05408771,-0.05880532,0.03267018,-0.01892915,-0.00352848,0.01049702,0.99155932,0.12764280,0.01003627,0.02041339
1761623516844,-0.03835615,-0.04945397,0.07461817,-0.01907415,0.01115999,0.00838740,0.99157157,0.12753503,0.01009932,0.02046078
1761623516856,-0.03941440,0.07944201,0.00138564,-0.01781267,0.00030062,0.01076909,0.99158385,0.12742905,0.01010111,0.02052486
1761623516867,0.05301870,-0.06795945,0.01049777,-0.01805931,0.00620573,0.00152684,0.99159609,0.12732972,0.01013524,0.02053326
1761623516878,-0.10861838,0.12404293,0.03546723,-0.01526849,-0.01176121,-0.00067623,0.99160760,0.12724575,0.01007056,0.02052954
1761623516888,-0.03793591,0.12194935,0.12233390,-0.00196318,-0.00236349,-0.00969485,0.99161015,0.12723524,0.01005791,0.02047767
1761623516899,-0.00878166,0.03816304,0.03676974,-0.00871826,-0.00215921,0.00791484,0.99161562,0.12718642,0.01004582,0.02052199
1761623516911,0.03689173,-0.20953837,-0.11852526,-0.00028826,0.01155509,0.01403748,0.99161351,0.12718478,0.01011168,0.02060201
1761623516923,0.01327815,-0.03373593,0.02744951,-0.02072972,0.02431107,0.01456831,0.99162613,0.12706040,0.01025755,0.02068942
1761623516933,-0.11167277,-0.10217156,-0.08077907,-0.02058505,0.01360843,0.01447162,0.99163732,0.12695542,0.01032695,0.02076322
1761623516944,0.08320271,-0.00362151,-0.05158455,-0.01763958,0.02282462,0.00542055,0.99164770,0.12685928,0.01045135,0.02079276
1761623516955,-0.06082342,-0.04129780,-0.11336958,-0.03302318,0.01309811,0.00249969,0.99167007,0.12667600,0.01052404,0.02080664
1761623516967,0.11181149,0.20213847,0.14626330,-0.04646733,0.02173205,-0.00421617,0.99170449,0.12639952,0.01065335,0.02078155
1761623516978,-0.03952918,0.10114381,-0.09797969,0.03983787,0.02033384,-0.00354908,0.99167652,0.12661265,0.01076213,0.02076256
1761623516988,-0.00312366,0.03771169,0.04581368,0.01475314,0.01238046,0.01087987,0.99166450,0.12669158,0.01082837,0.02082077
1761623517001,-0.02871113,-0.06199035,0.07931474,0.01036794,0.01537381,-0.01706969,0.99165723,0.12675794,0.01092676,0.02071152
1761623517012,0.05759722,-0.05516941,0.04025985,-0.02061449,-0.00623242,-0.01736788,0.99167393,0.12664559,0.01089279,0.02061687
1761623517052,-0.01995895,0.02743204,0.02005899,-0.00559085,0.00083505,-0.00421180,0.99168953,0.12653545,0.01090924,0.02053390
1761623517079,0.06519238,0.04874406,0.01514997,0.00042618,-0.00885730,-0.00205481,0.99169071,0.12654135,0.01078657,0.02050544
1761623517091,0.44852507,-0.06203421,-0.37394779,0.01732057,-0.03004398,0.01052882,0.99167818,0.12664441,0.01060781,0.02056808
1761623517112,-0.23869199,-0.04775718,0.13450422,-0.01227897,-0.00777905,0.00254972,0.99169464,0.12651794,0.01052769,0.02059435
1761623517123,-0.02954315,-0.02766930,0.01948348,-0.01167766,-0.00917172,0.00083359,0.99170390,0.12644904,0.01047357,0.02059926
1761623517145,-0.05766489,0.04139368,0.01671459,0.00138827,0.00172483,-0.00859059,0.99170371,0.12646375,0.01049186,0.02050820
1761623517155,0.05732032,-0.03216012,0.08515610,0.01327236,0.00029958,-0.00807664,0.99169545,0.12653542,0.01049347,0.02046459
1761623517167,0.00723629,0.00266902,0.02415496,-0.00362971,0.00078940,-0.00478000,0.99169861,0.12651473,0.01049797,0.02043734
1761623517179,-0.05389892,-0.02916556,-0.09762015,0.00238553,-0.00074618,-0.01242839,0.99169836,0.12652917,0.01049346,0.02036215
1761623517189,0.03919794,0.11481915,0.01791274,-0.02171478,0.00436940,-0.02276587,0.99171415,0.12642168,0.01051509,0.02024946
1761623517200,0.05307485,-0.12206171,-0.08127246,-0.00391217,-0.00505545,-0.00563788,0.99171785,0.12639997,0.01048703,0.02021817
1761623517212,-0.03269418,0.01466274,-0.00926288,-0.00536866,-0.01124680,-0.02086192,0.99172521,0.12636775,0.01041955,0.02009300
1761623517214,10.16176408,-5.21822338,-1.05595883,-0.03667323,-0.07185670,-0.08535465,0.99173165,0.12633475,0.01035488,0.02001618
1761623517224,-1.61031882,0.83851731,0.28424793,-0.01525186,-0.00850724,-0.01422908,0.99174324,0.12625849,0.01031234,0.01994503
1761623517234,-0.23619222,0.00181718,-0.08790803,-0.01985176,-0.04419188,-0.00747510,0.99175952,0.12615526,0.01008254,0.01990616
1761623517245,0.12265760,0.01426437,0.09267815,-0.00840707,0.00617117,-0.00043775,0.99176515,0.12610860,0.01011679,0.01990373
1761623517256,-0.06624646,-0.02058784,-0.06440556,-0.00549663,-0.02100912,0.00275974,0.99176973,0.12607919,0.01000439,0.01991850
1761623517268,-0.06944376,0.09994305,0.01726112,-0.00467131,-0.01930144,0.00154010,0.99177423,0.12605140,0.00988955,0.01992766
1761623517279,-0.17086359,0.05224015,0.08877192,0.00601933,-0.02124876,0.01646451,0.99176927,0.12608511,0.00977056,0.02001986
1761623517289,-0.13027326,0.05916579,0.13685187,0.00873340,-0.01184132,0.00072170,0.99176418,0.12612921,0.00971076,0.02002351
1761623517300,0.04900871,0.00337827,0.07330232,-0.01156033,-0.00735654,0.00276323,0.99177242,0.12606505,0.00966993,0.02003884
1761623517312,0.05747554,-0.06321196,-0.17347925,-0.00705364,-0.01251202,-0.01139932,0.99177997,0.12602238,0.00959423,0.01996988
1761623517322,0.04731397,0.01994051,-0.02698413,-0.01079789,-0.00788148,-0.01066854,0.99178837,0.12596785,0.00955443,0.01991600
1761623517334,0.02259149,0.05142804,0.02519784,-0.00685235,-0.00143960,-0.00706449,0.99179411,0.12592947,0.00954637,0.01987644
1761623517345,-0.02407901,-0.02424001,0.09133206,0.00343991,0.00277692,0.00056700,0.99179131,0.12594977,0.00956275,0.01987979
1761623517356,-0.09878852,0.03580504,0.02319634,0.00762784,-0.00348587,-0.00752027,0.99178703,0.12599134,0.00954376,0.01983880
1761623517368,0.01950370,-0.17291369,-0.05160748,0.02153782,-0.00688141,0.00426791,0.99177173,0.12611088,0.00950556,0.01986249
1761623517379,-0.01851288,0.06865708,0.01874220,0.00320610,-0.01032094,-0.00246669,0.99177025,0.12612915,0.00944673,0.01984843
1761623517389,0.03940694,0.00246475,-0.03341276,0.00403628,-0.01234944,0.00197132,0.99176799,0.12615014,0.00938252,0.01985868
1761623517402,0.01811506,-0.00285610,-0.03220454,0.01247345,-0.01934029,0.00891301,0.99175817,0.12622748,0.00926261,0.01991394
1761623517412,0.09715869,-0.02700729,0.17947381,0.00635204,-0.01048677,0.00412989,0.99175404,0.12626051,0.00920808,0.01993541
1761623517423,-0.10140827,-0.06428262,-0.02872565,0.00209645,-0.01300623,-0.01267328,0.99175465,0.12627235,0.00913459,0.01986381
1761623517435,0.01190455,-0.05423862,0.00669761,-0.01168295,-0.01124907,-0.00005547,0.99176404,0.12620342,0.00906822,0.01986348
1761623517446,0.00122100,0.09688017,0.05333011,-0.01842059,-0.00932670,0.01467269,0.99177524,0.12610671,0.00901926,0.01994051
1761623517457,-0.11569481,-0.05010706,-0.17533090,0.03503462,-0.01067124,0.00200924,0.99175015,0.12630641,0.00895843,0.01995197
1761623517468,0.00566278,0.03361617,0.05025257,0.02469301,-0.00682398,0.00677218,0.99173291,0.12643852,0.00892192,0.01998820
1761623517479,-0.01255411,0.01483363,0.17226714,0.00499970,0.00142757,0.00989428,0.99172815,0.12646652,0.00892992,0.02004361
1761623517490,-0.11241423,0.18037537,0.07191783,-0.01382890,-0.00983047,0.00522788,0.99173740,0.12639322,0.00887781,0.02007131
1761623517501,0.01373495,0.14681633,-0.10227693,0.01715385,0.00769797,-0.00254835,0.99172506,0.12648929,0.00892092,0.02005704
1761623517513,-0.02809554,-0.07316384,-0.14858018,0.01919626,0.00136866,-0.00381513,0.99171087,0.12660350,0.00892907,0.02003434
1761623517524,0.03341525,-0.10650849,0.00771444,-0.01292777,0.00363209,-0.01100507,0.99172117,0.12653111,0.00894941,0.01997272
1761623517535,-0.05990259,-0.17434776,0.08052954,-0.03203103,-0.01367265,-0.01517731,0.99174621,0.12635334,0.00887352,0.01988848
1761623517573,0.07726415,0.02528883,-0.04016881,-0.01411785,-0.00136108,0.00169762,0.99178002,0.12608439,0.00884759,0.01992082
1761623517591,-0.22328287,-0.17472774,0.32258884,-0.04052885,0.00082246,0.03747145,0.99182008,0.12571355,0.00885512,0.02026368
1761623517602,-0.03404340,0.27049520,0.05551739,-0.02504945,-0.01523509,0.00717744,0.99183652,0.12558329,0.00877590,0.02030101
1761623517612,-0.11512991,-0.12249604,0.20990597,0.00279061,0.00174356,0.01885585,0.99183248,0.12559822,0.00878523,0.02040189
1761623517624,0.05257410,0.08048166,-0.06983305,-0.00280207,0.01033673,0.01595901,0.99183210,0.12558225,0.00884414,0.02049285
1761623517678,0.08613104,0.01740943,-0.13124916,0.00008993,0.00357934,0.00524965,0.99182801,0.12558467,0.00894043,0.02063407
1761623517705,-0.23870705,0.09254727,0.48019860,0.03189876,0.04426285,-0.00406949,0.99176720,0.12602806,0.00955568,0.02057750
1761623517724,-0.00094025,0.08437395,0.09000685,0.06437493,0.05355985,-0.00782246,0.99168623,0.12663641,0.01006182,0.02050358
1761623517746,0.08336189,-0.04856852,-0.36510652,0.01536995,0.02741198,-0.00369917,0.99166258,0.12680394,0.01036061,0.02046326
1761623517768,-0.02586481,-0.00552069,-0.06397933,0.03443764,0.02138826,0.00995216,0.99160907,0.12718448,0.01059695,0.02057323
1761623517781,0.01038521,-0.14033746,-0.00479027,0.01809494,0.01348382,0.01952559,0.99159026,0.12730300,0.01068527,0.02070112
1761623517801,0.13586788,-0.05010743,-0.14766482,-0.00033381,-0.00054688,0.00773388,0.99158913,0.12729966,0.01067980,0.02077846
1761623517813,-0.05352935,0.15603625,0.26739701,0.01003919,0.01811624,0.00718048,0.99157988,0.12735638,0.01078216,0.02081903
1761623517824,0.23783042,0.05583997,-0.01867167,0.00719515,0.02675332,0.02146652,0.99157045,0.12739703,0.01093332,0.02094032
1761623517835,-0.04061089,-0.08819448,-0.14190471,0.01688526,0.01379353,0.01218678,0.99155587,0.12749243,0.01101125,0.02100917
1761623517846,-0.16985063,-0.04908659,-0.03159454,-0.00574042,0.01075970,0.01188030,0.99155790,0.12746058,0.01107097,0.02107511
1761623517857,-0.11911293,-0.06778137,-0.06746923,0.00418350,0.02116924,0.00888127,0.99155265,0.12748338,0.01118634,0.02112351
1761623517869,0.00308872,-0.03683852,0.01751515,0.00302566,0.01933901,0.01473542,0.99154734,0.12750077,0.01129754,0.02120824
1761623517871,-11.72494629,0.03117906,11.18753267,0.01281077,0.13282993,-0.02144652,0.99154463,0.12751358,0.01143037,0.02118679
1761623517880,2.37697989,0.10960486,-2.32096394,-0.00427657,0.02191827,0.00411807,0.99154564,0.12749284,0.01153667,0.02120677
1761623517891,0.08025037,0.01053849,-0.09787106,-0.00377541,0.02620214,-0.00027100,0.99154661,0.12747302,0.01167423,0.02120534
1761623517902,-0.16495158,0.08891958,0.01675869,0.00450774,0.01190685,-0.00199835,0.99154298,0.12749714,0.01173794,0.02119465
1761623517913,-0.01259970,-0.15146667,0.07363932,0.00093107,0.01389864,0.00834799,0.99154034,0.12750245,0.01181716,0.02124224
1761623517949,0.12645733,-0.00645675,-0.07081576,-0.00859758,0.00938982,-0.00200091,0.99155882,0.12734898,0.01198477,0.02120652
1761623517959,-1.70394305,-0.63503204,1.49301198,-0.08867285,0.07087800,0.10646173,0.99160141,0.12688788,0.01235333,0.02176012
1761623517969,0.62482041,0.64185183,-0.61710277,-0.01295071,0.08640177,0.06400610,0.99159706,0.12682183,0.01279398,0.02208655
1761623517980,0.25196250,0.10798288,-0.56346340,0.01918152,0.06806233,0.04596387,0.99157365,0.12692445,0.01315811,0.02233246
1761623517991,-0.02620066,0.05902671,-0.09300792,0.01473462,0.05032452,0.02407573,0.99155626,0.12700697,0.01343993,0.02246728
1761623518002,-0.00861423,-0.07335215,0.03270488,0.00089747,0.04508298,0.02341564,0.99154944,0.12701181,0.01368338,0.02259373
1761623518013,-0.00219127,-0.29462898,0.18824558,0.01382310,0.05899049,0.01424856,0.99153279,0.12709060,0.01401963,0.02267494
1761623518025,-0.07544601,-0.00533167,-0.01284187,0.00137658,0.02453551,0.01907018,0.99152731,0.12709845,0.01415948,0.02278364
1761623518037,0.16374391,0.10288915,0.01400070,-0.00474957,0.03589567,0.01013240,0.99152647,0.12707019,0.01437306,0.02284393
1761623518047,0.22171077,0.30560859,-0.13504716,-0.00437032,0.04104349,0.02544296,0.99152324,0.12704768,0.01458443,0.02297496
1761623518058,0.10341704,0.01393492,-0.08259042,0.00646396,0.00651956,0.01643903,0.99151586,0.12708420,0.01462127,0.02306784
1761623518069,0.13860436,0.01100365,0.07286698,-0.00672864,0.01953140,-0.00441402,0.99151947,0.12704821,0.01472576,0.02304423
1761623518080,0.12296795,0.02125724,0.30438402,-0.01999423,-0.02377616,0.01165652,0.99153387,0.12693924,0.01459618,0.02310776
1761623518091,0.20408795,0.03131882,0.02058979,0.00456597,0.00336098,0.00840813,0.99152930,0.12696435,0.01461466,0.02315400
1761623518103,0.05004683,0.07241268,-0.09015955,0.01418066,-0.02455963,-0.01015054,0.99152199,0.12704943,0.01446731,0.02309310
1761623518114,0.04216294,-0.07841601,-0.31829691,0.02305194,-0.03237273,0.00262108,0.99150772,0.12717853,0.01428602,0.02310778
1761623518125,0.00798561,-0.03728452,-0.04630326,0.02075375,-0.05168996,-0.00429921,0.99149805,0.12728852,0.01401206,0.02308499
1761623518136,0.09070239,-0.05833277,0.09336934,-0.00241444,-0.06544650,-0.00817226,0.99150575,0.12727536,0.01365538,0.02304045
1761623518148,0.09268860,-0.05761319,0.05153931,-0.02409677,-0.03625404,0.00496948,0.99152727,0.12712596,0.01343060,0.02307126
1761623518158,0.06573118,-0.03346044,0.06205814,0.00495024,-0.05007691,0.01334416,0.99152587,0.12715121,0.01317521,0.02313932
1761623518169,-0.03736098,0.03058115,-0.05038608,0.02256274,-0.04064683,-0.00367592,0.99151314,0.12727756,0.01294759,0.02311873
1761623518181,-0.03825075,-0.00712747,-0.19956912,0.04591571,-0.03681769,-0.00518186,0.99148345,0.12753469,0.01274141,0.02308971
1761623518191,-0.06405595,0.17505135,-0.00128293,-0.01093244,-0.03624188,-0.00360418,0.99149389,0.12747620,0.01254752,0.02307043
1761623518202,-0.02765597,0.09363192,-0.04079899,0.01149883,-0.03668377,-0.03255579,0.99149243,0.12754002,0.01234392,0.02288975
1761623518214,-0.03214187,-0.18167426,-0.02062633,0.05852450,-0.02710840,-0.00824245,0.99145245,0.12787361,0.01218940,0.02284276
1761623518225,-0.05063891,-0.10438720,-0.02024324,0.04471636,-0.02166281,-0.04640394,0.99142823,0.12811731,0.01207134,0.02258986
1761623518237,-0.04266414,-0.15303036,0.01195530,-0.02818096,-0.02807169,-0.03621840,0.99145679,0.12794963,0.01190432,0.02237436
1761623518247,0.08277349,0.14274085,-0.02566234,-0.04512137,-0.02043402,0.00207973,0.99148927,0.12770598,0.01179397,0.02238559
1761623518259,-0.02129487,0.01695653,0.02008084,-0.02363983,-0.00732068,0.01086594,0.99150600,0.12756887,0.01175151,0.02244862
1761623518270,-0.04287421,0.09990224,0.02110517,-0.01587841,-0.00615333,0.01423484,0.99151577,0.12748233,0.01171798,0.02252620
1761623518281,-0.08613864,0.00909687,0.23307853,0.00809875,-0.01453556,0.00239241,0.99151077,0.12752606,0.01163948,0.02253912
1761623518292,-0.08789437,-0.09080076,-0.03270488,0.02039020,-0.00865781,0.00136981,0.99149698,0.12763617,0.01159273,0.02254651
1761623518304,0.00522001,0.03961570,0.01287755,-0.00140904,-0.00539679,0.00386979,0.99149792,0.12762772,0.01156035,0.02256973
1761623518314,-0.02757281,0.02332008,-0.26655235,0.00351219,-0.00023675,0.01009170,0.99149429,0.12764651,0.01155908,0.02262372
1761623518325,-0.02347114,0.00776989,-0.04737363,0.00387864,0.01260462,0.00530695,0.99149010,0.12766765,0.01162778,0.02265264
1761623518336,-0.00627100,-0.07158352,0.01003361,0.01016678,0.02143702,0.01576385,0.99147962,0.12772305,0.01174461,0.02273856
1761623518348,0.04904146,-0.09344836,-0.04601402,0.00049532,0.02469831,0.02081488,0.99147464,0.12772600,0.01189157,0.02286241
1761623518358,-0.04593322,-0.08995580,0.04821359,-0.00471634,0.02646647,0.02150413,0.99147357,0.12770171,0.01202787,0.02297315
1761623518370,0.07747675,-0.02929769,-0.03796951,0.00353260,0.02466009,0.00416335,0.99146854,0.12772255,0.01217336,0.02299772
1761623518381,-0.01191788,0.04797900,0.05567452,0.00937105,0.02614601,-0.00606466,0.99146103,0.12777316,0.01231455,0.02296497
1761623518392,0.05536418,0.09746346,-0.03101469,-0.01086102,0.02323635,-0.00101702,0.99146732,0.12771288,0.01244351,0.02295932
1761623518403,0.05232375,0.09619488,0.00469172,-0.01568386,0.02787312,-0.01410395,0.99147849,0.12762505,0.01259960,0.02288034
1761623518415,-0.01770440,-0.06091478,-0.27927182,0.04650428,0.01738929,0.00682544,0.99144057,0.12790175,0.01270307,0.02292095
1761623518425,0.00193089,0.10544012,-0.09528729,0.03340573,0.00467900,-0.01734154,0.99142071,0.12806878,0.01272646,0.02283424
1761623518436,0.11552484,-0.05855114,0.07860151,-0.00221923,0.01071449,-0.03588119,0.99142629,0.12805602,0.01278807,0.02262793
1761623518448,0.07356581,0.05246695,0.12813743,0.00013018,-0.00487217,-0.01815418,0.99142887,0.12805675,0.01276079,0.02252626
1761623518488,-0.00299850,-0.01777708,0.01927372,-0.00115420,-0.00217859,-0.00285604,0.99143368,0.12803378,0.01271743,0.02246943
1761623518505,0.46049058,0.00712844,0.09768743,0.00517968,-0.02946920,0.00863462,0.99142931,0.12807988,0.01245516,0.02254628
1761623518516,-0.12791521,-0.04692061,-0.15955269,0.01210444,-0.04913084,-0.00508321,0.99142496,0.12814282,0.01219968,0.02251984
1761623518526,0.01400854,0.13396249,-0.04768301,0.00225997,-0.02895633,-0.01065663,0.99142650,0.12815435,0.01205200,0.02246550
1761623518537,-0.31127411,-0.07906529,-0.10648514,0.00533296,-0.02175831,-0.02286308,0.99142701,0.12818395,0.01193124,0.02233861
1761623518549,-0.07191129,0.06132983,-0.15090350,-0.00244122,-0.01324156,0.00164798,0.99142970,0.12816893,0.01184981,0.02234874
1761623518560,-0.06943787,-0.01212369,-0.01876203,-0.00562347,-0.01424627,-0.00946690,0.99143574,0.12813828,0.01177216,0.02229715
1761623518570,0.08373293,-0.05430604,0.08186706,-0.00945853,-0.00771507,-0.00471773,0.99144298,0.12809005,0.01173282,0.02227309
1761623518581,0.05443133,-0.12580419,0.17923957,-0.00920698,-0.00232366,-0.00010353,0.99144945,0.12804125,0.01172050,0.02227254
1761623518592,-0.02451384,-0.02429891,-0.07825840,-0.00949164,-0.00812122,-0.00472892,0.99145730,0.12798904,0.01167584,0.02224653
1761623518604,-0.04298225,-0.00257086,0.00933974,-0.00950938,-0.01063290,-0.00517854,0.99146596,0.12793294,0.01161310,0.02221597
1761623518615,-0.04863338,-0.34883613,0.06128422,-0.01582124,-0.01031605,-0.00888063,0.99147929,0.12784355,0.01155482,0.02216580
1761623518626,0.01313486,0.04551358,0.04961808,-0.01820296,-0.00568578,-0.00517585,0.99149295,0.12774525,0.01152411,0.02213785
1761623518637,0.00509476,0.03126758,-0.05469689,-0.00906960,-0.00663387,0.00761963,0.99149886,0.12769537,0.01148763,0.02217976
1761623518648,0.02290592,0.27973544,-0.01773361,-0.00971807,-0.00580602,0.00184880,0.99150588,0.12764192,0.01145569,0.02218993
1761623518659,-0.05566384,-0.08229505,-0.03152642,-0.00640489,-0.00849909,0.00775773,0.99151000,0.12760669,0.01140895,0.02223259
1761623518670,0.02778955,0.05510664,0.08833656,-0.02624761,-0.00874252,0.00955635,0.99152876,0.12745577,0.01135868,0.02228754
1761623518682,0.00988962,0.07891425,0.10164390,-0.02562155,-0.00940099,0.01121354,0.99154638,0.12731229,0.01130603,0.02235034
1761623518692,0.01418558,0.00642673,-0.02796383,-0.01318127,-0.00333992,0.00515674,0.99155493,0.12724243,0.01128833,0.02237767
1761623518704,-0.00860428,0.12178568,0.05175105,-0.02311108,-0.00950861,0.00990805,0.99157145,0.12710838,0.01123318,0.02243514
1761623518715,-0.08438381,-0.08873035,-0.13111604,0.00539141,-0.00914483,0.00356367,0.99156757,0.12713965,0.01118014,0.02245580
1761623518726,0.05003882,0.16060087,0.12292484,-0.00457572,-0.00185714,0.00150498,0.99157061,0.12711540,0.01117030,0.02246378
1761623518737,0.04174475,-0.11186017,-0.05451739,0.00746176,0.00193591,0.01428303,0.99156319,0.12715794,0.01118133,0.02254519
1761623518749,-0.19976469,-0.05222686,0.03132434,0.01119197,-0.00408344,0.00666166,0.99155402,0.12722453,0.01115704,0.02258483
1761623518760,0.01030380,-0.02597417,0.11741248,-0.00673425,0.00517693,-0.00465410,0.99155880,0.12718917,0.01118422,0.02256040
1761623518771,-0.00347619,-0.07704989,-0.01260553,-0.01480151,-0.00325675,0.01478879,0.99156767,0.12710702,0.01116614,0.02264247
1761623518782,0.23248132,0.04775956,0.07526114,-0.01538933,0.01242710,-0.00559512,0.99157805,0.12702546,0.01123200,0.02261282
1761623518793,-0.04138863,0.12282612,-0.06874645,-0.00749156,-0.00051632,0.00413587,0.99158293,0.12698351,0.01122911,0.02263598
1761623518804,0.05369360,0.09740874,-0.01330461,0.01357587,0.00134931,0.00379194,0.99157262,0.12705953,0.01123667,0.02265722
1761623518815,-0.11067235,0.11095219,-0.04475626,0.00712815,0.00072338,-0.00477820,0.99156815,0.12709874,0.01124065,0.02263094
1761623518827,-0.01578429,-0.09415688,-0.02652917,0.01258898,-0.00177493,-0.01472693,0.99156035,0.12717679,0.01122964,0.02253963
1761623518837,0.03448560,0.03324749,0.04642373,0.00232077,-0.00957966,-0.00783407,0.99156029,0.12718851,0.01118127,0.02250007
1761623518849,0.10867684,-0.03630596,0.02250747,0.01842773,-0.00148267,0.00070128,0.99154611,0.12729908,0.01117237,0.02250427
1761623518860,0.03964477,0.09497807,0.02280147,0.02512104,-0.00148725,0.00099404,0.99152962,0.12742719,0.01116478,0.02250934
1761623518871,-0.14849441,-0.08389760,-0.09356578,0.02482767,-0.01494542,-0.00061677,0.99151291,0.12756499,0.01108184,0.02250592
1761623518882,-0.11933275,0.02579996,0.05354913,-0.00993084,0.01010279,-0.00421697,0.99152009,0.12750838,0.01113942,0.02248188
1761623518893,-0.19744383,0.06005296,-0.02935286,-0.00398240,0.01139146,-0.00509042,0.99152294,0.12748568,0.01120435,0.02245287
1761623518905,-0.07981480,-0.08859657,-0.06935658,0.02880416,0.02037572,-0.00528644,0.99150175,0.12764554,0.01131744,0.02242353
1761623518916,-0.08183944,0.03333180,0.04640769,0.00528332,0.01670281,-0.02185445,0.99149968,0.12767434,0.01140847,0.02230442
1761623518927,0.05543046,-0.06593729,0.04275642,-0.01074766,0.02766890,-0.02230979,0.99150852,0.12761361,0.01156480,0.02217837
1761623518938,-0.04538074,0.03080045,0.09686650,-0.02842247,0.03087551,0.00166038,0.99152610,0.12746013,0.01173153,0.02218734
1761623518949,-0.11961081,0.11617575,-0.12916517,-0.00479782,0.04050726,0.04700326,0.99152097,0.12743351,0.01195634,0.02244821
1761623518960,-0.01555139,0.09356213,0.07756360,0.00175177,0.05356411,0.04750909,0.99151038,0.12744296,0.01224559,0.02270476
1761623518998,0.07660206,-0.07767900,-0.03523679,0.00293980,0.01225907,0.01438467,0.99149391,0.12749911,0.01247974,0.02297950
1761623519016,-0.44824351,-0.03934726,0.20668550,-0.01553616,0.06265346,0.03293027,0.99149777,0.12735696,0.01305302,0.02328081
1761623519018,-12.34867056,-3.77951965,8.19278594,-0.03735562,0.28147551,0.15179608,0.99149512,0.12731774,0.01334857,0.02344020
1761623519038,1.50799120,0.28872228,-0.96426581,-0.00467114,0.02582456,0.01332816,0.99149443,0.12727032,0.01361068,0.02357548
1761623519049,-0.30443349,-0.08604282,0.12013772,-0.00428341,0.05439056,0.02790763,0.99148995,0.12724826,0.01389080,0.02371921
1761623519060,0.22465981,0.13559925,-0.04526677,0.00062058,0.03845381,0.00558202,0.99148553,0.12725189,0.01411575,0.02375186
1761623519072,0.27480083,0.02820920,0.00729117,0.02362697,0.04900385,0.00438986,0.99146362,0.12738657,0.01439507,0.02377688
1761623519082,-0.03403266,0.04221925,0.02087646,-0.03469410,0.01350954,0.00608255,0.99148479,0.12720789,0.01446465,0.02380821
1761623519093,0.16814329,0.09171222,0.09893332,-0.02495628,0.03295631,0.00101425,0.99149946,0.12707188,0.01464426,0.02381374
1761623519105,-0.06420517,0.00249753,-0.09511066,0.01082854,0.01025440,-0.00216583,0.99149098,0.12713360,0.01470271,0.02380139
1761623519107,-0.75232843,-2.62170254,4.33932704,0.08445737,0.05545414,0.06107720,0.99147392,0.12724340,0.01477480,0.02388079
1761623519117,0.25829526,0.54790265,-0.98903322,-0.00339326,0.01086386,-0.02376597,0.99147793,0.12722728,0.01482640,0.02376790
1761623519127,0.00754039,0.08191104,-0.01092645,-0.00896515,0.01717444,-0.01311939,0.99148426,0.12718021,0.01491657,0.02369903
1761623519139,0.09888259,0.03004092,0.00860742,-0.00368084,-0.00983953,-0.01857047,0.99149069,0.12715794,0.01485704,0.02358667
1761623519150,0.08418976,0.23010941,-0.05661989,0.01639573,-0.02227848,-0.01851260,0.99148377,0.12724320,0.01474119,0.02349041
1761623519161,-0.03590190,0.10181630,-0.03459964,0.01505893,-0.02575832,-0.00525045,0.99147556,0.12732979,0.01459308,0.02346022
1761623519172,0.00325545,0.01348494,-0.08190017,0.02849384,-0.01438096,0.01174823,0.99145505,0.12748651,0.01451399,0.02352483
1761623519183,-0.10358012,-0.01074813,-0.06802130,0.02502788,-0.02793050,0.01620707,0.99143826,0.12761790,0.01436735,0.02360992
1761623519194,0.11391720,-0.09362732,0.08686773,0.00944275,-0.01765609,0.02279746,0.99142976,0.12767126,0.01426759,0.02373873
1761623519205,-0.00346071,-0.06685708,0.13156592,0.00466304,-0.03068030,0.01228136,0.99142720,0.12769737,0.01409578,0.02380750
1761623519217,-0.04496100,-0.00882430,-0.02646732,0.01539348,-0.01488835,0.00747078,0.99141578,0.12778742,0.01400869,0.02385121
1761623519228,-0.01870652,-0.02959855,0.05264026,0.00903564,-0.00429437,-0.00365402,0.99140989,0.12783983,0.01398378,0.02383001
1761623519239,-0.06309959,-0.34193901,0.12446140,0.01357544,-0.00993755,0.00170632,0.99140113,0.12791178,0.01393111,0.02383906
1761623519250,-0.01698141,0.05141898,0.00490322,0.01104550,0.00606598,-0.01158898,0.99139441,0.12797197,0.01396417,0.02377590
1761623519261,0.01940446,-0.04211351,-0.02955441,0.01090544,0.00353044,0.00729138,0.99138560,0.12803086,0.01398323,0.02381527
1761623519272,-0.12382679,0.38813744,-0.14730822,0.00175215,0.00402084,-0.00690297,0.99138496,0.12804041,0.01400515,0.02377765
1761623519283,0.12488328,-0.03837880,-0.04790008,0.01343648,0.01557557,0.00587941,0.99137321,0.12811566,0.01409237,0.02381057
1761623519295,-0.03949157,-0.04547068,0.07581273,0.00562494,0.00390686,0.00536460,0.99136756,0.12815053,0.01411659,0.02384383
1761623519306,0.04112497,-0.21780343,0.17878861,0.00053276,-0.00237310,-0.00241925,0.99136768,0.12815336,0.01410402,0.02383101
1761623519317,-0.02278974,-0.05318516,-0.04688068,-0.00736670,-0.00759930,0.00171447,0.99137328,0.12811284,0.01406222,0.02384044
1761623519327,0.08000120,0.13350531,0.03981015,-0.02947190,-0.00225523,0.01219522,0.99139189,0.12795811,0.01405038,0.02390447
1761623519339,-0.17254810,0.10191290,-0.21401413,-0.00292989,-0.01023925,-0.00531457,0.99139554,0.12794170,0.01399304,0.02387471
1761623519350,0.13703632,0.00558834,-0.28751102,0.00797390,-0.00812486,0.01334990,0.99138824,0.12798875,0.01394510,0.02395347
1761623519361,0.04177754,0.04169796,0.13345254,0.00389894,-0.00172331,0.00932975,0.99138444,0.12800980,0.01393580,0.02400385
1761623519372,-0.13263567,-0.02173596,-0.15777161,0.01216960,-0.02059233,0.00669121,0.99137619,0.12807917,0.01381842,0.02404199
1761623519383,0.04614359,-0.02506917,0.28574658,0.00233181,0.00153245,0.01223801,0.99137282,0.12809188,0.01382677,0.02410869
1761623519395,-0.04102994,-0.07767076,-0.00416791,-0.00016390,-0.00262915,0.01152301,0.99137154,0.12809094,0.01381166,0.02417494
1761623519407,-0.08320966,0.03279575,-0.03613212,-0.00654140,-0.00054845,0.00048775,0.99137654,0.12805202,0.01380839,0.02417785
1761623519417,-0.23794964,-0.27510452,-0.14182639,-0.01548364,0.00139997,0.01551294,0.99138446,0.12797537,0.01381532,0.02425464
1761623519428,0.03469449,-0.01368631,-0.04005335,-0.00327151,0.00284336,0.00084081,0.99138644,0.12795754,0.01383082,0.02425922
1761623519439,-0.05711206,0.05891516,0.04524171,-0.01276384,0.00026809,-0.01069231,0.99139777,0.12788160,0.01383241,0.02419560
1761623519450,0.02155023,0.15426597,0.27016986,-0.01629375,0.00763567,-0.02629493,0.99141133,0.12779768,0.01387174,0.02406018
1761623519461,-0.03866811,0.01878720,0.00024936,-0.02708040,0.01491298,-0.01553861,0.99143217,0.12764333,0.01395674,0.02397161
1761623519473,-0.15348992,0.02636106,0.06164266,-0.01588337,0.02529958,-0.00015161,0.99144189,0.12755200,0.01410221,0.02397074
1761623519484,-0.07551566,0.17434327,0.04531403,-0.01795689,0.05627534,0.04525920,0.99144411,0.12745234,0.01441454,0.02422193
1761623519519,0.13424470,-0.04562020,-0.11027527,-0.00113463,0.00972745,0.01474946,0.99143776,0.12743225,0.01458672,0.02448299
1761623519529,-2.80934221,0.26224989,1.54413856,0.02438610,0.13982508,0.16637165,0.99139352,0.12754687,0.01524390,0.02526494
1761623519539,1.63526453,-0.24501182,-0.96420832,-0.01449477,0.04149073,0.04056240,0.99139451,0.12746787,0.01547002,0.02548600
1761623519550,-0.09453237,-0.32723420,-0.25235237,-0.01415530,0.04962940,0.04612243,0.99139370,0.12739285,0.01573306,0.02573045
1761623519561,0.02541682,0.07900676,-0.01219290,-0.01260114,0.04232741,0.04256464,0.99139276,0.12732228,0.01597009,0.02596881
1761623519573,0.08434171,-0.05036745,-0.10073489,0.02665746,0.05323578,0.01586216,0.99136640,0.12747156,0.01626821,0.02605764
1761623519583,0.19164208,0.25648247,0.07489714,0.01520667,0.02500569,0.03503171,0.99134813,0.12755596,0.01640699,0.02625207
1761623519595,0.13738917,0.22824622,0.02128565,0.01486600,0.06665917,0.02860447,0.99132710,0.12763847,0.01677695,0.02641082
1761623519597,-18.91596577,11.20738286,2.63556088,0.43568363,0.22147008,0.06524432,0.99125612,0.12813950,0.01703164,0.02648585
1761623519607,3.71925977,-2.20985209,-0.75207179,0.11532276,0.06843675,0.01805848,0.99117055,0.12873342,0.01738409,0.02657886
1761623519617,-0.02778654,-0.23106718,0.02264730,0.09979048,0.08606437,0.00155202,0.99110142,0.12920742,0.01779290,0.02658623
1761623519628,0.10540143,-0.22637515,0.11353920,0.01732252,0.07761489,-0.01865542,0.99108287,0.12930876,0.01824694,0.02647709
1761623519639,-0.14089239,-0.22397512,0.22973848,-0.05389895,0.05403252,-0.00576268,0.99111499,0.12902848,0.01852791,0.02644713
1761623519650,0.33890200,-0.02936197,0.18480247,-0.05813465,0.05999691,-0.01051695,0.99115255,0.12870293,0.01886389,0.02638823
1761623519661,0.16773310,-0.15947711,-0.04751646,-0.05071956,0.03237282,0.02318134,0.99118246,0.12841890,0.01904518,0.02651805
1761623519675,0.09662832,0.13591816,-0.11648778,-0.00961009,0.02166401,0.00500724,0.99118713,0.12835403,0.01919141,0.02655185
1761623519684,-0.22529575,0.12843820,0.19917272,0.00342535,0.00580173,0.04526424,0.99117915,0.12836944,0.01921752,0.02675554
1761623519695,0.23799235,0.04582479,-0.18013691,0.01992612,-0.01320942,0.01989555,0.99116254,0.12848502,0.01914091,0.02687093
1761623519707,0.17216005,0.01682381,-0.00314955,0.00470458,-0.01478864,0.00464822,0.99115986,0.12851301,0.01905292,0.02689859
1761623519718,0.03350361,-0.00541288,0.06408714,-0.00198851,-0.00788090,0.01132201,0.99116040,0.12850227,0.01901036,0.02695973
1761623519729,0.02729868,-0.01556405,-0.01523124,0.00551578,-0.03425669,0.01161258,0.99115827,0.12853343,0.01881681,0.02702534
1761623519740,-0.09230186,-0.12501609,-0.02563540,0.00693479,-0.04139062,0.00901250,0.99115639,0.12856915,0.01860365,0.02707175
1761623519751,0.11965342,-0.20881672,-0.15068149,-0.01612214,-0.02743115,0.03057678,0.99116655,0.12847645,0.01844592,0.02724757
1761623519764,-0.00235931,0.03078844,-0.00645346,-0.01658477,-0.00336481,0.01671137,0.99117784,0.12836947,0.01842421,0.02735536
1761623519812,0.03614421,0.05074795,-0.04389795,-0.00234353,-0.00494146,0.00016188,0.99118727,0.12831288,0.01830488,0.02735927
1761623519830,-0.29139813,-0.27491228,0.89951712,-0.03689571,-0.02766428,0.02341644,0.99122777,0.12799004,0.01806282,0.02756416
1761623519855,0.20046822,0.25828006,-0.45620254,-0.00406813,-0.00301058,0.00443704,0.99123362,0.12793797,0.01802428,0.02762095
1761623519874,0.03132650,0.03536817,0.11782375,0.00953262,-0.00079516,0.00051077,0.99122230,0.12802567,0.01801696,0.02762565
1761623519884,-0.38176558,0.58085915,1.24294546,0.05906640,-0.00952091,0.00865066,0.99118222,0.12833281,0.01796746,0.02767064
1761623519907,0.09416589,-0.09487973,-0.42846265,0.04648896,-0.00255321,-0.00296380,0.99111404,0.12886976,0.01793797,0.02763640
1761623519919,0.15686713,-0.12440006,-0.18970741,0.04987071,-0.00518972,0.01868887,0.99107356,0.12916151,0.01790761,0.02774573
1761623519940,-0.01104697,-0.10154831,-0.16442172,0.00443939,-0.00158794,0.00206027,0.99106721,0.12920790,0.01789101,0.02776726
1761623519951,-0.02590041,0.01725398,0.33299785,-0.00237369,0.00935014,0.00415761,0.99106734,0.12919484,0.01794244,0.02779013
1761623519962,-0.01477241,-0.07399181,-0.09567986,0.01736168,0.00429964,0.01825660,0.99105149,0.12929120,0.01796630,0.02789145
1761623519973,0.00387012,0.12874187,-0.05611670,0.02758770,0.00286753,0.01796136,0.99102841,0.12944431,0.01798222,0.02799114
1761623519985,-0.00825549,0.04478774,-0.07010970,0.04082794,0.00158274,-0.00858381,0.99099920,0.12967703,0.01799124,0.02794221
1761623519995,0.01912100,-0.00840996,0.02878882,0.04352426,-0.00128416,0.00144079,0.99096861,0.12990988,0.01798437,0.02794992
1761623520007,-0.03016042,0.07518783,0.10419491,0.01513100,0.00478821,-0.00862314,0.99095828,0.12999537,0.01801142,0.02790120
1761623520009,1.34331561,3.43441889,12.77226718,0.06309569,0.04521609,0.03539633,0.99094667,0.13006794,0.01806342,0.02794191
1761623520019,-0.14632032,-1.02446972,-2.79303261,0.00517927,0.00130349,0.00173317,0.99094279,0.13009461,0.01807013,0.02795083
1761623520030,-0.01843364,-0.03457476,-0.06898336,0.00577973,0.00708715,0.00295941,0.99093759,0.13012553,0.01810805,0.02796666
1761623520041,-0.00448212,-0.02776936,0.04707058,-0.00184015,0.00427311,0.00161232,0.99093823,0.13011559,0.01813112,0.02797537
1761623520052,-0.06736310,-0.06005394,-0.02206128,0.00008251,0.00427818,-0.00106578,0.99093788,0.13011608,0.01815615,0.02796914
1761623520063,0.00260987,0.02910206,0.05635597,-0.00466520,0.00053080,-0.00394614,0.99094156,0.13009205,0.01815888,0.02794881
1761623520074,0.00297523,0.04093124,-0.11987939,0.00580740,0.00268747,-0.00337520,0.99093751,0.13012486,0.01817407,0.02792974
1761623520085,-0.23308294,0.07941241,-0.18673547,0.01850344,-0.01079811,0.00254171,0.99092461,0.13022848,0.01811360,0.02794398
1761623520096,0.10253229,0.03470075,0.15904637,0.00746755,-0.00141488,0.00411041,0.99091887,0.13026843,0.01810603,0.02796597
1761623520107,-0.09081469,-0.03113062,-0.05709405,0.00365466,-0.02240142,-0.00592322,0.99091941,0.13028926,0.01797834,0.02793221
1761623520119,0.23652013,-0.13177143,0.19850935,-0.00102169,-0.00634567,0.00480441,0.99092005,0.13028349,0.01794249,0.02795935
1761623520129,-0.03506323,0.03100621,-0.03212603,0.00981022,-0.00783273,0.00553902,0.99091301,0.13033647,0.01790019,0.02798926
1761623520141,-0.07701716,0.02160373,-0.08409222,0.00731928,-0.00697450,0.00970912,0.99090645,0.13037965,0.01785904,0.02804655
1761623520151,-0.11070103,-0.07723000,-0.12118318,0.01703548,0.00114554,0.00963786,0.99089352,0.13046653,0.01786488,0.02809570
1761623520163,0.00616632,-0.03294865,-0.09343601,0.01310925,-0.00127632,0.01321464,0.99088136,0.13054322,0.01785742,0.02817300
1761623520174,-0.05810410,-0.04408624,0.02392880,0.01833707,0.01001048,0.00728109,0.99086565,0.13064591,0.01791348,0.02821378
1761623520185,0.06440586,0.03145339,0.16971546,0.01098613,0.01759864,0.00466333,0.99085558,0.13070413,0.01800675,0.02823849
1761623520196,-0.09984452,-0.00029510,-0.06372204,0.00552779,0.00443931,0.00261263,0.99085071,0.13073454,0.01803117,0.02825286
1761623520208,0.11203072,-0.01715747,0.03454035,-0.00767189,0.01567608,0.00283728,0.99085474,0.13068659,0.01812914,0.02827060
1761623520219,0.01172126,-0.09181278,0.08338329,0.00131777,0.01625456,0.00182981,0.99085189,0.13069377,0.01821773,0.02828057
1761623520230,0.00818560,-0.01035799,-0.04731331,-0.00323829,0.00883879,0.00924730,0.99085189,0.13067628,0.01826546,0.02833050
1761623520241,-0.00173537,-0.05935979,-0.05281300,-0.00441316,0.01438013,0.00990341,0.99085206,0.13065267,0.01834239,0.02838349
1761623520252,-0.10319509,0.00287541,-0.15207043,-0.00189471,0.01139405,-0.01208261,0.99085422,0.13064206,0.01840620,0.02831582
1761623520263,0.08214541,-0.02081072,-0.02637171,-0.01362489,0.00786109,0.01613520,0.99086099,0.13056440,0.01845101,0.02840780
1761623520275,-0.03865515,0.12740263,-0.08754587,-0.00235934,0.00489390,0.01348531,0.99086002,0.13055083,0.01847915,0.02848534
1761623520285,-0.09957843,0.01592546,-0.22322765,0.03107772,0.00525046,0.00166279,0.99083817,0.13071088,0.01850619,0.02849390
1761623520297,0.05987843,-0.05583873,0.03884519,0.00735654,-0.00073897,0.00496716,0.99083152,0.13075539,0.01850172,0.02852395
1761623520307,0.00735945,-0.06212768,0.06153564,-0.01905947,0.00123816,0.00760014,0.99084288,0.13066009,0.01850791,0.02856195
1761623520319,0.12860530,-0.01182262,0.00562933,-0.00887031,0.00973928,-0.00548995,0.99084975,0.13060687,0.01856634,0.02852901
1761623520330,-0.00597002,-0.09286131,-0.03850201,-0.00623320,0.00651489,-0.00571521,0.99085424,0.13057446,0.01860022,0.02849929
1761623520341,0.01529906,0.08815942,0.08237024,-0.03579294,0.00814991,-0.02465552,0.99088348,0.13037581,0.01864545,0.02836245
1761623520352,-0.00851015,-0.01834092,-0.11379978,-0.05425591,-0.00150870,-0.03702866,0.99092948,0.13007198,0.01863700,0.02815509
1761623520363,0.05263078,0.01490608,0.07965469,-0.04859821,0.00701024,-0.01411013,0.99096700,0.12979740,0.01867661,0.02807537
1761623520402,0.00445538,0.04845247,-0.04046735,-0.01097628,-0.00681699,0.00233056,0.99099614,0.12958391,0.01854402,0.02812070
1761623520421,-0.07445795,-0.33900728,0.16641661,-0.06595847,0.00052463,0.02584793,0.99106922,0.12897049,0.01854890,0.02836109
1761623520431,-0.07816406,0.24110826,-0.13106502,-0.06004439,-0.00910995,0.00218803,0.99110957,0.12866427,0.01850244,0.02837225
1761623520441,-0.03007731,0.02674733,0.11916346,-0.04905875,0.00115385,0.00297544,0.99114148,0.12841407,0.01850832,0.02838742
1761623520452,0.12467014,0.02189775,-0.04188902,-0.00729801,0.00974709,-0.00729205,0.99114692,0.12837320,0.01856291,0.02834659
1761623520464,-0.00337050,0.15543293,0.02176043,-0.03209842,0.01664316,0.00542248,0.99116904,0.12818061,0.01866277,0.02837912
1761623520475,0.04474757,-0.00597002,0.06274947,-0.01694654,0.01423071,0.01287175,0.99117711,0.12809249,0.01873677,0.02844605
1761623520486,0.04181468,0.07559810,0.07979676,-0.01588132,0.02526015,0.00693857,0.99118453,0.12800673,0.01887317,0.02848352
1761623520496,0.09648521,-0.08149693,-0.06793124,0.01790905,0.03416609,0.01819726,0.99116550,0.12810433,0.01905938,0.02858270
1761623520508,-0.05595049,0.15706988,0.04282033,-0.02228161,0.01290184,0.00783805,0.99117932,0.12797621,0.01913356,0.02862777
1761623520519,-0.01451092,0.03401975,-0.15273057,0.02601736,0.02547713,-0.01787606,0.99116029,0.12812451,0.01927878,0.02852587
1761623520530,-0.04614023,0.05245816,-0.02941775,0.00470592,-0.00209567,-0.00131133,0.99115737,0.12815039,0.01926725,0.02851866
1761623520542,0.11492227,-0.01911480,0.04122742,0.01006163,0.01113788,-0.03011878,0.99115364,0.12820774,0.01933074,0.02834698
1761623520552,0.09571893,0.03441077,0.11804559,-0.00870558,0.00742652,-0.03493503,0.99116412,0.12816161,0.01937010,0.02816183
1761623520564,-0.03749287,0.03938361,-0.08190776,-0.00359028,-0.01414291,-0.01914537,0.99117150,0.12814096,0.01928878,0.02805174
1761623520576,0.09282397,-0.01245349,-0.02336880,0.00824755,-0.00740860,-0.00316370,0.99116662,0.12818921,0.01924544,0.02803323
1761623520586,-0.03319285,0.04810847,0.01753905,0.01081849,-0.01333710,-0.00161600,0.99116109,0.12824384,0.01917809,0.02802507
1761623520597,0.08132204,-0.07459260,0.00699310,0.00318148,-0.01126999,0.00717510,0.99115883,0.12826198,0.01911385,0.02806597
1761623520608,-0.03640845,0.08351881,0.03834247,0.00071450,-0.03171879,-0.00339031,0.99116211,0.12826580,0.01894415,0.02804783
1761623520619,0.06439267,0.03485745,-0.00418949,0.00408885,-0.02687842,0.00302806,0.99116151,0.12828952,0.01878826,0.02806539
1761623520631,0.01657820,-0.00177969,0.05449889,-0.00344552,-0.02345756,0.00075814,0.99116645,0.12826988,0.01865455,0.02806972
1761623520643,-0.05208871,-0.12395577,-0.08226138,-0.00245835,-0.02359258,-0.00639960,0.99117210,0.12825513,0.01851299,0.02803132
1761623520653,-0.02488950,-0.15627141,-0.07788326,-0.00671919,-0.03263887,-0.00602485,0.99118091,0.12821918,0.01833838,0.02799909
1761623520664,0.07070907,0.11401234,0.08369181,-0.00946713,-0.00223495,-0.01022612,0.99118907,0.12816948,0.01832664,0.02794540
1761623520675,-0.11993266,-0.05756573,-0.14624222,0.00456229,-0.01408517,-0.00464010,0.99118798,0.12819434,0.01824988,0.02792011
1761623520687,-0.08513105,0.07805546,-0.00505819,-0.00250121,-0.00342359,-0.00365085,0.99119092,0.12817933,0.01822934,0.02789820
1761623520698,-0.03187001,-0.03743729,-0.01702395,-0.00594002,-0.00697556,0.00440929,0.99119505,0.12814755,0.01819202,0.02792179
1761623520709,-0.06463540,-0.00468782,-0.06850933,-0.00333439,-0.00587354,-0.01256857,0.99120009,0.12812871,0.01815883,0.02785078
1761623520720,0.18623128,-0.00253765,0.12092685,-0.01219151,0.00715803,0.00252041,0.99120765,0.12806166,0.01819820,0.02786464
1761623520731,-0.17725957,-0.01242441,-0.07655092,-0.00967359,-0.01115247,-0.00806971,0.99121723,0.12800652,0.01813463,0.02781865
1761623520742,0.03875435,-0.00630054,-0.03051234,-0.01683509,0.00318947,-0.00295365,0.99122865,0.12791898,0.01815122,0.02780329
1761623520753,-0.08465847,0.03048567,-0.01068980,-0.01219164,0.00872781,-0.00222282,0.99123706,0.12784949,0.01820097,0.02779062
1761623520764,-0.06292179,-0.03193241,-0.13254591,0.00100251,0.00156586,0.00555353,0.99123531,0.12785510,0.01820973,0.02782172
1761623520775,0.02787123,0.04345089,0.12608060,-0.00707922,0.00342978,-0.00162632,0.99124010,0.12781723,0.01822808,0.02781302
1761623520786,0.08614402,-0.09137190,0.01296670,-0.00514157,-0.00529153,0.00682997,0.99124325,0.12778869,0.01819872,0.02785092
1761623520798,0.03915470,-0.03727318,0.02613297,-0.00710495,0.00396341,-0.00313654,0.99124884,0.12774606,0.01822250,0.02783210
1761623520809,-0.04318066,-0.05731977,0.08217101,-0.02470271,-0.00601702,0.00524751,0.99126582,0.12761267,0.01819000,0.02786044
1761623520820,-0.01967470,-0.21769502,-0.10563159,-0.01456490,-0.00073003,0.00100582,0.99127596,0.12753329,0.01818603,0.02786592
1761623520831,0.01385593,0.10866705,0.00957671,-0.02017188,-0.00199472,0.00603749,0.99128998,0.12741831,0.01817466,0.02790034
1761623520843,-0.05628762,0.09112943,-0.00994327,-0.00810396,-0.00686453,0.00507825,0.99129602,0.12737050,0.01813415,0.02793030
1761623520853,0.05075487,0.23901273,0.14482918,-0.00075700,-0.00319034,0.00213012,0.99129650,0.12736671,0.01811820,0.02794095
1761623520865,0.01831055,0.08355975,0.01678467,-0.00871419,-0.00315308,0.00589192,0.99130282,0.12731225,0.01809850,0.02797777
1761623520876,-0.08798740,-0.08875474,-0.05281027,0.01417940,-0.00325424,0.00235098,0.99129313,0.12738740,0.01808125,0.02799023
1761623520886,0.35417727,-0.06881638,0.25311425,0.00969530,-0.00287786,0.00761876,0.99128594,0.12743684,0.01806657,0.02802909
1761623520898,0.02673351,0.06924619,0.08109057,-0.01507813,0.00174976,-0.00033810,0.99129715,0.12734864,0.01807681,0.02802711
1761623520935,-0.05347655,-0.01252523,-0.10267904,0.00320766,-0.00153099,-0.00058585,0.99129031,0.12740830,0.01804833,0.02801621
1761623520945,-0.29073579,0.13559490,0.83243214,0.02531423,-0.01513852,-0.01689516,0.99127829,0.12752981,0.01797567,0.02793512
1761623520954,-0.13922467,0.15338861,-0.17452609,-0.00431933,-0.00559903,0.00298158,0.99128079,0.12751102,0.01795131,0.02794809
1761623520965,0.10618172,-0.02142447,-0.22103396,0.01452419,0.01276360,0.01010151,0.99126731,0.12759308,0.01802343,0.02800516
1761623520976,-0.02380638,-0.08218453,-0.16431071,0.03435544,0.00919403,-0.00245681,0.99124175,0.12778719,0.01807537,0.02799128
1761623520987,0.06727401,-0.05919717,-0.15948996,0.02534748,0.00674640,0.00507371,0.99122248,0.12792533,0.01811214,0.02801893
1761623520998,0.01282290,0.02016289,-0.00181347,0.00647886,0.00286574,0.00644597,0.99121648,0.12796161,0.01812819,0.02805503
1761623521009,-0.02684680,0.11706867,-0.09123160,0.02113266,0.00472441,-0.00747295,0.99120189,0.12807996,0.01815464,0.02801318
1761623521021,-0.02116902,0.05439167,-0.12149404,0.06206774,0.00751344,-0.00680624,0.99115762,0.12842443,0.01819634,0.02797541
1761623521032,0.01344655,-0.03971541,0.01811657,0.01071266,0.01079115,-0.00733995,0.99114983,0.12848496,0.01825731,0.02793393
1761623521043,0.04574025,-0.08998534,0.04838803,-0.00911673,-0.00045661,0.00244226,0.99115588,0.12843573,0.01825485,0.02794712
1761623521053,-0.00689869,-0.09734812,0.07154193,-0.02426085,-0.00644469,0.00264230,0.99117309,0.12830472,0.01822005,0.02796139
1761623521066,0.09412746,-0.05003360,0.05174220,-0.02969374,0.01210465,0.00990257,0.99119362,0.12812210,0.01829449,0.02802229
1761623521076,-0.17110036,-0.12839493,0.11437599,-0.02992867,0.00271460,0.01287483,0.99121139,0.12796797,0.01830847,0.02808860
1761623521088,0.04938635,-0.14931841,0.02343659,-0.00387516,0.01333031,0.00902048,0.99121138,0.12794530,0.01838645,0.02814137
1761623521099,0.03134412,0.07095328,0.09240819,-0.01263357,0.01583272,-0.00678609,0.99122025,0.12787203,0.01847828,0.02810201
1761623521110,-0.01466235,0.05706430,-0.22400594,0.00736987,0.00359857,-0.02652405,0.99121881,0.12791145,0.01849754,0.02796010
1761623521121,0.10646214,0.08827321,-0.08977225,0.00090424,0.01003873,-0.02051675,0.99122033,0.12791647,0.01855325,0.02784624
1761623521132,0.01741553,-0.07507423,0.04257129,-0.00423940,0.00489188,-0.01246226,0.99122480,0.12789294,0.01858040,0.02777707
1761623521144,0.00057640,-0.09278518,0.04194682,-0.01351542,0.01110009,-0.00823938,0.99123486,0.12781591,0.01864367,0.02773011
1761623521154,-0.10449417,-0.06112705,0.07321075,-0.03632030,-0.00712472,-0.00030192,0.99125945,0.12763067,0.01860733,0.02772857
1761623521165,0.05554365,0.01138291,-0.05753438,-0.02091285,0.00489348,-0.00697083,0.99127524,0.12751252,0.01863498,0.02768918
1761623521177,0.04182065,0.12530621,0.01899669,-0.01765362,-0.00406466,-0.00677943,0.99129033,0.12740748,0.01861080,0.02764884
1761623521188,0.16966196,-0.04540863,-0.04183208,-0.00189219,0.00350880,-0.00413648,0.99129188,0.12739745,0.01862939,0.02762692
1761623521199,-0.01008753,0.18561558,0.02027285,-0.01686195,-0.00210027,-0.00537132,0.99130542,0.12730049,0.01861732,0.02759604
1761623521210,0.03516125,-0.04636917,0.10988109,-0.00376356,0.00167857,-0.00264355,0.99130828,0.12727998,0.01862647,0.02758163
1761623521222,-0.05265386,-0.16833527,-0.10106538,0.02489873,-0.00672810,-0.00316820,0.99129083,0.12742564,0.01858711,0.02756309
1761623521233,-0.07009856,0.04406395,0.02712978,0.00504222,-0.01456233,-0.02890769,0.99129323,0.12745413,0.01850483,0.02739977
1761623521243,0.16028092,0.11119187,0.03283479,-0.00233204,-0.01488379,-0.04123208,0.99130205,0.12744212,0.01842818,0.02718742
1761623521255,0.10944092,0.20292773,-0.07692657,-0.00049916,-0.01863950,-0.02549860,0.99130836,0.12743927,0.01832193,0.02704208
1761623521265,0.00283139,0.08901090,-0.05675563,0.01727586,-0.02214023,-0.00966929,0.99130007,0.12753170,0.01820348,0.02699035
1761623521277,0.00983154,0.05517194,-0.00662490,0.00337565,-0.00545476,-0.00685886,0.99129920,0.12755144,0.01817157,0.02695022
1761623521287,0.00431145,0.01823919,-0.14960067,0.02762806,-0.03961670,0.00778868,0.99128366,0.12769235,0.01796953,0.02698995
1761623521299,0.06498757,-0.15045275,0.08541280,0.00596674,-0.00209213,-0.00943424,0.99128080,0.12772845,0.01795687,0.02693287
1761623521310,-0.02056752,-0.12954101,0.02800025,0.00468058,-0.01645602,-0.00506321,0.99127992,0.12775279,0.01787130,0.02690654
1761623521321,-0.07840390,-0.04361033,0.02019468,-0.00035148,-0.01514981,-0.00289191,0.99128220,0.12775076,0.01778419,0.02688991
1761623521332,-0.12514962,0.06666541,-0.08515479,0.01096834,-0.01865122,-0.01639972,0.99127873,0.12781054,0.01768254,0.02680053
1761623521343,-0.03165552,0.04552242,0.00436720,0.01486395,-0.00091818,-0.00703266,0.99126924,0.12789304,0.01767744,0.02676150
1761623521354,-0.19011951,-0.01257788,0.02515576,0.01275020,-0.01294124,0.00037748,0.99126133,0.12796380,0.01760562,0.02676360
1761623521366,0.06802559,-0.06834986,-0.06654016,0.00941333,-0.01313445,0.00271592,0.99125541,0.12801652,0.01753207,0.02677881
1761623521377,0.10987073,0.02061939,0.01682810,-0.00465067,-0.00380993,-0.01239692,0.99126098,0.12799070,0.01751092,0.02671000
1761623521388,0.08431454,-0.15174837,-0.14625349,0.00624933,-0.00780120,-0.00542434,0.99125810,0.12802508,0.01746801,0.02668017
1761623521399,-0.05750018,0.07566857,0.00956793,-0.00784727,-0.01423589,-0.00568482,0.99126631,0.12797956,0.01738545,0.02664720
1761623521411,0.12140079,0.19769390,-0.06367166,-0.01356069,-0.00221398,-0.00363500,0.99127707,0.12790227,0.01737283,0.02662648
1761623521422,-0.02889422,0.08350085,-0.12658419,-0.00861677,-0.01474042,0.00301743,0.99128441,0.12785315,0.01728881,0.02664368
1761623521432,0.02875759,0.09186212,-0.08956475,-0.01822117,-0.01861665,-0.01023989,0.99129974,0.12775840,0.01719200,0.02659043
1761623521467,-0.06113260,-0.08845517,0.11333632,-0.00756484,-0.00397467,-0.00286368,0.99131917,0.12762715,0.01712304,0.02654074
1761623521479,0.65700678,-0.22166701,-0.50477606,-0.06880472,-0.05832522,-0.00987372,0.99138031,0.12721088,0.01677017,0.02648101
1761623521488,-0.41641455,0.06324365,0.05283595,0.02559484,-0.01926085,-0.01231749,0.99136846,0.12732606,0.01668350,0.02642558
1761623521500,-0.11381345,0.07348861,0.16345269,-0.00709514,-0.03310385,-0.00091180,0.99137702,0.12728526,0.01649315,0.02642034
1761623521511,0.04822714,-0.02603334,0.08128207,-0.01134765,-0.03016405,-0.00812154,0.99138919,0.12722171,0.01632423,0.02637486
1761623521522,-0.00731863,-0.02479605,0.08001237,-0.00996288,-0.01494055,-0.01223808,0.99139936,0.12716692,0.01624206,0.02630755
1761623521532,0.02569028,0.04418585,0.03094055,-0.01444597,-0.01334519,0.00273083,0.99140975,0.12709180,0.01617266,0.02632175
1761623521544,-0.17112006,0.09078167,-0.02351268,-0.00464265,-0.02846747,-0.00864534,0.99141727,0.12706464,0.01600613,0.02627117
1761623521546,5.41298349,3.66327134,-7.92879584,0.00903464,-0.12202881,0.03506262,0.99141713,0.12707503,0.01586580,0.02631149
1761623521557,-1.07396428,-0.56643093,1.63722422,0.01284836,-0.01386367,-0.00353400,0.99141027,0.12714120,0.01579440,0.02629329
1761623521566,-0.08246479,0.06413942,-0.07526198,0.02687069,-0.01706507,-0.01278503,0.99139721,0.12726480,0.01571590,0.02623448
1761623521577,-0.02049405,-0.12424263,0.12255114,0.00856321,-0.02202307,-0.00214795,0.99139332,0.12731276,0.01559257,0.02622245
1761623521588,0.03841863,-0.07614177,-0.06796822,0.00613798,-0.01128522,-0.02491444,0.99139358,0.12734744,0.01552881,0.02608169
1761623521599,0.03790275,-0.00497197,-0.02871764,0.00876228,-0.01248491,-0.00800460,0.99138958,0.12739607,0.01545952,0.02603726
1761623521611,-0.07135529,0.11936893,0.02128565,-0.00108458,-0.01318281,0.00497211,0.99139077,0.12739005,0.01538635,0.02606486
1761623521622,0.12773216,0.05541338,-0.15754336,0.02333647,0.00166909,-0.00011183,0.99137414,0.12751840,0.01539553,0.02606424
1761623521633,-0.04552941,-0.13288139,-0.07153387,0.04070170,0.00206990,-0.00455069,0.99134529,0.12774633,0.01540712,0.02603876
1761623521644,-0.07773925,-0.11313209,0.02125109,0.01228878,-0.00916354,0.00480865,0.99133658,0.12781453,0.01535627,0.02606545
1761623521655,-0.00691056,0.12705136,0.04725215,-0.01497351,-0.00391341,-0.00954571,0.99134936,0.12772918,0.01533396,0.02601104
1761623521666,-0.02271147,0.13194884,-0.12565630,0.01395646,-0.01025358,-0.01812495,0.99134295,0.12780594,0.01527756,0.02591135
1761623521678,0.18024525,-0.03987143,-0.01167467,0.04830539,-0.00344838,-0.03044954,0.99131116,0.12809094,0.01525722,0.02573170
1761623521688,0.24783119,-0.11972471,0.00302626,-0.00124802,-0.01683276,-0.02721714,0.99131700,0.12808445,0.01516969,0.02559017
1761623521700,0.00458971,-0.14679905,0.09636021,-0.02553691,-0.01274038,-0.00799021,0.99133734,0.12794400,0.01509962,0.02554622
