UnixTime(ms),Ax,Ay,Az,Gx,Gy,Gz,QuatW,QuatX,QuatY,QuatZ
1761618734248,0.00000000,0.00000000,0.00000000,0.00000000,0.00000000,0.00000000,0.95192705,0.05000105,0.30159513,0.01936942
1761618734259,0.82026808,0.36016304,0.57959602,0.00783986,-0.00921587,0.00595266,0.95194077,0.05004613,0.30154213,0.01940364
1761618734270,-0.01097935,-0.00916944,0.10194394,-0.01281785,-0.01952534,0.01375164,0.95197727,0.04997499,0.30143377,0.01947997
1761618734281,0.00035325,-0.15150022,0.04707028,-0.01560380,-0.02251154,0.01007319,0.95202099,0.04988683,0.30130658,0.01953688
1761618734293,0.02382862,-0.02222321,0.11317525,-0.02490447,-0.02408381,-0.00273559,0.95207082,0.04974861,0.30117291,0.01952170
1761618734304,0.02562464,0.10026347,0.07028583,-0.00207563,-0.03680642,0.00230332,0.95213634,0.04973698,0.30096680,0.01953460
1761618734315,0.07162753,-0.04329546,0.71120315,0.02740943,-0.03542586,-0.01966166,0.95219376,0.04989185,0.30076664,0.01942351
1761618734326,-0.07986970,0.18076701,0.04175982,0.04705387,-0.04516055,-0.02691651,0.95226283,0.05015535,0.30051374,0.01927277
1761618734337,-0.07887732,0.13702559,-0.02660922,0.04422648,-0.04823946,-0.04206764,0.95233970,0.05040302,0.30024360,0.01903720
1761618734349,-0.04599220,0.20222659,-0.56253624,0.03008591,-0.04218131,-0.01694313,0.95240650,0.05056999,0.30000950,0.01894316
1761618734360,-0.19200074,-0.06196992,0.01392532,0.03143782,-0.04778098,-0.01358610,0.95248289,0.05074605,0.29974192,0.01886708
1761618734371,0.12301631,-0.10602165,-0.08680244,0.06361232,-0.03086695,0.00610657,0.95251785,0.05110546,0.29956752,0.01890158
1761618734382,-0.01180728,-0.07680406,-0.00937562,0.07380774,-0.08122337,0.00133272,0.95263730,0.05151509,0.29911673,0.01890898
1761618734393,-0.05919438,-0.02479792,0.04317577,0.06017808,-0.08263223,-0.02698075,0.95276718,0.05185209,0.29865399,0.01875789
1761618734405,-0.00535143,0.13053968,0.10178562,0.06125400,-0.04982150,-0.00541331,0.95283707,0.05219817,0.29837250,0.01872730
1761618734416,-0.03448001,-0.09353890,0.71778690,0.09429797,-0.04357139,-0.01364033,0.95288544,0.05272152,0.29813068,0.01865160
1761618734427,-0.13158399,0.16756399,0.08611011,0.06570832,-0.03291263,-0.00459896,0.95292282,0.05308621,0.29794802,0.01862607
1761618734438,-0.10232774,0.09701786,0.00435796,0.05856320,-0.02904245,0.00125246,0.95295462,0.05340830,0.29778828,0.01863296
1761618734449,-0.22368399,0.20475779,-0.40052196,0.05373362,-0.00475153,0.01007444,0.95294500,0.05370652,0.29776191,0.01868887
1761618734460,-0.13409915,-0.13651671,-0.08860321,0.06427615,0.00320423,0.00506775,0.95291849,0.05406647,0.29777985,0.01871725
1761618734472,-0.17167746,-0.20700076,-0.08654901,0.07813557,0.02870882,0.00354456,0.95283818,0.05453138,0.29795067,0.01873834
1761618734483,-0.09223783,0.03836605,0.11904270,0.07288484,0.03596590,0.01078710,0.95275054,0.05493953,0.29815208,0.01879875
1761618734494,-0.24742835,0.05560972,0.02966082,0.09715680,0.04021141,-0.02535799,0.95265219,0.05547875,0.29837525,0.01865801
1761618734506,-0.12730986,0.11624302,-0.09069222,0.10976494,0.05778956,-0.02490725,0.95251749,0.05609344,0.29869888,0.01851853
1761618734517,-0.05440625,-0.07145355,0.30388196,0.09336963,0.06476683,-0.04394422,0.95237874,0.05661164,0.29905833,0.01827464
1761618734528,-0.49251879,0.00340160,-0.02034646,0.08753321,0.06461581,-0.02755796,0.95223873,0.05710182,0.29942018,0.01812032
1761618734539,0.50082347,-0.57904743,0.07127469,0.09154923,0.07930703,-0.01434830,0.95206960,0.05761450,0.29986430,0.01803997
1761618734550,-0.38488331,0.13328366,-0.14017355,0.06976650,0.06476596,-0.01701731,0.95193337,0.05800519,0.30022699,0.01794467
1761618734561,0.07132937,-0.08911960,0.03199758,0.05448881,0.08262052,-0.01652547,0.95177188,0.05830760,0.30068553,0.01785296
1761618734573,-0.03743098,0.05114226,0.12271660,0.04669039,0.09145784,0.00283634,0.95159357,0.05856907,0.30119770,0.01786884
1761618734584,-0.12961438,-0.07440041,-0.03819581,0.05166511,0.08432329,0.00026388,0.95142759,0.05885581,0.30166569,0.01787030
1761618734595,0.12275513,-0.09851103,-0.03389507,0.02786994,0.07507570,0.00556102,0.95128393,0.05901188,0.30208612,0.01790144
1761618734606,-0.19576781,-0.22261461,0.07174985,0.01516580,0.06257116,0.00423333,0.95116687,0.05909681,0.30243651,0.01792515
1761618734617,0.44326665,-0.05900201,0.49055897,0.00594894,0.06244479,0.00820299,0.95105369,0.05912983,0.30278308,0.01797068
1761618734628,-0.15040885,0.00127727,0.15529320,-0.00748685,0.06401759,0.00665272,0.95094138,0.05908790,0.30314158,0.01800793
1761618734640,0.10643687,-0.04615036,-0.12164213,0.00284536,0.06072294,0.01676119,0.95083014,0.05910384,0.30348163,0.01810180
1761618734651,-0.24328426,-0.06004892,-0.35922442,0.00577419,0.05033671,0.00011225,0.95073810,0.05913617,0.30376351,0.01810242
1761618734662,0.13890957,0.38729735,0.20708151,-0.01516904,0.03657081,0.01659783,0.95067671,0.05905198,0.30396648,0.01819454
1761618734673,0.10854802,-0.31198303,-0.21698249,0.02111351,0.02101718,-0.00592832,0.95063195,0.05917128,0.30408523,0.01816105
1761618734684,-0.08208553,0.34717973,0.19379683,-0.00903846,0.01217466,0.00459018,0.95061314,0.05912156,0.30415219,0.01818629
1761618734695,0.13943921,0.13104283,-0.05073030,-0.00571778,0.00562467,0.02112236,0.95060278,0.05908954,0.30418369,0.01830458
1761618734706,-0.15182647,0.28657796,0.36149830,0.01828745,0.00644673,-0.00109363,0.95058529,0.05919013,0.30421915,0.01829856
1761618734718,-0.00673870,0.24757586,0.08638492,0.06271305,-0.01932967,-0.00713864,0.95059877,0.05954132,0.30411090,0.01825859
1761618734729,-0.19101616,0.21566532,0.05797008,0.05887393,-0.01396845,-0.01963085,0.95060519,0.05987101,0.30403268,0.01814865
1761618734740,0.20051945,0.05137717,-0.10691203,0.06221441,-0.01057954,-0.01017269,0.95060321,0.06021941,0.30397343,0.01809169
1761618734751,0.04360793,-0.19473148,-0.26229548,0.06079765,-0.01277640,-0.00885892,0.95060538,0.06055684,0.30390252,0.01804252
1761618734762,0.05466533,-0.01714873,-0.01469158,0.04914102,-0.00771225,-0.00928833,0.95060260,0.06083203,0.30385933,0.01799051
1761618734773,-0.21963780,-0.10514971,0.00466487,0.05226306,-0.01405442,-0.02256160,0.95061129,0.06112209,0.30378133,0.01786529
1761618734785,-0.00736774,-0.15526399,-0.06276457,0.05037419,-0.00441883,-0.01817142,0.95060285,0.06140670,0.30375636,0.01776262
1761618734796,-0.13859644,0.11143872,0.07695711,0.06337907,-0.01128678,-0.01515418,0.95060164,0.06175846,0.30369372,0.01767851
1761618734807,0.13642164,-0.01064282,0.04595764,0.07284737,0.00609805,-0.00023806,0.95056450,0.06216276,0.30372757,0.01767719
1761618734818,-0.07588935,-0.19701190,0.05900174,0.09613504,0.00725612,0.00153286,0.95051600,0.06270112,0.30376820,0.01768578
1761618734829,0.00950329,0.08107496,0.12876960,0.08738840,0.01506500,0.01635227,0.95045492,0.06319049,0.30385257,0.01777735
1761618734840,-0.06556739,-0.31175501,-0.26734909,0.09355863,0.02229332,0.01875454,0.95037873,0.06370974,0.30397629,0.01788144
1761618734852,-0.31134838,0.32447373,-0.09093623,0.05985335,0.02759875,-0.01287489,0.95030811,0.06404492,0.30413085,0.01780934
1761618734863,0.03260228,-0.41719573,-0.12593863,0.05356973,0.03296252,0.00893683,0.95022853,0.06434223,0.30431379,0.01785894
1761618734874,-0.05131777,-0.02112663,0.12814033,0.02578210,0.04199629,0.00923715,0.95014242,0.06448661,0.30454897,0.01791067
1761618734885,-0.00570197,-0.16743612,-0.10548654,0.03080487,0.05578650,0.00526017,0.95002994,0.06465912,0.30486137,0.01794012
1761618734896,-0.21287373,0.10750599,0.08695512,0.01876329,0.04152025,-0.00210783,0.94994836,0.06476419,0.30509389,0.01792832
1761618734907,0.09123160,0.16767370,-0.17295991,0.04315291,0.05338650,-0.00943243,0.94983678,0.06500585,0.30539285,0.01787550
1761618734919,-0.16488038,0.04787020,0.31736658,0.06753943,0.04267919,0.00886666,0.94973486,0.06537732,0.30562759,0.01792426
1761618734930,-0.08895081,0.12125228,0.00856160,0.04356865,0.02721609,0.01781255,0.94966709,0.06562130,0.30578000,0.01802401
1761618734941,0.18531419,-0.08125314,-0.30315500,0.02797184,0.03527403,0.02462023,0.94959000,0.06577794,0.30597753,0.01816189
1761618734952,0.09503292,-0.39212957,-0.24993657,0.03083054,0.02980147,0.03059822,0.94952094,0.06595060,0.30614442,0.01833324
1761618734963,0.04508514,-0.17132234,-0.01898344,0.00888080,0.03928225,0.01964754,0.94944508,0.06599988,0.30636244,0.01844228
1761618734974,0.04160376,0.13769152,0.03483106,-0.02356787,0.02287040,0.03262350,0.94940966,0.06586908,0.30648937,0.01862334
1761618734985,0.26837401,0.06199609,-0.11770486,-0.03508274,0.02636663,0.03234057,0.94937270,0.06567613,0.30663438,0.01880122
1761618734997,-0.12981968,0.09316301,-0.01262506,-0.02006078,0.01875328,0.01339039,0.94934455,0.06556178,0.30674128,0.01887754
1761618735008,-0.10584858,0.03922222,0.04214758,-0.02133989,0.00876670,0.01006941,0.94933597,0.06544441,0.30678949,0.01893292
1761618735019,0.17169856,0.02743643,0.13549966,-0.01138690,0.00981544,0.00773675,0.94932173,0.06538064,0.30684446,0.01897625
1761618735030,0.18603343,0.08472901,-0.01404645,-0.00980264,0.00139610,-0.00456230,0.94932348,0.06532624,0.30685221,0.01895093
1761618735041,-0.09337518,0.07698753,-0.10661777,-0.01785231,-0.00498437,-0.00043119,0.94933957,0.06522537,0.30682405,0.01894849
1761618735052,0.31858602,-0.24596888,-0.15859552,-0.00999943,-0.01994360,-0.00272203,0.94937909,0.06517038,0.30671436,0.01893352
1761618735063,-0.00671331,0.01689574,0.03722028,-0.00551150,-0.02204085,-0.00970111,0.94942254,0.06513924,0.30658983,0.01887871
1761618735075,0.05226810,0.03918373,-0.05442527,-0.00190634,-0.03158937,-0.00719938,0.94948118,0.06512856,0.30641292,0.01883839
1761618735086,-0.21479135,-0.03416206,-0.03109540,0.02571751,-0.04058225,-0.01019830,0.94954458,0.06527001,0.30618972,0.01878230
1761618735097,0.22203919,0.07851775,0.03199444,0.01356600,-0.01833536,-0.00145975,0.94957237,0.06534530,0.30608796,0.01877420
1761618735108,-0.10223316,-0.03689963,-0.01827457,0.02641697,-0.01664418,0.00220140,0.94959197,0.06549323,0.30599475,0.01878653
1761618735119,-0.16775404,-0.08419287,0.07552344,0.03809800,-0.01282010,0.00570928,0.94959966,0.06570468,0.30592360,0.01881821
1761618735130,0.04461410,-0.10300155,0.00022688,0.03030405,0.00255467,0.01007458,0.94958218,0.06587438,0.30593791,0.01887463
1761618735142,0.03136086,-0.00029698,0.00855296,-0.00191198,-0.01096839,0.01608827,0.94960091,0.06586367,0.30587649,0.01896473
1761618735153,0.10101826,-0.06063493,-0.11262076,0.00924240,-0.01263764,0.03175632,0.94961627,0.06591451,0.30580698,0.01913939
1761618735164,0.01577756,0.08740411,-0.07507285,0.01112469,-0.00832264,0.04430661,0.94962196,0.06597736,0.30575996,0.01938972
1761618735175,-0.04385811,0.06800425,-0.06595957,0.03583496,0.01038947,0.05426991,0.94958301,0.06617804,0.30581814,0.01969363
1761618735186,-0.14445003,0.09598324,-0.03753800,0.04060213,0.00586104,0.04946498,0.94955078,0.06640541,0.30585096,0.01997063
1761618735197,0.06973986,0.14474174,0.02623991,0.00611468,0.01441726,0.06399441,0.94951509,0.06643935,0.30593097,0.02032580
1761618735209,0.14614368,0.07192641,-0.07583474,0.01723753,-0.01425890,0.02380551,0.94953134,0.06653674,0.30585041,0.02046030
1761618735220,0.26338862,0.18485973,-0.03010965,0.02856949,-0.04029352,0.01413779,0.94958999,0.06669387,0.30562880,0.02053806
1761618735231,0.18047615,0.14565522,-0.10333534,0.05129820,-0.05775939,0.01657445,0.94967181,0.06698114,0.30530534,0.02063088
1761618735242,0.08407909,0.10705456,-0.06958033,0.04156720,-0.04980564,0.02265189,0.94974410,0.06722015,0.30501896,0.02076113
1761618735253,-0.00269599,0.19582112,0.03045854,0.04382730,-0.05350157,0.03305019,0.94981681,0.06745901,0.30472738,0.02094125
1761618735264,0.03033207,0.01809985,-0.06511063,0.07018611,-0.04029055,0.01915273,0.94985880,0.06785205,0.30450175,0.02104851
1761618735276,0.02458426,-0.01476005,-0.05233251,0.07566865,-0.04489716,0.00632697,0.94990998,0.06829093,0.30424135,0.02108520
1761618735287,0.07518101,-0.12727137,0.04512389,0.08118692,-0.05698754,0.01312859,0.94997650,0.06873746,0.30392792,0.02115741
1761618735298,0.08990980,-0.17377913,-0.02219810,0.04702091,-0.06594246,0.00426347,0.95007670,0.06900548,0.30355204,0.02118171
1761618735310,0.07812706,-0.34224146,-0.04687457,0.02924161,-0.07831833,-0.00647949,0.95020562,0.06916923,0.30311346,0.02114543
1761618735321,-0.00048376,-0.20323990,-0.04320274,0.02466035,-0.06336821,-0.01068040,0.95030722,0.06930363,0.30276810,0.02108722
1761618735332,-0.08192044,-0.01085863,-0.03918938,0.02886929,-0.06626868,0.00450659,0.95041207,0.06946385,0.30240031,0.02111223
1761618735343,0.00967529,0.02703035,0.03870117,0.02842880,-0.05584111,-0.00169824,0.95049929,0.06962163,0.30209040,0.02110280
1761618735354,-0.07779022,0.00569560,0.00280496,0.02366576,-0.05986625,-0.00287986,0.95059728,0.06975535,0.30175215,0.02108653
1761618735367,0.04068969,-0.03135652,-0.09855199,0.02591728,-0.05139673,0.00294323,0.95068831,0.06991992,0.30142578,0.02110522
1761618735378,-0.00465322,0.10911120,0.09255710,0.05360169,-0.05127685,-0.00124821,0.95075796,0.07022277,0.30113607,0.02109817
1761618735386,-0.21248525,0.27394357,0.37384701,0.09113163,-0.05537764,0.00051256,0.95080159,0.07059185,0.30091179,0.02110025
1761618735397,0.00376261,-0.15814849,-0.27889929,0.04734724,-0.03845067,0.01615950,0.95084756,0.07085463,0.30069839,0.02118993
1761618735409,-0.05490481,-0.06202286,0.32433619,-0.00487005,-0.00726907,0.03302780,0.95085842,0.07082711,0.30065732,0.02137654
1761618735420,-0.20725556,-0.13414429,0.30481504,0.01962581,-0.00474797,0.02959524,0.95085487,0.07093800,0.30063049,0.02154375
1761618735431,0.01607991,-0.07126102,0.03992223,0.02065362,0.01606433,0.03234571,0.95081366,0.07105366,0.30072045,0.02172489
1761618735442,0.02660922,0.05298085,-0.17343507,-0.01479720,0.01551913,0.02733237,0.95078885,0.07097080,0.30080736,0.02187795
1761618735453,0.11453070,0.04904336,-0.26537531,0.00591192,0.02266115,0.01727354,0.95074359,0.07100420,0.30093539,0.02197554
1761618735465,0.01452412,0.11699179,-0.01001232,0.00686074,0.02230591,0.02571837,0.95069538,0.07104468,0.30106700,0.02212728
1761618735476,-0.02619966,0.20132535,0.07400694,0.01416238,0.02510191,0.02544734,0.95064255,0.07112257,0.30120506,0.02226724
1761618735487,0.04236363,0.14439348,-0.11920929,0.02055344,0.03330041,0.02264079,0.95057311,0.07123561,0.30138821,0.02239177
1761618735499,0.12934997,0.06639583,-0.14071982,0.03435540,0.02873394,0.02449163,0.95050256,0.07143316,0.30155343,0.02253259
1761618735510,-0.05535109,-0.23855908,0.05414378,0.03407845,0.00358850,0.01665216,0.95047981,0.07162229,0.30157335,0.02262501
1761618735521,0.18548615,-0.27232487,0.09656217,0.01610617,0.00142464,0.00483755,0.95047010,0.07171007,0.30158111,0.02265138
1761618735532,0.20680274,-0.17607314,-0.03144914,-0.01847188,-0.01055100,0.01782271,0.95049405,0.07160755,0.30152255,0.02275029
1761618735543,0.18576563,0.08840799,-0.19205457,-0.00084636,-0.00724058,0.01830712,0.95050471,0.07160286,0.30148237,0.02285190
1761618735554,0.02835781,0.11793452,-0.20179751,0.01979442,-0.05000199,0.01143637,0.95058217,0.07171172,0.30120736,0.02291480
1761618735565,0.06587715,0.13960744,-0.10432772,0.03180728,-0.02911273,-0.00004024,0.95062105,0.07189303,0.30104142,0.02291457
1761618735576,-0.07910989,0.09188725,-0.08251488,0.04220520,-0.05030278,0.00031591,0.95069100,0.07212515,0.30076475,0.02291631
1761618735588,0.09608692,-0.06725199,-0.11793585,0.03098129,-0.03019020,-0.01271317,0.95073300,0.07229865,0.30059568,0.02284511
1761618735599,-0.05400614,-0.12909867,-0.05922838,0.01648412,-0.04517032,-0.01756346,0.95080895,0.07239179,0.30034047,0.02274588
1761618735610,0.01647518,-0.18804954,0.14291100,-0.01157735,-0.04865121,-0.00919008,0.95090113,0.07232695,0.30006803,0.02269441
1761618735621,-0.01166146,-0.19836776,0.04086929,0.01182849,-0.05045866,-0.02391936,0.95098918,0.07239378,0.29978293,0.02255927
1761618735632,0.09361917,0.13994017,0.00988935,0.02687464,-0.05152782,-0.01892979,0.95107040,0.07254294,0.29949695,0.02245421
1761618735644,0.03872377,0.22466723,-0.16982639,0.04156084,-0.05233532,-0.02299438,0.95114789,0.07277568,0.29920388,0.02232544
1761618735655,-0.00371210,0.15925946,-0.05101932,0.03638528,-0.05387482,-0.00796856,0.95122675,0.07297580,0.29890757,0.02228161
1761618735666,-0.02605847,-0.00628927,0.03093419,0.02978351,-0.03476470,-0.00451781,0.95127700,0.07314705,0.29870767,0.02225564
1761618735677,0.02305985,0.00367099,0.01265107,0.02979871,-0.03988882,0.00926721,0.95133155,0.07330946,0.29849027,0.02230614
1761618735688,-0.03297589,-0.11855785,-0.01557811,0.03235378,-0.02740472,-0.00956473,0.95136665,0.07348902,0.29833818,0.02225306
1761618735700,-0.05154037,-0.11906618,0.07896722,0.00975392,-0.02932233,-0.00351300,0.95141436,0.07354364,0.29817397,0.02223339
1761618735711,-0.37252903,-0.17486057,0.19054100,0.00927044,-0.02847257,-0.00160991,0.95146052,0.07359556,0.29801453,0.02222437
1761618735722,-0.09123160,0.06450359,0.11356433,0.00831270,-0.01782291,0.01724909,0.95148591,0.07364211,0.29791472,0.02232097
1761618735733,-0.07505345,0.10023520,-0.01727546,0.05149345,-0.01195770,0.02572627,0.95148108,0.07393304,0.29784716,0.02246632
1761618735744,0.19609854,0.16262188,-0.09997608,0.06609783,-0.00293036,0.02471874,0.95145458,0.07429658,0.29783104,0.02260227
1761618735755,0.02472584,0.07942916,-0.02455305,0.05651811,0.00227915,0.02934235,0.95142190,0.07461308,0.29784380,0.02276659
1761618735767,0.04423855,-0.12497488,-0.04045482,0.06637553,-0.00182272,0.04265447,0.95139041,0.07498147,0.29783369,0.02300332
1761618735778,0.03503376,-0.08503520,0.00398111,0.03672336,-0.00801477,0.05873618,0.95138022,0.07518712,0.29778880,0.02333224
1761618735789,-0.01793385,-0.19732199,0.03952185,0.01716821,-0.00528498,0.06523713,0.95137292,0.07528240,0.29775947,0.02369431
1761618735800,0.04740894,-0.06367552,0.00532141,0.00088523,-0.00071135,0.06169731,0.95136518,0.07528732,0.29775553,0.02403673
1761618735811,0.06962231,0.05915745,0.38510591,0.02398329,-0.00340467,0.03825219,0.95135507,0.07542162,0.29773646,0.02425094
1761618735822,0.13589707,0.16458513,0.12306763,0.03099732,-0.00666749,0.04702254,0.95134623,0.07559521,0.29769912,0.02451427
1761618735833,-0.00475165,0.14332152,-0.05892041,0.04075823,-0.00234835,0.02663438,0.95132833,0.07582345,0.29768597,0.02466342
1761618735844,-0.01847251,0.07274322,-0.41233290,0.05081216,0.01438925,0.03039476,0.95127689,0.07610292,0.29776511,0.02483059
1761618735856,-0.09463143,-0.02916176,-0.13447847,0.04422366,0.02625194,0.01413475,0.95120834,0.07635278,0.29791343,0.02491045
1761618735867,0.01462425,-0.03894252,0.11447242,0.01139885,0.03980130,0.00359209,0.95113353,0.07641605,0.29813433,0.02493039
1761618735878,0.09722467,-0.13112777,0.00477733,-0.01220223,0.04768187,0.01717177,0.95105275,0.07634771,0.29840135,0.02502655
1761618735889,0.04993142,-0.15661935,0.06532551,-0.01598456,0.03584855,0.00230363,0.95099708,0.07625900,0.29860031,0.02503934
1761618735900,0.03984533,-0.06388930,-0.06949389,-0.01314563,0.04044279,-0.01118700,0.95093349,0.07618538,0.29882679,0.02497669
1761618735911,-0.14372994,0.02721500,0.33232041,-0.01493156,0.04743287,-0.01129186,0.95085900,0.07610251,0.29909004,0.02491402
1761618735923,-0.11689981,0.22486433,0.02041268,0.01099886,0.04068841,-0.02487513,0.95078536,0.07616466,0.29931993,0.02477348
1761618735934,-0.06937403,0.21555915,-0.11711756,0.04915112,0.03906202,-0.02810069,0.95069846,0.07643990,0.29953868,0.02461611
1761618735945,0.09837415,0.22160778,-0.43447312,0.04719973,0.03342222,-0.06287949,0.95062915,0.07669714,0.29972083,0.02427342
1761618735956,0.02428174,-0.01856354,-0.02450871,0.00338098,0.03237178,-0.04180011,0.95057592,0.07671625,0.29990373,0.02403725
1761618735967,-0.02617321,-0.10512931,0.01021383,0.01303274,0.01392359,-0.01422900,0.95054794,0.07678793,0.29998031,0.02395899
1761618735978,0.00960742,-0.05537901,-0.00200720,0.00375292,0.02354099,-0.01183193,0.95050593,0.07680913,0.30011332,0.02389214
1761618735990,-0.07580121,-0.07506808,0.02715076,0.01559886,0.01371326,0.00249014,0.95047455,0.07689570,0.30018943,0.02390596
1761618736001,-0.00249140,-0.05215627,-0.02830440,0.01357351,0.01214916,0.01110241,0.95044534,0.07697171,0.30025746,0.02396813
1761618736022,-0.01561280,-0.09372067,-0.04553637,0.00589391,0.00476865,0.00407978,0.95042311,0.07703449,0.30030825,0.02401158
1761618736032,-0.10533819,0.16481791,0.47895557,0.02383908,-0.01774820,0.02346337,0.95043835,0.07715249,0.30022039,0.02412772
1761618736044,0.03808436,-0.03497583,-0.34343971,0.00552947,-0.00698689,0.00755575,0.95044798,0.07718649,0.30017742,0.02417419
1761618736055,-0.13291628,0.02635415,-0.05732015,0.01844736,-0.00741457,-0.00319318,0.95045283,0.07728334,0.30013850,0.02415743
1761618736069,0.01798842,0.00023770,-0.03046040,0.01679017,-0.00447097,-0.00792682,0.95045457,0.07740171,0.30010698,0.02410154
1761618736106,0.01781189,-0.05037904,-0.03117301,0.01653462,-0.00490474,-0.00327988,0.95045975,0.07770512,0.30001697,0.02404136
1761618736111,-0.60354551,0.28881223,1.78595536,0.07318623,-0.12930544,0.02974898,0.95056018,0.07792102,0.29963552,0.02412912
1761618736124,0.43006164,-0.21999225,-0.67075433,-0.00781240,-0.03125480,0.01138193,0.95062291,0.07787298,0.29944331,0.02419912
1761618736135,-0.03372912,0.07732157,-0.09762966,0.03230010,-0.03469219,-0.00020053,0.95067134,0.07806193,0.29924036,0.02419794
1761618736147,-0.07917569,0.13132975,-0.13892892,0.02425708,-0.03135942,-0.03193711,0.95072344,0.07820748,0.29905220,0.02400632
1761618736160,-0.04946359,-0.05879654,0.00620839,-0.01189710,-0.03494866,-0.02257515,0.95079928,0.07813550,0.29884076,0.02386974
1761618736172,-0.01052615,-0.03742377,-0.00305071,-0.01048051,-0.03247578,-0.00715684,0.95086619,0.07807314,0.29864753,0.02382716
1761618736183,0.06005229,0.03134948,-0.02619149,-0.00812558,-0.02702620,-0.00522378,0.95092096,0.07802520,0.29848808,0.02379634
1761618736195,0.01200655,0.00327050,-0.01317296,0.01014326,-0.03615207,0.00195730,0.95098321,0.07808555,0.29827297,0.02380798
1761618736207,0.04568812,0.05471016,0.03415256,0.00489050,-0.03361467,0.01173019,0.95104030,0.07811392,0.29807801,0.02387602
1761618736218,0.05226923,-0.02552555,0.22103684,0.01556199,-0.04807764,0.02647700,0.95111637,0.07820417,0.29779916,0.02402959
1761618736230,-0.07228243,0.09909160,-0.03064738,-0.00703586,-0.05724612,0.01759473,0.95122013,0.07816372,0.29746999,0.02413076
1761618736242,0.03245010,-0.07285901,-0.24397236,0.01864033,-0.04790379,0.01017602,0.95129857,0.07827463,0.29718496,0.02419130
1761618736254,-0.04712187,-0.05338842,-0.24144568,-0.00011215,-0.04943161,-0.00326197,0.95139250,0.07827395,0.29688590,0.02417157
1761618736265,-0.02767408,-0.13779924,-0.12030825,-0.00326298,-0.05959364,-0.01879636,0.95149592,0.07825649,0.29656708,0.02407101
1761618736276,0.02216170,-0.09228572,-0.01113757,-0.00694802,-0.05101808,-0.00013479,0.95158896,0.07821724,0.29627882,0.02407025
1761618736391,0.00073716,0.00889419,0.04154304,-0.00251674,-0.00369581,0.00050172,0.95166605,0.07807290,0.29606687,0.02409902
1761618736411,-0.66051893,-0.82357141,-1.68396349,-0.15292535,-0.21075413,0.08469249,0.95245153,0.07648248,0.29387503,0.02497982
1761618736433,0.38721362,0.63251028,1.33578359,0.00589691,-0.04104013,0.01666239,0.95257656,0.07654528,0.29343795,0.02515728
1761618736457,0.16596570,0.05673072,0.00820598,-0.00515851,-0.01980228,0.00134089,0.95265589,0.07648209,0.29319537,0.02517370
1761618736497,0.05574527,-0.00565808,0.08289441,-0.02144380,-0.01355692,0.00356173,0.95277030,0.07605857,0.29292762,0.02524405
1761618736500,4.95652542,-6.75738884,-9.18341737,-0.23223277,-0.21659098,0.02538528,0.95292635,0.07562894,0.29252693,0.02529101
1761618736525,-0.60803622,1.05262613,1.27498399,-0.00622931,-0.03815191,-0.00819656,0.95307840,0.07555263,0.29205957,0.02519060
1761618736536,0.31558936,0.12059352,-0.57607633,0.00465855,-0.07973955,-0.03335464,0.95321922,0.07557895,0.29160904,0.02500215
1761618736580,-0.13599589,0.02163653,0.21778061,-0.00290541,-0.01952635,-0.01353365,0.95336205,0.07551562,0.29118336,0.02470711
1761618736582,34.10003441,-11.71033757,-51.38533800,-0.34897145,-0.83500570,-0.36477524,0.95366819,0.07514920,0.29030661,0.02432410
1761618736611,-2.30169140,0.75406387,3.60762853,-0.03288113,-0.06010503,-0.00345651,0.95397386,0.07466913,0.28942908,0.02427363
1761618736638,-0.04885270,0.09959456,-0.00304739,0.01844814,-0.04788218,-0.01281697,0.95415527,0.07491910,0.28878027,0.02409996
1761618736641,21.60589633,11.48687078,-29.65589291,0.25939432,-0.51509570,-0.19197005,0.95433042,0.07524335,0.28813640,0.02386000
1761618736679,-1.48249790,-0.75302009,1.97987549,0.00134383,-0.03056585,-0.01497053,0.95451299,0.07526922,0.28754801,0.02357182
1761618736683,6.71772546,-3.77943944,-14.95195774,-0.27400156,-0.50790724,-0.14878421,0.95485989,0.07473491,0.28655759,0.02328169
1761618736725,-0.63786827,0.30676500,1.42447893,-0.01847075,-0.02262404,0.00445361,0.95502830,0.07435165,0.28608814,0.02337410
1761618736727,20.04139832,-24.13082648,-40.73242442,-0.36012833,-0.71507839,0.18493171,0.95530117,0.07393750,0.28526580,0.02358677
1761618736749,-1.99665244,2.56024411,4.08254837,-0.00402926,-0.06136181,-0.00632452,0.95550480,0.07389378,0.28460003,0.02351815
1761618736765,-0.10220694,0.05633240,0.23688222,-0.02246889,-0.04857516,-0.00783608,0.95563752,0.07371178,0.28420657,0.02345468
1761618736790,0.00764874,-0.02081648,0.10959860,-0.02659872,-0.02050821,0.00476717,0.95574025,0.07337132,0.28394406,0.02351570
1761618736792,36.49168931,-26.00795502,-18.20426775,-0.14618101,-0.42749505,0.06668252,0.95583581,0.07326899,0.28364482,0.02356238
1761618736805,-3.55343199,2.62613474,1.86142164,-0.00557778,-0.03734005,0.00325085,0.95591291,0.07323134,0.28339277,0.02358432
1761618736834,-0.12839127,0.02915666,0.09076906,0.00806206,-0.01271061,0.00256617,0.95595657,0.07334542,0.28321291,0.02362063
1761618736835,39.56016250,-15.21506451,15.44515824,-0.01734010,-0.36713653,0.15475016,0.95604684,0.07333068,0.28290085,0.02375217
1761618736865,-2.28100497,0.89887676,-0.92329250,-0.00229690,-0.01493488,0.00088141,0.95611404,0.07329692,0.28268131,0.02376513
1761618736867,33.74934561,-7.40700761,-3.09058625,-0.03921091,-0.41217320,-0.02436854,0.95623315,0.07325967,0.28228974,0.02374198
1761618736905,-1.65266897,0.37461084,0.15840192,-0.00325826,-0.01110552,0.00187119,0.95630084,0.07319629,0.28207374,0.02377837
1761618736939,0.10879413,0.03647207,0.03456644,0.01306916,-0.01087922,0.01862488,0.95632981,0.07341389,0.28189260,0.02408848
1761618736949,2.66352565,0.60347647,1.83165686,-0.01173868,-0.07343397,0.03643388,0.95643894,0.07335461,0.28152176,0.02427247
1761618736971,-1.02617982,-0.18548648,-0.80171540,0.02944632,-0.03792816,-0.01293704,0.95654127,0.07368147,0.28110076,0.02412887
1761618736994,0.03651424,0.07356472,-0.03309826,0.03967327,-0.02310587,-0.00408461,0.95658563,0.07414168,0.28083273,0.02408148
1761618737025,-0.15896426,-0.08356365,-0.01631220,0.00815930,-0.02139594,0.00464490,0.95667131,0.07426815,0.28050109,0.02415348
1761618737037,2.37272279,0.12575680,0.87220002,0.02777092,-0.09058797,-0.00371393,0.95681079,0.07442644,0.27998474,0.02413231
1761618737060,-0.94774571,-0.11723436,-0.38553519,0.00636384,-0.03584730,-0.00211659,0.95692674,0.07449994,0.27957070,0.02410786
1761618737071,1.07975144,0.09780850,-0.09277607,0.01094354,-0.09992970,-0.03398680,0.95709589,0.07456342,0.27899111,0.02391074
1761618737094,-0.63473252,-0.11559323,-0.01508744,-0.00506263,-0.03308231,-0.00240553,0.95721142,0.07450545,0.27861232,0.02388320
1761618737131,-0.07518955,0.00546027,0.00892595,-0.00526364,-0.02401545,-0.00000737,0.95734673,0.07440912,0.27817284,0.02388306
1761618737142,2.58032964,-0.23659350,-0.11430622,0.00085183,-0.09288521,-0.02758981,0.95750394,0.07441398,0.27764339,0.02372580
1761618737158,-1.30793115,0.01630757,0.08643473,-0.04102806,-0.05780760,-0.03101916,0.95766431,0.07409601,0.27719538,0.02348540
1761618737192,-0.25536423,0.05963987,0.00028232,-0.00553310,-0.02337093,-0.01657312,0.95779602,0.07400001,0.27678990,0.02319786
1761618737204,0.54525376,0.14991577,0.14128940,0.01289575,-0.04475789,-0.03687578,0.95787101,0.07407545,0.27652806,0.02298214
1761618737215,0.19048297,0.03436356,0.69067632,0.02472776,-0.05371884,-0.02276720,0.95795085,0.07421517,0.27622455,0.02285350
1761618737227,-0.27260641,-0.21565781,0.32675426,0.01836046,-0.02194173,-0.01053225,0.95797996,0.07431890,0.27610058,0.02279399
1761618737260,-0.27806367,0.02141567,-0.30409862,-0.00461363,-0.01011153,0.00080827,0.95803329,0.07424324,0.27593475,0.02280725
1761618737271,0.68720387,-0.39233383,0.39744620,-0.02802234,-0.04371530,-0.02070432,0.95811867,0.07408631,0.27568994,0.02269131
1761618737282,-0.19235156,-0.14015059,0.11813167,-0.06068436,-0.03935813,0.00992383,0.95820774,0.07374345,0.27546757,0.02274737
1761618737293,-0.30145817,0.28368945,-0.16286601,-0.02224289,-0.02774533,0.01530258,0.95825947,0.07362000,0.27531358,0.02283230
1761618737305,-0.13379775,0.16147374,-0.06630028,-0.00542017,-0.01061851,0.02727929,0.95827579,0.07358856,0.27525200,0.02299052
1761618737316,0.05371456,-0.13210216,0.32181193,0.02337805,0.00056710,-0.00735444,0.95826590,0.07371831,0.27525514,0.02294971
1761618737326,0.10407458,-0.01161572,0.12964314,-0.01163681,-0.00555975,0.01246066,0.95827664,0.07366129,0.27522790,0.02301076
1761618737336,-0.18048172,0.06874569,-0.13935032,-0.00936676,-0.00773668,0.01234044,0.95829092,0.07361071,0.27518612,0.02307740
1761618737349,-0.03233491,0.04356288,-0.18147959,-0.01493060,0.00120233,-0.00184937,0.95829604,0.07352038,0.27519340,0.02306621
1761618737359,-0.08981635,0.04126896,-0.15507194,-0.00254208,0.00057216,-0.02070456,0.95829881,0.07350703,0.27519640,0.02295751
1761618737371,-0.17245964,0.07527572,-0.16053394,0.00748940,-0.00317057,-0.04859469,0.95830769,0.07355159,0.27517754,0.02266838
1761618737382,0.00083618,0.12529332,0.11694912,-0.02120421,0.00377722,-0.06224279,0.95831871,0.07343497,0.27519831,0.02232604
1761618737394,-0.02554214,-0.05927099,-0.05717858,-0.01558145,0.00144138,-0.00427461,0.95832407,0.07333992,0.27520710,0.02229997
1761618737406,0.02082810,-0.09324666,0.03005261,-0.02486771,0.02356839,0.00128452,0.95829590,0.07319694,0.27534262,0.02230735
1761618737425,-0.01436024,0.04230450,-0.01740495,-0.03154615,0.00846778,0.00722027,0.95829395,0.07288463,0.27542645,0.02237883
1761618737427,-0.98717632,-13.60584851,78.24182829,-0.48440104,0.10765946,-0.02496482,0.95829811,0.07256977,0.27549643,0.02236261
1761618737436,0.18503862,1.72924974,-10.53428086,-0.02290380,-0.00148506,-0.00443399,0.95830874,0.07246212,0.27548945,0.02234177
1761618737458,-0.00104377,0.01250761,-0.19510940,-0.01123450,-0.01439338,-0.00490048,0.95836382,0.07234079,0.27533400,0.02228884
1761618737491,-0.00859206,0.01974873,-0.04088540,-0.00028504,-0.00708804,-0.00203321,0.95839875,0.07233606,0.27521634,0.02225509
1761618737501,-0.34174978,-0.64077732,1.97191710,-0.05820522,-0.02361984,0.00256916,0.95845484,0.07204212,0.27509706,0.02226806
1761618737512,0.27254655,0.03888892,-1.06214178,-0.06627815,-0.05070038,0.00799244,0.95856017,0.07168090,0.27482074,0.02231162
1761618737534,0.11953915,0.16482370,-0.35231401,-0.00911582,-0.02832594,0.00335415,0.95865652,0.07158017,0.27450774,0.02234869
1761618737537,2.08235932,-0.72758918,3.95751516,-0.11567657,-0.13337427,0.03757968,0.95872999,0.07139509,0.27429434,0.02240881
1761618737566,-0.30300777,0.15763988,-0.47786400,0.00538629,-0.01108406,-0.00233045,0.95877008,0.07147158,0.27413695,0.02237572
1761618737578,-0.09238738,-0.14159424,0.56866647,0.00294261,-0.04212800,-0.02339042,0.95884859,0.07149026,0.27386944,0.02222719
1761618737590,0.14455830,-0.06532695,-0.04981377,-0.03463386,-0.04981683,-0.03726677,0.95895101,0.07128939,0.27358050,0.02201104
1761618737600,0.21307881,0.03927038,0.19166112,-0.04827728,-0.05993184,0.00802883,0.95905447,0.07104559,0.27327784,0.02205159
1761618737611,-0.08750729,0.15689924,-0.16542454,-0.00974569,-0.03081702,-0.00201380,0.95910840,0.07099052,0.27310373,0.02204021
1761618737629,-0.12054843,0.17229865,-0.23414711,0.00601770,-0.02792439,-0.00065945,0.95917418,0.07104318,0.27285939,0.02203444
1761618737642,0.00480872,0.08178681,0.09173705,0.00501436,-0.02701207,-0.00579963,0.95922330,0.07107627,0.27268111,0.02199616
1761618737644,-3.30069539,6.19458895,21.09678209,0.02379864,-0.33327157,-0.03038753,0.95931224,0.07109888,0.27236450,0.02196730
1761618737666,0.29450877,-0.68770409,-1.86517105,-0.00327983,-0.02278511,-0.00066897,0.95938822,0.07106182,0.27210703,0.02195974
1761618737679,0.04841817,-0.04982297,0.52752962,-0.01472590,-0.04812657,-0.00081150,0.95947967,0.07097052,0.27180865,0.02195471
1761618737731,-0.01205539,0.01831931,-0.15258545,0.00176354,-0.01109751,0.00207285,0.95955747,0.07101681,0.27151734,0.02200912
1761618737740,0.20013649,-1.06351210,4.67488014,-0.05942995,-0.26635732,-0.03079029,0.95991073,0.07075532,0.27034536,0.02187364
1761618737802,-0.04237480,0.13150432,-0.63045984,-0.01046362,-0.02094817,0.00303998,0.96011311,0.07043409,0.26970226,0.02196697
1761618737831,-0.05084047,0.04887238,0.12064814,-0.00346069,-0.04043573,0.00408691,0.96028051,0.07038373,0.26911392,0.02202643
1761618737847,-0.20114167,0.27081224,0.25563444,0.01298648,-0.09664412,0.00519260,0.96048828,0.07048762,0.26834076,0.02206797
1761618737871,0.18136312,-0.26048013,-0.23128625,-0.03036718,-0.04680397,0.01193809,0.96067363,0.07011259,0.26776273,0.02221541
1761618737906,0.03327677,0.05031543,-0.06526368,-0.01173805,-0.03710010,0.00742717,0.96086411,0.06990952,0.26712090,0.02234390
1761618737928,-0.03132435,0.10151059,-0.01221114,0.01931714,-0.06341478,0.00112594,0.96104118,0.07012104,0.26642651,0.02235623
1761618737939,-0.16581567,-0.13621367,0.13491995,0.02070772,-0.11657612,-0.00853968,0.96120993,0.07023390,0.26579117,0.02230969
1761618737972,0.04144200,-0.02201684,-0.11873435,0.00066800,-0.03079108,0.00583865,0.96134806,0.07024499,0.26528004,0.02240661
1761618737973,-27.40868371,-27.72428458,41.50543135,0.04659138,-0.82423429,-0.10343689,0.96150638,0.07027760,0.26470307,0.02233420
1761618737995,1.70485140,1.72606988,-2.58627713,-0.01354153,-0.04127928,0.02012810,0.96163461,0.07013136,0.26425726,0.02255159
1761618738006,-0.23832143,0.11045157,0.11358193,-0.00149232,-0.03323242,0.03236953,0.96168207,0.07012300,0.26407116,0.02273285
1761618738038,0.07699352,0.02662875,-0.13275348,0.01825544,-0.01010875,0.00582270,0.96170273,0.07041235,0.26391093,0.02282514
1761618738039,-74.73623527,10.91836466,22.20256708,0.04524376,-0.07682139,0.21502874,0.96171158,0.07044402,0.26385716,0.02297566
1761618738062,4.45734256,-0.63433428,-1.36254326,0.01466644,-0.00675132,-0.00428878,0.96172147,0.07060902,0.26378121,0.02292742
1761618738072,-0.42610855,-0.13838437,0.13605025,-0.02239398,-0.03099663,-0.01790702,0.96177642,0.07049257,0.26362002,0.02283430
1761618738083,0.42679208,-0.05235822,-0.08493791,-0.04278362,-0.00553035,0.01168504,0.96180066,0.07025512,0.26358933,0.02289915
1761618738095,0.00569576,-0.04356112,-0.06332419,-0.03069124,-0.00981676,0.02552876,0.96182593,0.07007557,0.26353190,0.02304849
1761618738108,0.04166171,0.07727574,0.00967694,-0.00698010,-0.00248083,0.00195968,0.96183306,0.07003195,0.26351640,0.02306074
1761618738141,0.11896709,0.01266712,-0.03865845,0.00282017,-0.00390874,0.00512611,0.96184534,0.07007862,0.26345171,0.02314558
1761618738162,-0.14547036,-0.01894031,-0.08337721,-0.00445961,-0.01166002,0.02847765,0.96187518,0.07003157,0.26332869,0.02344602
1761618738173,-0.75133926,-0.58614366,0.16078641,-0.08001129,-0.01252807,0.01927146,0.96192383,0.06958751,0.26325916,0.02355298
1761618738195,0.35774397,0.13924864,-0.03495200,-0.02585858,-0.00937685,-0.00211715,0.96197360,0.06930048,0.26315508,0.02352948
1761618738196,-51.61255763,-29.89841856,-13.61876690,-0.10145728,0.00933412,0.09824124,0.96197513,0.06923453,0.26316115,0.02359333
1761618738240,1.59491538,0.93871458,0.37522179,-0.00025692,-0.00278218,0.00337581,0.96199049,0.06922887,0.26309980,0.02366777
1761618738275,-0.05691741,-0.10565499,-0.06205018,-0.03062139,-0.00908630,0.01594310,0.96206355,0.06870677,0.26294488,0.02393960
1761618738295,-0.10267008,0.04806430,-0.14888734,-0.02383758,-0.02785532,-0.02866892,0.96216472,0.06846601,0.26266354,0.02365004
1761618738318,0.20164141,0.11772558,0.09429198,-0.03052526,-0.02472423,0.00443716,0.96226551,0.06811650,0.26238045,0.02370085
1761618738353,-0.03136358,0.09046573,0.10364016,-0.00770270,-0.00802514,-0.00650819,0.96231685,0.06797978,0.26223800,0.02358533
1761618738374,-0.06724007,0.06755894,-0.26867461,-0.00816268,-0.02735285,-0.00217644,0.96239966,0.06789611,0.26195763,0.02356302
1761618738396,0.18272698,-0.14973427,0.03480820,-0.01466547,-0.01806155,-0.01423246,0.96246984,0.06773259,0.26175625,0.02340433
1761618738407,0.10304920,-0.23285337,-0.64924189,-0.05408916,-0.06171768,-0.01851661,0.96258440,0.06743780,0.26141989,0.02330341
1761618738429,0.07862391,0.19824801,0.27992861,-0.00721778,-0.01756253,-0.01517907,0.96264672,0.06735805,0.26122582,0.02313568
1761618738442,-0.02020984,0.06590293,-0.00534593,-0.01729762,-0.02369426,-0.02362255,0.96269881,0.06724821,0.26107536,0.02298568
1761618738461,-0.11908634,-0.15044415,0.15091038,-0.00517987,-0.01189725,-0.00017891,0.96273400,0.06719744,0.26095877,0.02298393
1761618738473,-0.03626051,0.02545970,-0.15929260,-0.00169493,-0.01795237,-0.01177579,0.96276401,0.06718778,0.26085644,0.02291680
1761618738484,-0.03588564,0.05178011,0.02999342,-0.00871956,-0.02632848,0.00357755,0.96280726,0.06713852,0.26070768,0.02293702
1761618738495,0.04400273,-0.12771754,-0.04902899,0.00809398,-0.01169356,0.00860947,0.96282044,0.06718303,0.26064337,0.02298437
1761618738507,0.03166171,0.01159295,0.12870158,-0.02551299,-0.01990333,0.00909621,0.96286143,0.06703251,0.26052594,0.02303804
1761618738538,0.00056303,0.00255986,0.06344481,-0.00834816,-0.00650988,-0.00223595,0.96289915,0.06690102,0.26042341,0.02300282
1761618738540,0.61520313,-9.66328478,-47.67163542,-0.32875778,-0.33204376,-0.02228663,0.96302350,0.06653939,0.26005816,0.02297831
1761618738560,-0.09913041,1.20049499,5.30235533,0.01303420,-0.01294146,0.00817691,0.96304639,0.06666387,0.25993457,0.02305640
1761618738573,-0.02081368,0.00207359,0.02627953,-0.00125965,-0.00799232,0.00734002,0.96306025,0.06665543,0.25988102,0.02310557
1761618738585,0.01966352,-0.06168703,0.02207148,0.00017509,0.00279416,0.01571085,0.96305321,0.06665650,0.25989821,0.02320219
1761618738619,-0.00302408,-0.00590149,0.10177199,0.00073076,-0.00058674,0.00225341,0.96305412,0.06666893,0.25988823,0.02324050
1761618738629,-0.37969661,-0.66758327,-0.80065353,-0.00590615,0.02158069,-0.00209031,0.96302702,0.06663910,0.25999721,0.02322995
1761618738654,0.15229686,0.16983766,0.32263111,-0.00436142,-0.00171461,-0.00730297,0.96303864,0.06658524,0.25997604,0.02313976
1761618738680,0.02762221,0.09498204,-0.15370633,-0.02064002,-0.00933881,0.00088878,0.96309042,0.06631279,0.25985277,0.02315149
1761618738682,-1.42193202,-1.17578064,-50.56596164,0.13070311,-0.17876251,-0.11409522,0.96313237,0.06644349,0.25967400,0.02303739
1761618738718,0.09586465,0.05277895,2.85446521,-0.00003124,-0.01357839,-0.00702468,0.96319975,0.06644294,0.25943502,0.02291376
1761618738731,-0.00105005,0.00149543,-0.23064336,-0.00634999,-0.04036543,-0.05160495,0.96328115,0.06640167,0.25917265,0.02257833
1761618738767,-0.00535536,-0.00059210,0.15720286,-0.01907294,-0.01701851,-0.01939847,0.96339746,0.06605168,0.25886036,0.02222236
1761618738771,2.53609611,-1.55094155,-19.90262611,-0.35544456,-0.32396184,0.13097364,0.96361910,0.06532302,0.25819624,0.02249086
1761618738813,-0.23890976,0.12520661,1.91100861,-0.01523551,-0.02877250,0.00918936,0.96379790,0.06500307,0.25759202,0.02268384
1761618738816,6.01314363,-14.17780206,-25.62670481,-0.26716743,-0.49518018,-0.00944743,0.96398586,0.06466911,0.25697304,0.02267203
1761618738842,-0.58258038,1.36773614,2.49196489,-0.00645285,-0.03378954,0.01275828,0.96410319,0.06458619,0.25653884,0.02283597
1761618738863,0.02787695,0.06084453,-0.18245458,-0.00960319,-0.03139929,0.02113484,0.96419402,0.06448344,0.25620287,0.02306211
1761618738875,-0.01017395,-0.17155436,0.08180165,-0.04496295,-0.03371615,-0.00931321,0.96426709,0.06421366,0.25600058,0.02300623
1761618738887,0.02527461,-0.26814109,0.11358985,-0.03717619,-0.02698339,-0.00646680,0.96432630,0.06398875,0.25583733,0.02296711
1761618738899,0.05481547,0.20425170,0.18307288,-0.06536248,-0.02266323,0.00981084,0.96438690,0.06359657,0.25570135,0.02302597
1761618738912,-0.02545086,0.13264067,-0.07915965,-0.00956213,-0.01808537,-0.00083975,0.96442039,0.06353776,0.25559012,0.02302081
1761618738924,0.01001155,0.21331225,0.10027278,0.00856955,-0.01495784,-0.00887613,0.96444367,0.06359304,0.25549364,0.02296356
1761618738927,1.77406625,2.52782083,-4.61368770,0.04784445,-0.12056712,-0.15241296,0.96449386,0.06366720,0.25530676,0.02272732
1761618738942,-0.28493236,-0.43764181,0.99634523,-0.01220015,-0.02221443,-0.02151074,0.96454741,0.06357631,0.25514127,0.02256706
1761618738955,0.02936087,-0.05680472,-0.16892677,-0.02401412,-0.04283395,-0.00995007,0.96463281,0.06342021,0.25486285,0.02250239
1761618738968,0.06691642,-0.05646913,0.00890465,-0.03033547,-0.05502241,-0.01053936,0.96474009,0.06322607,0.25451070,0.02243494
1761618738979,0.23021302,-0.09644303,-0.09185789,-0.04934393,-0.07160440,-0.00796805,0.96485598,0.06296948,0.25413836,0.02239350
1761618738983,2.85667527,-0.66750680,-3.23164203,-0.01483533,-0.21585459,-0.03620969,0.96497613,0.06293907,0.25369586,0.02231927
1761618738996,-0.90229970,0.21949043,1.02252957,-0.00429048,-0.09068296,-0.00778299,0.96513632,0.06291075,0.25309735,0.02226791
1761618739008,0.13750906,0.08483896,-0.05468176,0.01071561,-0.08535484,-0.01838341,0.96527323,0.06297719,0.25256815,0.02215393
1761618739028,-0.18858711,0.02215963,0.12044966,0.00027785,-0.06050369,-0.01625047,0.96543568,0.06297998,0.25196009,0.02199061
1761618739042,0.25699430,0.16041382,-0.23900724,-0.01617348,-0.07842096,-0.00878374,0.96558322,0.06287000,0.25142683,0.02193088
1761618739055,-0.18102343,-0.03015890,0.05018056,-0.01582915,-0.07969835,0.00428387,0.96572402,0.06276711,0.25090879,0.02195873
1761618739068,-0.02018819,-0.14625981,0.02305117,0.02299773,-0.08692250,-0.00180160,0.96586329,0.06291889,0.25033510,0.02194684
1761618739081,0.03965379,-0.06991170,0.03070621,-0.02070670,-0.06895584,0.00778440,0.96598410,0.06278741,0.24989723,0.02199627
1761618739093,0.02191376,-0.23660359,-0.04810852,-0.02408109,-0.08186144,0.01019742,0.96612238,0.06263931,0.24939378,0.02205898
1761618739095,13.66206301,-6.81293507,-15.38684213,-0.16917459,-0.48715859,-0.05215967,0.96626015,0.06247013,0.24890662,0.02200682
1761618739107,-2.49817875,1.26975822,2.79432967,-0.00544044,-0.06845483,-0.00205865,0.96636555,0.06243831,0.24850616,0.02199478
1761618739119,-0.35244855,-0.11990977,-0.06999513,0.00322575,-0.06134963,-0.00465435,0.96645952,0.06245766,0.24813806,0.02196685
1761618739131,-0.02865064,0.02985893,0.03869795,-0.00736268,-0.03127607,-0.00122677,0.96650942,0.06241459,0.24795510,0.02195968
1761618739143,-0.19730747,-0.04796229,0.06365130,-0.00577232,-0.04525453,0.00168607,0.96658462,0.06237822,0.24766999,0.02197030
1761618739155,0.26404901,0.10574120,0.14301486,-0.02194736,-0.01199665,0.01320054,0.96660954,0.06224764,0.24759861,0.02204884
1761618739168,-0.07893046,0.01605000,0.06166028,-0.03470577,-0.02815462,0.01130795,0.96666739,0.06202899,0.24742124,0.02212008
1761618739181,0.02266175,-0.04862086,0.04012831,-0.03577067,0.00115591,0.00754376,0.96667923,0.06179648,0.24742875,0.02216912
1761618739183,-3.02816132,-9.43207374,-3.29847717,-0.16812691,-0.15225880,0.01877039,0.96673095,0.06161995,0.24726888,0.02218882
1761618739196,0.44950623,1.32592180,0.64566282,-0.03354985,-0.02999563,-0.00432723,0.96679582,0.06140020,0.24707241,0.02216048
1761618739208,0.20093459,-0.00079335,0.09745111,-0.05051554,-0.00819293,0.03135411,0.96682234,0.06110721,0.24702489,0.02234234
1761618739219,0.02765786,0.19621635,-0.18931212,-0.00609287,-0.02162006,0.01608327,0.96685333,0.06107309,0.24690382,0.02243240
1761618739230,-0.09155330,0.32423990,0.06929832,-0.01264418,-0.02784574,-0.00195709,0.96689707,0.06100354,0.24675067,0.02242164
1761618739240,-0.00096550,-0.02399598,-0.03808026,0.01979118,-0.01625274,-0.00686957,0.96691342,0.06110943,0.24666372,0.02238489
1761618739253,-0.05743437,-0.08337743,0.12976744,0.01240744,-0.00831108,-0.00974333,0.96692318,0.06118697,0.24661177,0.02232399
1761618739265,-0.03719336,-0.03179104,0.06986946,-0.01728350,-0.02645756,0.00409844,0.96697003,0.06108241,0.24645170,0.02234879
1761618739279,0.02757879,-0.07392950,0.04310900,-0.00907070,-0.00775852,-0.00180520,0.96698791,0.06101982,0.24639817,0.02233633
1761618739291,0.00893366,-0.08506443,0.07810129,-0.01349161,-0.01195317,-0.00953803,0.96701219,0.06094022,0.24632765,0.02228005
1761618739306,0.01747417,0.02499063,-0.00829598,-0.01920115,-0.00678783,-0.01394732,0.96703793,0.06078853,0.24627402,0.02216987
1761618739308,0.01308808,-11.02030561,26.62191954,-0.27329028,-0.12454176,0.08610376,0.96707075,0.06059723,0.24618684,0.02223014
1761618739340,-0.03130669,0.55588959,-1.21705405,-0.00372040,-0.00059064,0.00573409,0.96707475,0.06053807,0.24617745,0.02232132
1761618739362,-0.10749159,0.09412087,0.10915567,0.02648896,0.00698141,0.00403951,0.96703535,0.06083342,0.24625529,0.02236636
1761618739395,0.05820589,-0.00851976,-0.02202235,0.00134394,0.00534021,0.00133274,0.96701056,0.06085600,0.24634501,0.02238875
1761618739418,-0.01226257,0.15877470,0.23978746,-0.00822766,-0.00166497,-0.04817857,0.96703325,0.06076468,0.24632653,0.02185396
1761618739450,0.02957101,-0.05597343,-0.17980301,0.00693836,-0.01010307,0.00324866,0.96706615,0.06087534,0.24616538,0.02190578
1761618739483,-0.01926022,-0.01927013,0.03517514,0.01166761,-0.03042840,0.01529333,0.96717858,0.06107253,0.24565114,0.02216424
1761618739516,-0.00650318,-0.10825857,0.07390313,0.00996037,-0.02504354,0.01323842,0.96726694,0.06123488,0.24524293,0.02238002
1761618739539,-0.41745954,0.22944560,-0.05367556,0.04949902,0.00923055,0.03765686,0.96719305,0.06180907,0.24535001,0.02281684
1761618739573,0.14103959,-0.08815701,-0.06573997,-0.00522945,0.02130111,0.01305255,0.96710289,0.06172147,0.24570680,0.02303547
1761618739607,0.01836501,-0.08635086,0.08047575,0.00573818,0.01336339,-0.00245381,0.96703953,0.06181960,0.24593532,0.02299351
1761618739641,0.04554541,0.10645202,-0.04413503,0.00912750,0.00007732,0.00091824,0.96702893,0.06197431,0.24593663,0.02300908
1761618739675,0.05321745,-0.04896998,-0.04090372,0.00763029,-0.02012539,0.01966598,0.96710078,0.06210631,0.24558846,0.02334930
1761618739710,0.06277623,-0.02505959,0.00922940,-0.00425102,-0.02179041,0.00648887,0.96719928,0.06203213,0.24520822,0.02346253
1761618739744,-0.00739289,0.05379416,-0.04392696,0.01943352,-0.00524711,0.00677199,0.96719785,0.06236250,0.24511901,0.02357765
1761618739795,0.01147568,-0.05674515,-0.02277910,-0.00860475,0.00065696,-0.00508461,0.96721093,0.06214222,0.24513583,0.02344749
1761618739810,0.32048400,0.00242285,-0.34982323,-0.01835843,-0.02678354,0.01976477,0.96726443,0.06201096,0.24494433,0.02358881
1761618739874,-0.06687695,0.02129670,0.03828982,-0.00259790,-0.00443576,-0.00222951,0.96730756,0.06192756,0.24480194,0.02351724
1761618739898,0.17370696,0.13934104,-0.06858754,0.05044880,0.00014404,-0.02955170,0.96727713,0.06252538,0.24480365,0.02316705
1761618739920,-0.13461297,-0.05986656,0.10493211,0.00952042,0.00468335,-0.00982784,0.96725935,0.06263344,0.24485681,0.02305551
1761618739942,-0.03171695,-0.04585674,0.00380474,-0.00328443,0.00255251,-0.00095979,0.96725497,0.06259846,0.24488399,0.02304528
1761618739965,0.03617447,0.04009411,0.02766873,0.02528896,-0.00347319,-0.01339611,0.96724976,0.06289561,0.24484318,0.02288788
1761618739988,-0.02722290,-0.00528964,0.04177141,0.00819611,-0.00333692,0.00498540,0.96725195,0.06298822,0.24480547,0.02294421
1761618739997,0.16951042,0.24266083,0.04461655,0.02127742,0.01462564,0.00682543,0.96722805,0.06308503,0.24487202,0.02297527
1761618740008,-0.10562823,-0.31332654,-0.12670895,0.05766331,0.01865943,-0.00405334,0.96718270,0.06339642,0.24497278,0.02295338
1761618740019,0.10770397,-0.02186197,-0.22600235,-0.00096473,0.01250052,0.01485887,0.96716334,0.06339101,0.24504278,0.02303659
1761618740042,-0.10251378,-0.00392970,0.07307205,0.00536762,0.00098107,-0.00265599,0.96715708,0.06345355,0.24505421,0.02300565
1761618740053,0.12882252,0.13224132,-0.16474946,0.07218375,0.01411309,-0.03257481,0.96711439,0.06386138,0.24513395,0.02282160
1761618740067,-0.12245518,0.02445450,0.25193756,0.00363155,0.00393196,-0.02512057,0.96711003,0.06388590,0.24516049,0.02265204
1761618740078,0.11688660,0.08562348,0.01343174,-0.01494334,0.00802856,-0.00464595,0.96710500,0.06380595,0.24520344,0.02262718
1761618740099,-0.05063067,-0.08450794,-0.01552341,0.01052513,-0.00078955,0.00196195,0.96709924,0.06391804,0.24519504,0.02264808
1761618740110,0.16890657,0.16895358,-0.07923068,-0.00067845,0.01790008,0.02546078,0.96707225,0.06391445,0.24528991,0.02278302
1761618740121,-0.09913350,-0.39738444,-0.16379427,-0.01507270,0.00142948,0.02851015,0.96707203,0.06383155,0.24529777,0.02293982
1761618740144,0.00272467,0.06131652,0.10506356,-0.01918620,-0.00523739,0.00310625,0.96710099,0.06361091,0.24523754,0.02297555
1761618740154,0.41204950,0.01703268,0.01319077,-0.00582429,-0.03205847,0.00126406,0.96714339,0.06358179,0.24507725,0.02298187
1761618740164,0.01737447,0.02039711,0.17627931,0.01603326,-0.01920354,-0.00078415,0.96716407,0.06366836,0.24497355,0.02297763
1761618740176,-0.10893588,0.02472836,0.03074491,0.00716215,-0.03019968,0.00018259,0.96720422,0.06370847,0.24480443,0.02297865
1761618740189,-0.00103371,-0.04664862,-0.00776449,0.00351484,-0.01157088,0.00115055,0.96722224,0.06373220,0.24472633,0.02298642
1761618740200,0.00124599,0.01886843,0.04974797,-0.00301927,-0.01814103,-0.00129502,0.96724922,0.06371529,0.24462474,0.02297917
1761618740221,-0.07270299,-0.05215810,-0.07789887,0.00330109,-0.00996592,-0.00662401,0.96727480,0.06374962,0.24452109,0.02291028
1761618740232,0.98647727,-0.05764832,0.08191862,-0.04076775,-0.02940341,-0.00623322,0.96733072,0.06352744,0.24436084,0.02287631
1761618740254,-0.41609322,0.07065501,-0.03348761,0.00554883,-0.01707213,-0.00548606,0.96737494,0.06358764,0.24417561,0.02281678
1761618740276,0.08759062,0.11417773,0.14658835,0.02052096,-0.02364587,-0.01630455,0.96742941,0.06381132,0.24391787,0.02263906
1761618740285,1.21895505,0.78662150,0.81948198,0.04203181,-0.10107234,-0.02761797,0.96754137,0.06401307,0.24343272,0.02250650
1761618740297,-0.68942000,-0.50128268,-0.34870050,0.01873185,-0.05108683,0.02195688,0.96760847,0.06412640,0.24312365,0.02263934
1761618740310,0.22584779,-0.04154433,0.19339434,0.00082474,-0.07065190,0.03507313,0.96771298,0.06413151,0.24268560,0.02285679
1761618740332,-0.28564797,-0.11321190,-0.24058637,0.00427680,-0.03425390,0.00764981,0.96780269,0.06417877,0.24230710,0.02294132
1761618740333,60.60297196,3.66315823,46.70846091,0.22916570,-0.69599343,-0.00120300,0.96792978,0.06436211,0.24175030,0.02294036
1761618740353,-4.74542379,-0.39871782,-3.64594161,0.01036123,-0.05284695,0.01716238,0.96805064,0.06446572,0.24122183,0.02311198
1761618740364,0.50070943,0.08311579,0.53826644,-0.00406864,-0.12394338,-0.02121456,0.96822767,0.06444293,0.24052775,0.02299318
1761618740383,-0.26546241,0.10025863,-0.23970608,0.02266944,-0.09024192,-0.01988287,0.96842503,0.06465263,0.23969301,0.02280926
1761618740394,1.87313680,0.45551281,1.45071349,0.05076332,-0.33158062,0.02839199,0.96885609,0.06493436,0.23785274,0.02296684
1761618740405,-0.38206657,-1.18398224,0.55188440,0.00201139,-0.25484100,0.00506242,0.96920390,0.06494563,0.23642563,0.02299519
1761618740439,-0.60223909,0.12117803,-0.62213116,-0.00676751,-0.08244571,-0.00846539,0.96955274,0.06483159,0.23503642,0.02285255
1761618740450,3.62352880,-1.93596501,8.20704081,-0.11553839,-0.61626565,0.10945621,0.97036558,0.06421924,0.23177021,0.02343267
1761618740490,-0.93841674,0.52437325,-1.81936567,-0.00914741,-0.07905893,0.03757984,0.97074382,0.06403218,0.23015346,0.02420117
1761618740504,1.51771609,-0.78785210,7.23125927,-0.13004192,-0.37819189,0.16694317,0.97138816,0.06313489,0.22754393,0.02535308
1761618740528,-0.65465898,0.36001251,-2.71069121,-0.07486631,-0.11763899,0.09531014,0.97173485,0.06226269,0.22617344,0.02646344
1761618740556,-0.08255567,0.08085213,-0.21555614,-0.01294546,-0.09019134,0.07108063,0.97201384,0.06208016,0.22490174,0.02746568
1761618740594,-0.04023392,0.09700582,-0.23259589,-0.00000313,-0.05011001,0.03888686,0.97221197,0.06208010,0.22395216,0.02820259
1761618740598,33.06960839,8.05208229,157.74494071,0.40055720,-0.51038408,0.41761943,0.97237048,0.06288122,0.22293139,0.02903783
1761618740624,-4.53434800,-0.99738030,-22.43978279,0.03571150,-0.08296208,0.02286739,0.97258443,0.06335975,0.22181970,0.02934425
1761618740647,0.04865348,0.41385301,0.69707731,0.13078695,-0.10886206,-0.05782288,0.97278098,0.06479841,0.22062222,0.02870820
1761618740659,0.06266413,-0.35805374,0.02266626,0.18757905,-0.10067913,-0.06938110,0.97285799,0.06598016,0.21998794,0.02827110
1761618740671,0.15890280,0.05345138,0.43353450,0.12461254,-0.05599872,-0.00824729,0.97288327,0.06669668,0.21966594,0.02822367
1761618740682,0.13160345,-0.24501002,-1.04471506,0.10025035,-0.01979881,0.00288015,0.97286879,0.06727312,0.21955210,0.02824024
1761618740693,-0.41545588,0.25617749,-0.26027334,0.10244399,-0.02859865,0.00250259,0.97286487,0.06782119,0.21939910,0.02825362
1761618740705,0.14869440,0.12456657,-0.57296357,0.12146466,-0.01169780,0.03239947,0.97282395,0.06854998,0.21932891,0.02844802
1761618740715,-0.18383114,0.70775951,0.81236965,0.18386872,-0.02127252,0.00982689,0.97278084,0.06947852,0.21922148,0.02849765
1761618740726,-0.07667889,0.23226912,-0.75318867,0.20614863,-0.01030471,-0.00343110,0.97271001,0.07065357,0.21916275,0.02847809
1761618740738,0.01100732,0.14791088,0.45496928,0.25593791,-0.05759166,-0.03482493,0.97268265,0.07211241,0.21883448,0.02827959
1761618740749,0.49166035,-0.37734473,-0.62512412,0.21334530,-0.07172196,-0.05055485,0.97269196,0.07332848,0.21842566,0.02799143
1761618740760,0.28536817,-0.05041568,0.59660131,0.15329082,-0.14989976,-0.04329248,0.97281386,0.07413326,0.21763869,0.02776414
1761618740772,0.03050370,-0.96679390,-0.96768970,0.11030311,-0.14517476,-0.03227268,0.97296566,0.07480611,0.21675312,0.02756728
1761618740782,0.52191584,0.26922634,0.94529983,0.05141758,-0.22061547,0.01291973,0.97320471,0.07508119,0.21557283,0.02763640
1761618740794,-0.00474927,-0.01167385,-0.75706196,0.05719290,-0.22233082,0.02871476,0.97345470,0.07540719,0.21430554,0.02780007
1761618740805,0.15610126,-0.26463453,-0.27756116,0.10396839,-0.29517825,0.05177846,0.97375258,0.07596862,0.21271158,0.02807967
1761618740816,-0.52855705,0.13925297,-0.57680227,0.11204658,-0.29615189,0.01236163,0.97407874,0.07662969,0.21096428,0.02815261
1761618740826,0.33464472,0.07208542,1.86106664,0.12832358,-0.38633574,-0.02230426,0.97443297,0.07724565,0.20910987,0.02804555
1761618740838,-0.37883629,-0.19957985,-1.19177253,0.03822028,-0.31808296,-0.00978242,0.97483055,0.07747879,0.20716957,0.02798588
1761618740850,0.22869544,-0.07458754,0.05879598,0.00474711,-0.33206825,-0.00786660,0.97524048,0.07750656,0.20522697,0.02793986
1761618740871,-0.51397730,-0.26260603,-1.35479764,0.01234770,-0.19254791,0.03227892,0.97564558,0.07763683,0.20319559,0.02828040
1761618740873,249.54201737,36.46627233,446.74305868,0.37093306,-4.40950781,1.23793156,0.97627901,0.07791503,0.19988846,0.02920885
1761618740883,-35.27093098,-5.84305721,-62.77000264,0.08202338,-0.33052578,0.06349888,0.97658528,0.07834155,0.19816972,0.02953904
1761618740894,-0.16784837,0.74370682,-0.52141092,0.03350194,-0.27478719,0.01203047,0.97686872,0.07852246,0.19668587,0.02960401
1761618740905,-0.10840091,0.13598940,-0.00212829,0.02013304,-0.31531722,0.06308490,0.97721165,0.07863823,0.19487280,0.02996674
1761618740915,0.84758993,-0.28519724,1.07859121,0.05266068,-0.38363559,0.05830206,0.97755854,0.07889890,0.19297380,0.03025534
1761618740926,0.36124027,-0.43734019,0.38428302,0.08695224,-0.41958711,0.07276741,0.97796010,0.07937713,0.19066607,0.03065556
1761618740932,5.71380041,-1.09402142,8.21841631,0.08921050,-0.74908427,0.22349146,0.97833308,0.07963138,0.18853118,0.03129251
1761618740968,-1.61395815,0.17183739,-2.51605778,0.01665708,-0.12518012,0.04994026,0.97870893,0.07992955,0.18629046,0.03218644
1761618740995,0.71115575,0.34432124,0.81375955,0.08033277,-0.37395280,0.15385368,0.97949683,0.08101404,0.18124209,0.03426347
1761618741006,4.69891421,0.93879193,4.70156831,0.34471060,-1.17428647,0.27297118,0.98050033,0.08299612,0.17448995,0.03583305
1761618741039,-2.10993806,-0.69087083,-2.30686412,0.02320779,-0.24055128,0.04538915,0.98112493,0.08337093,0.17060504,0.03656608
1761618741049,6.71308125,-0.69001825,6.87739417,0.06236484,-1.44034633,0.26290872,0.98235201,0.08370458,0.16289919,0.03797265
1761618741071,-2.52606279,-0.04652031,-2.85346262,0.00989788,-0.54898842,0.12324659,0.98325543,0.08381148,0.15697012,0.03930371
1761618741082,0.33534298,-0.30756767,0.38249660,-0.02157906,-0.68183818,0.11076500,0.98383753,0.08369171,0.15318591,0.03991846
1761618741094,-0.10411270,0.60908525,-0.31325807,-0.04859330,-0.52527233,0.13390546,0.98432278,0.08339530,0.14998175,0.04073528
1761618741106,-0.73324110,-0.01079919,-0.45260132,-0.04856777,-0.45872845,0.09718561,0.98475571,0.08309175,0.14711470,0.04134269
1761618741117,0.34113748,-0.88766464,0.11072577,-0.09763560,-0.50784810,0.11431413,0.98515639,0.08259381,0.14452467,0.04192569
1761618741127,-0.18464163,-0.18979353,-0.29825379,-0.09000525,-0.43106219,0.08760422,0.98550555,0.08212128,0.14226160,0.04238561
1761618741138,0.20091521,0.51413983,0.63323051,-0.12927052,-0.48494869,0.08836171,0.98590974,0.08143614,0.13969137,0.04285393
1761618741150,-0.38610414,0.24738885,-0.47507027,-0.09691800,-0.41691655,0.08399276,0.98628053,0.08086433,0.13723156,0.04334949
1761618741161,0.37905181,-0.09224568,0.91736382,-0.09110864,-0.58073657,0.10373837,0.98673539,0.08036323,0.13403751,0.04392005
1761618741172,0.31012968,0.91776894,0.41343023,-0.09690902,-0.56065693,0.12169551,0.98715876,0.07983508,0.13098193,0.04458329
1761618741182,0.16227750,-0.34752213,-0.14301015,-0.04008276,-0.56422265,0.10008156,0.98754759,0.07962063,0.12796334,0.04511873
1761618741194,-0.38585538,-0.11863539,-0.38294481,-0.01641419,-0.53127572,0.07991442,0.98792513,0.07952625,0.12490850,0.04557823
1761618741206,-0.08562250,0.47790990,0.21100832,-0.03156460,-0.53985956,0.05936289,0.98831807,0.07934160,0.12175033,0.04592551
1761618741216,0.12516000,-0.51149048,0.19958943,-0.00429383,-0.60211884,0.07068283,0.98869379,0.07931863,0.11852899,0.04630366
1761618741227,-0.35705732,0.48972926,-0.00432533,-0.00510542,-0.56896764,0.04913111,0.98905993,0.07929004,0.11534277,0.04657879
1761618741239,-0.06082107,0.36231299,-0.02185757,-0.00539637,-0.57846314,0.06764394,0.98941685,0.07925982,0.11210338,0.04695760
1761618741249,0.39903405,-0.17737662,0.27403041,0.02558347,-0.57697036,0.08236328,0.98972686,0.07939541,0.10904544,0.04739412
1761618741260,0.07108421,-0.53498829,0.17930197,0.01715987,-0.61240634,0.07901866,0.99005165,0.07948636,0.10579968,0.04781292
1761618741273,-0.44955578,0.02577625,-0.34950544,-0.03752681,-0.53113612,0.07150366,0.99040878,0.07924431,0.10237385,0.04827412
1761618741283,0.68552099,-0.25876770,0.97758784,-0.05467734,-0.67916940,0.10291806,0.99076730,0.07895725,0.09880821,0.04881444
1761618741294,-0.75688438,0.10353097,-0.20598068,-0.02475360,-0.72537341,0.06690528,0.99113268,0.07882730,0.09500000,0.04916569
1761618741305,0.16167233,-0.11317083,-0.39607193,0.00243083,-0.63329695,0.10127292,0.99145276,0.07884164,0.09126355,0.04976321
1761618741317,-0.02191548,0.42803423,0.51201918,-0.01902318,-0.66488318,0.14037085,0.99175981,0.07873416,0.08750696,0.05055630
1761618741328,-0.52034241,-0.73706738,-0.17329906,-0.00003473,-0.67442367,0.11559553,0.99205007,0.07873396,0.08376391,0.05119786
1761618741340,0.07382880,0.03842856,-0.05590765,-0.03757678,-0.62373414,0.14763054,0.99232617,0.07851226,0.08008388,0.05206888
1761618741350,-0.40090690,-0.39031698,0.73964313,-0.01039692,-0.74206033,0.15991678,0.99258047,0.07846028,0.07637358,0.05286846
1761618741361,-0.04393444,0.96617267,0.27938423,-0.01469426,-0.63641421,0.12570242,0.99281908,0.07837725,0.07277784,0.05357868
1761618741372,-0.13664353,-0.57248112,0.05319144,0.00575800,-0.64503174,0.13943171,0.99302675,0.07840864,0.06926241,0.05433858
1761618741383,-0.42371603,-0.42605806,0.26053841,-0.01641382,-0.61833958,0.13563255,0.99322761,0.07831672,0.06579971,0.05509812
1761618741394,-0.38703765,0.40815808,0.44705902,-0.09989669,-0.61724087,0.14645033,0.99344677,0.07776229,0.06237403,0.05591092
1761618741405,0.19838925,-0.46689251,0.09480116,-0.09801877,-0.56061984,0.13287209,0.99363621,0.07722319,0.05929062,0.05664172
1761618741416,-0.28997107,0.22250108,0.49731998,-0.14857544,-0.53179497,0.14526366,0.99382870,0.07638374,0.05628598,0.05746246
1761618741427,-1.00847887,-0.16284776,-0.50480924,-0.14509804,-0.59484836,0.10706671,0.99403172,0.07560021,0.05307379,0.05804062
1761618741439,0.25617210,0.58686906,0.05907198,-0.18173256,-0.49697251,0.07028800,0.99423887,0.07453707,0.05016650,0.05845180
1761618741450,-0.35212779,0.02886245,0.47256980,-0.16588879,-0.51256424,0.05950444,0.99442247,0.07364127,0.04739866,0.05877313
1761618741461,-0.50241463,-0.46347110,-1.09527505,-0.09401663,-0.48777446,0.01213049,0.99458935,0.07309598,0.04456957,0.05884348
1761618741472,-0.34534197,0.49990807,0.37021047,-0.08422834,-0.49895204,0.01561906,0.99473213,0.07264957,0.04192512,0.05892627
1761618741483,-0.20071001,-0.82307291,-0.71510277,0.02971719,-0.45227993,0.03240177,0.99481065,0.07281152,0.03946019,0.05910286
1761618741494,-0.07410427,0.20851461,-0.12723717,0.04093256,-0.40153457,0.02529020,0.99487260,0.07304279,0.03719152,0.05924575
1761618741505,-0.32469775,-0.28474209,0.12410914,0.06267878,-0.34768180,0.09411405,0.99488591,0.07338753,0.03527927,0.05976337
1761618741517,-0.12711788,0.10991477,-0.35961419,0.07254155,-0.30884139,0.12506701,0.99487312,0.07380101,0.03351888,0.06047625
1761618741527,-0.53637963,-0.28081778,0.58308042,0.07055046,-0.27966302,0.14141218,0.99484830,0.07417493,0.03203666,0.06122574
1761618741538,0.12685287,-0.59214852,-0.13553256,0.04511018,-0.21165749,0.14450633,0.99481647,0.07442980,0.03084080,0.06204220
1761618741550,-0.15993898,0.28955861,0.17465193,-0.05215020,-0.23689973,0.13535086,0.99483120,0.07413255,0.02949047,0.06281370
1761618741561,0.17611714,-0.00590497,-0.14905748,-0.05255819,-0.23724226,0.07733422,0.99486472,0.07383297,0.02813819,0.06325450
1761618741572,-0.66507203,-0.01822243,0.14295019,-0.05952742,-0.27848867,0.01941642,0.99492218,0.07351747,0.02666220,0.06335741
1761618741583,0.15811326,0.12304745,-0.31853061,-0.07963119,-0.28707634,0.00960953,0.99499338,0.07307154,0.02505457,0.06341122
1761618741594,-0.53680474,-0.13075331,0.53945892,-0.10764583,-0.29265029,-0.06221962,0.99509486,0.07249563,0.02348889,0.06307835
1761618741606,0.22707738,-0.40214028,-0.62677384,-0.04900193,-0.25896955,-0.04667413,0.99516880,0.07220407,0.02194802,0.06280064
1761618741617,0.15648962,-0.24913781,0.46240686,-0.10642490,-0.29030737,-0.01825192,0.99525135,0.07161873,0.02035133,0.06270025
1761618741627,-0.34241638,0.04730245,-0.19475199,-0.10409501,-0.28882571,-0.06671939,0.99534494,0.07105662,0.01879168,0.06233997
1761618741639,-0.01276139,0.71850399,-0.35826636,-0.08069599,-0.29107548,-0.07325962,0.99543444,0.07059262,0.01711799,0.06191873
1761618741680,0.66895195,0.39250933,-0.84509175,-0.01178469,-0.08059280,-0.01705908,0.99550059,0.07034985,0.01545778,0.06156731
1761618741717,-1.32007727,-0.73633486,1.06114928,-0.05053133,-0.40439712,-0.02617384,0.99568198,0.06942766,0.00807753,0.06108964
1761618741728,-9.43358346,-3.49191502,4.86114677,-0.29209886,-1.08619183,0.04219160,0.99581190,0.06777730,0.00194055,0.06132802
1761618741751,4.48448448,2.26861015,-3.46859646,-0.02056339,-0.29935857,0.07655795,0.99577354,0.06753773,-0.00154698,0.06221992
1761618741772,-0.26539329,-0.51541691,-0.04768621,-0.02982886,-0.30043132,0.11981183,0.99570473,0.06722155,-0.00473155,0.06348992
1761618741784,-1.47044610,-0.26658078,0.69152584,-0.10360112,-0.34614060,0.15220528,0.99567791,0.06664138,-0.00666994,0.06434227
1761618741796,0.89064630,0.72611731,-0.68642949,-0.07914446,-0.27823497,0.11050855,0.99565329,0.06615464,-0.00838108,0.06502190
1761618741817,1.69194957,0.64221634,-0.64421103,-0.04579252,-0.13557401,0.07086958,0.99562280,0.06566695,-0.00982495,0.06577666
1761618741827,-4.01982204,-0.95921194,0.70649790,-0.06717939,-0.25653895,0.13392580,0.99558657,0.06532770,-0.01112047,0.06645299
1761618741839,1.17663102,0.18418329,-0.44784925,-0.03656501,-0.19334703,0.11571986,0.99554112,0.06511013,-0.01227088,0.06714152
1761618741850,-0.34988884,0.03675188,0.12139057,-0.03300316,-0.19395436,0.11549485,0.99549537,0.06492532,-0.01335703,0.06778829
1761618741861,-0.38018479,0.23477828,0.03035807,-0.04934033,-0.19936931,0.10515967,0.99545920,0.06466135,-0.01442365,0.06835090
1761618741872,0.60174487,0.14811313,-0.27703871,-0.00834015,-0.17550653,0.09227997,0.99541189,0.06461464,-0.01540649,0.06886766
1761618741875,-133.78771971,-27.16377211,16.44771501,-0.05548303,-1.03803946,0.53905997,0.99535376,0.06455084,-0.01660024,0.06948758
1761618741885,27.86798912,5.41493875,-3.65003215,0.00653802,-0.22668681,0.10509918,0.99529289,0.06458483,-0.01777901,0.07003410
1761618741896,1.09381052,0.40833110,0.01631310,-0.02979535,-0.18128947,0.09716793,0.99524703,0.06441947,-0.01878516,0.07057338
1761618741907,0.12517398,-0.14924089,-0.24166913,-0.01515226,-0.19060007,0.10951991,0.99519131,0.06433916,-0.01979534,0.07115384
1761618741917,-0.68514664,-0.53702735,0.06001411,-0.04643623,-0.18542008,0.09612989,0.99515216,0.06410234,-0.02074099,0.07164410
1761618741928,-1.40957689,-0.46628213,0.05842552,-0.03120295,-0.22048641,0.08822979,0.99510398,0.06393696,-0.02190956,0.07211172
1761618741939,0.68824487,0.34083728,-0.24683158,-0.02569666,-0.21581338,0.09243384,0.99504772,0.06379178,-0.02312891,0.07263397
1761618741950,0.29202683,0.39345035,-0.38322687,-0.02307232,-0.21857947,0.07894455,0.99499345,0.06366026,-0.02437481,0.07308395
1761618741961,0.03317607,0.37647871,0.07679128,-0.04899799,-0.23008466,0.06543756,0.99495197,0.06338832,-0.02565178,0.07344713
1761618741972,-0.18915610,-0.07552041,-0.27424290,-0.03817913,-0.23477286,0.02970738,0.99491943,0.06318025,-0.02693129,0.07360904
1761618741984,0.63853692,-0.02644654,0.17241319,-0.05421417,-0.19742575,0.04142750,0.99489067,0.06287394,-0.02804675,0.07384310
1761618741995,-0.38306000,-0.15499039,-0.25034561,-0.06323328,-0.19349524,0.03841958,0.99486631,0.06252616,-0.02911097,0.07405441
1761618742006,0.55738896,0.06545858,0.13856876,-0.09619183,-0.18657954,0.03946128,0.99485203,0.06197305,-0.03018381,0.07428131
1761618742017,0.05765566,0.00828854,-0.53008083,-0.05536167,-0.18308796,0.04906029,0.99481971,0.06166856,-0.03119079,0.07455114
1761618742028,-0.27927582,0.45856406,-0.29431694,-0.06372226,-0.18113399,0.03078759,0.99479651,0.06131172,-0.03220514,0.07472355
1761618742040,0.59121654,-0.10379304,-0.10551613,-0.02092264,-0.16173788,0.04880360,0.99475070,0.06118723,-0.03316748,0.07501393
1761618742050,-1.95173555,0.45486559,0.01410181,-0.04917930,-0.16515231,0.02642279,0.99472771,0.06093887,-0.03400150,0.07514737
1761618742062,0.90597883,-0.14366337,-0.05431459,0.01080546,-0.14565633,0.02626938,0.99468389,0.06100046,-0.03483174,0.07529710
1761618742074,0.31784787,-0.33572545,-0.01762433,0.02685219,-0.14475502,-0.00421667,0.99464512,0.06116158,-0.03570027,0.07527180
1761618742085,-0.43518527,0.02583290,0.16632588,0.00313421,-0.15406195,-0.08631247,0.99464925,0.06117960,-0.03658613,0.07477551
1761618742096,-0.64806320,-0.01853258,-0.08977401,-0.01920026,-0.18039107,-0.09192203,0.99465651,0.06107592,-0.03756024,0.07427913
1761618742107,0.33816044,-0.07249339,-0.14949611,-0.02457632,-0.17371724,-0.05004098,0.99464885,0.06094198,-0.03850700,0.07400641
1761618742118,-0.41438799,-0.52607458,0.11488480,0.01978035,-0.16560297,-0.05786343,0.99463030,0.06104978,-0.03940953,0.07369105
1761618742128,-0.59364799,-0.07135076,0.05168509,0.00325845,-0.16013560,-0.03183317,0.99460817,0.06106672,-0.04024224,0.07352552
1761618742140,0.75441435,-0.15967557,-0.05356791,0.00914533,-0.13323490,-0.01126332,0.99457844,0.06111931,-0.04100834,0.07346075
1761618742151,-0.53454698,0.04615514,-0.14029164,0.00999356,-0.11195615,-0.01765721,0.99455684,0.06117377,-0.04161850,0.07336452
1761618742162,-0.02777101,0.49427261,-0.02407194,-0.01890731,-0.11814326,-0.00445765,0.99453640,0.06106317,-0.04230964,0.07333844
1761618742173,-0.25467860,-0.41585102,-0.53579342,0.03095078,-0.10160005,0.00449953,0.99450018,0.06123340,-0.04286844,0.07336319
1761618742183,-1.26405196,-0.59343197,0.25987625,0.03567893,-0.11261621,0.00322025,0.99446356,0.06141179,-0.04343152,0.07337929
1761618742195,1.40002063,0.30276816,0.28447226,0.02190060,-0.07349954,0.01767286,0.99443032,0.06153553,-0.04384679,0.07347914
1761618742206,0.01418938,-0.42722622,-0.20549435,0.03021384,-0.08704792,0.00120305,0.99439714,0.06170775,-0.04434297,0.07348600
1761618742217,-0.38931818,0.34576664,-0.61807241,0.04246654,-0.09797083,0.00550626,0.99435545,0.06194556,-0.04489160,0.07351684
1761618742228,-0.47313062,-0.19892142,-0.62646754,0.08119035,-0.09644241,0.01602930,0.99429906,0.06237587,-0.04540275,0.07360179
1761618742239,0.70783274,-0.33326442,0.11043902,0.10487584,-0.07539434,0.01303479,0.99423505,0.06298415,-0.04584003,0.07367739
1761618742251,-0.45333754,-0.15054152,0.26248404,0.05078835,-0.07449742,0.03499304,0.99418359,0.06326602,-0.04625350,0.07387161
1761618742263,0.79198959,-0.28862204,0.31017343,0.09593086,-0.03295382,0.03370636,0.99412151,0.06385120,-0.04645451,0.07407721
1761618742273,-1.49931071,-0.91662554,-0.76764070,0.08323491,-0.06542543,0.06007365,0.99405562,0.06427570,-0.04678818,0.07438359
1761618742284,1.01835665,0.36809108,0.42114231,0.06194010,-0.02761598,0.02478743,0.99401509,0.06462566,-0.04694421,0.07452364
1761618742296,0.34002050,0.52942248,-0.09160640,0.00448535,-0.02086903,0.07829613,0.99397352,0.06465168,-0.04706525,0.07497776
1761618742306,-1.15623323,-0.11271215,-0.40133707,0.00198397,-0.01520614,0.10857426,0.99392726,0.06466180,-0.04714281,0.07553149
1761618742318,1.49652040,0.38845580,0.50717214,-0.01497161,0.01062980,0.12352062,0.99388033,0.06457346,-0.04708009,0.07626026
1761618742328,-0.93837169,-0.43576919,-0.52555357,-0.01673231,0.03161955,0.12621967,0.99384281,0.06448562,-0.04691409,0.07692291
1761618742340,1.08352596,0.54380771,0.47195687,-0.02577187,0.03675226,0.10056185,0.99381589,0.06432841,-0.04668990,0.07753634
1761618742351,-0.50382690,-0.45258200,-0.72386720,-0.01136180,0.06599575,0.11109293,0.99378931,0.06426649,-0.04633022,0.07814179
1761618742362,-0.02277654,0.16135024,0.31163951,-0.05641599,0.06769740,0.09618885,0.99378505,0.06396748,-0.04597143,0.07865160
1761618742402,1.50558281,0.58780492,0.46645744,-0.00507298,0.02128024,0.01390643,0.99378913,0.06386577,-0.04554476,0.07893042
1761618742431,-2.02479180,-0.68767604,-0.75022725,-0.05950969,0.07758424,0.10927996,0.99376769,0.06299098,-0.04440427,0.08053683
1761618742441,-9.28406002,-1.80992798,-6.35593116,-0.10593683,0.10609873,0.19522554,0.99374510,0.06246129,-0.04387377,0.08151296
1761618742463,5.94405631,1.08864133,3.40633111,-0.04655238,0.01024993,0.03582229,0.99374952,0.06197249,-0.04376615,0.08188910
1761618742484,0.61845962,-0.02984640,0.36715239,-0.08194953,-0.01298907,-0.00510783,0.99380316,0.06107924,-0.04390773,0.08183342
1761618742495,-0.14615931,-0.18695192,-0.10788485,-0.10352191,-0.07005649,-0.03249357,0.99383501,0.06052023,-0.04428604,0.08165796
1761618742507,1.18878176,0.46965187,0.49364600,-0.07419764,-0.06118000,-0.03511774,0.99386265,0.06007875,-0.04465006,0.08144900
1761618742518,0.76333792,0.14694814,0.27724456,-0.07117065,-0.07489490,-0.01992496,0.99387687,0.05968019,-0.04506947,0.08133742
1761618742529,0.27943901,0.11939091,0.12917719,-0.06219113,-0.06858469,-0.02818123,0.99389213,0.05935369,-0.04542954,0.08118947
1761618742540,0.19350587,0.29265344,-0.14106578,-0.05293873,-0.07390253,-0.02531678,0.99390227,0.05905988,-0.04583970,0.08104897
1761618742551,0.04207788,0.38042004,0.21937443,-0.05499650,-0.07059574,-0.02380533,0.99391279,0.05876015,-0.04622444,0.08091923
1761618742562,0.20201396,-0.08284716,-0.12294771,-0.04401172,-0.07655781,-0.02556743,0.99391916,0.05850488,-0.04666848,0.08077094
1761618742574,0.31981684,0.19650796,0.33133379,-0.06603355,-0.08046739,-0.05205415,0.99394409,0.05812189,-0.04713519,0.08046902
1761618742586,-1.22104247,-0.46039236,-0.45780670,-0.07450553,-0.06802660,-0.06281810,0.99398144,0.05767113,-0.04754675,0.08008897
1761618742596,2.34019028,0.93510081,1.00634296,-0.09704897,-0.10173249,-0.12167384,0.99403281,0.05719559,-0.04804524,0.07949277
1761618742607,0.18294575,0.20209307,0.22388184,-0.08283580,-0.06666681,-0.11001196,0.99408933,0.05673999,-0.04841191,0.07888770
1761618742618,0.54523796,0.52790325,-0.12533903,-0.09269988,-0.06294283,-0.06456174,0.99412986,0.05622551,-0.04876124,0.07852939
1761618742629,0.30941122,0.24019119,0.04374531,-0.05812927,-0.05960933,-0.12152582,0.99418285,0.05591452,-0.04908015,0.07787922
1761618742641,-0.04915512,0.17314202,0.02433845,-0.04720490,-0.04567321,-0.09138386,0.99422946,0.05562185,-0.04936332,0.07731264
1761618742651,0.23926749,0.02463957,0.34834425,-0.00276027,-0.02892213,-0.08911709,0.99425844,0.05560763,-0.04951227,0.07685369
1761618742662,0.06096147,0.35000486,0.00431055,0.00990252,-0.01072542,-0.05361852,0.99427505,0.05566160,-0.04957073,0.07656147
1761618742674,0.02744724,0.24044071,-0.07620124,0.04484926,0.00726491,-0.07036779,0.99429389,0.05592172,-0.04952859,0.07615334
1761618742727,-0.27528100,-0.19648115,-0.11803540,0.01625012,0.00235489,-0.01817321,0.99430960,0.05635642,-0.04946560,0.07566720
1761618742754,1.96532553,1.27985158,0.34366259,0.14815507,0.07645235,-0.07459550,0.99432126,0.05837873,-0.04842202,0.07464897
1761618742802,-0.67553812,-0.58531996,-0.21624609,0.04322509,0.04585286,-0.01879314,0.99434620,0.05940101,-0.04733760,0.07420452
1761618742830,1.32530569,0.18622021,-0.11200090,0.06779118,0.10359876,-0.06187507,0.99442052,0.06033991,-0.04590276,0.07334755
1761618742842,6.92374696,1.42381339,-0.85866250,-0.01355050,0.11956218,-0.09463734,0.99450266,0.06025590,-0.04516147,0.07276080
1761618742874,-3.42691817,-0.75771536,0.19993462,0.01959081,0.02175131,0.01134887,0.99448627,0.06056543,-0.04481780,0.07294011
1761618742896,0.77043839,-0.41880475,-0.19789239,0.02935690,-0.03140120,-0.01341570,0.99446106,0.06089717,-0.04517264,0.07278851
1761618742908,1.29279919,1.54194263,-0.11724868,-0.05188665,-0.07644348,0.01219850,0.99445384,0.06058844,-0.04562748,0.07286109
1761618742930,-1.07913839,-0.99734849,0.07438887,0.01949027,-0.08493789,0.04837446,0.99435831,0.06080284,-0.04656179,0.07339321
1761618742941,2.13408895,-1.19309659,-0.11175750,-0.03532676,-0.10629186,0.06246427,0.99431871,0.06061560,-0.04712514,0.07372427
1761618742952,-1.24445129,0.94632004,0.25872509,-0.14567545,-0.12849707,0.09486548,0.99429489,0.05982167,-0.04782545,0.07424129
1761618742963,0.22211456,0.29386984,-0.05739934,-0.13312810,-0.10737267,0.10213162,0.99426774,0.05908281,-0.04842137,0.07480812
1761618742974,-0.17044209,0.07253671,-0.01704421,-0.14206597,-0.11027715,0.12666613,0.99423047,0.05828014,-0.04904443,0.07552378
1761618742986,-0.20087890,-0.34086306,-0.04124930,-0.10905798,-0.09025397,0.11547516,0.99418993,0.05764215,-0.04957242,0.07619931
1761618742996,0.36335022,0.29407793,-0.08421424,-0.08493577,-0.05289308,0.09243940,0.99416400,0.05718774,-0.04985540,0.07669386
1761618743008,-0.33479119,0.23789981,-0.01167040,-0.09806637,-0.03424198,0.11084455,0.99413772,0.05663857,-0.05004715,0.07731459
1761618743019,0.11640620,0.50402470,-0.35097742,-0.07088632,0.00590668,0.11859962,0.99410980,0.05623806,-0.05001378,0.07798468
1761618743030,-0.00933584,0.33591505,0.18811709,-0.07198122,0.03425161,0.11977889,0.99408912,0.05583137,-0.04982026,0.07866143
1761618743041,0.52346600,-0.47705837,-0.39443562,-0.03639902,0.06200767,0.11508044,0.99406831,0.05564209,-0.04949782,0.07925985
1761618743053,-1.13711648,-0.18989367,0.71919681,-0.03061755,0.08229792,0.07158788,0.99406871,0.05544461,-0.04896700,0.07972159
1761618743064,1.33976210,0.14454244,-0.30580589,-0.00728403,0.09938109,0.09136938,0.99405803,0.05540710,-0.04845518,0.08019214
1761618743074,0.34965887,0.41397816,0.02704316,-0.00143356,0.12680797,0.07441235,0.99405906,0.05539979,-0.04780846,0.08057165
1761618743085,-0.87917947,0.18728991,0.07359751,-0.02430589,0.08650158,0.06085174,0.99406217,0.05526246,-0.04731973,0.08091546
1761618743097,-0.17778829,0.23898085,-0.16160873,0.00671502,0.08490116,0.05134808,0.99405892,0.05530275,-0.04681032,0.08122355
1761618743108,1.03330883,0.39566514,-0.16425812,0.02601706,0.08977789,0.07346016,0.99404197,0.05543804,-0.04634348,0.08160554
1761618743120,0.09704335,-0.42221933,0.26637749,-0.00048269,0.05034712,0.07973002,0.99401699,0.05543517,-0.04604391,0.08207993
1761618743130,1.20037306,0.19092101,-0.08474205,0.00962997,0.05440522,0.09816381,0.99398529,0.05548476,-0.04576372,0.08258548
1761618743141,-0.66553634,-0.21084600,-0.31039842,0.01819565,0.03702102,0.10064445,0.99394175,0.05558757,-0.04555455,0.08315412
1761618743153,-0.80180927,0.73708969,0.19005256,-0.02130273,0.02726388,0.13333202,0.99388956,0.05546081,-0.04539233,0.08394744
1761618743163,1.02467479,0.61695325,-0.22343148,-0.02588952,0.01288529,0.14827646,0.99383576,0.05532878,-0.04532662,0.08470365
1761618743175,-0.75502670,-0.20146703,-0.06906555,-0.00257126,-0.00599432,0.12477215,0.99377414,0.05531412,-0.04536079,0.08541485
1761618743186,-0.15318522,-0.70521385,-0.17336531,0.03988414,-0.00962040,0.09039385,0.99371454,0.05554146,-0.04541562,0.08593010
1761618743198,-0.03128694,0.11981669,0.23455100,-0.01393559,-0.01122485,0.07942736,0.99367613,0.05546064,-0.04548073,0.08639078
1761618743208,0.57726934,-0.26690777,-0.11779748,-0.02257659,-0.01768356,0.08970399,0.99363632,0.05533872,-0.04557622,0.08687518
1761618743219,1.00052727,0.55726607,-0.40992330,-0.05306900,-0.03881604,0.10779022,0.99359362,0.05506542,-0.04577612,0.08743030
1761618743230,-0.81822900,-0.77539367,-0.07666658,-0.00213620,-0.04571977,0.09693737,0.99353295,0.05505313,-0.04603901,0.08798769
1761618743242,-0.12885318,-0.27493250,0.36542770,-0.03543105,-0.05129324,0.07544372,0.99349092,0.05484409,-0.04634164,0.08843281
1761618743253,-0.00242762,-0.04179097,0.09451521,-0.09266150,-0.07406906,0.08231992,0.99346059,0.05435298,-0.04673421,0.08886910
1761618743264,-0.43451559,0.12050129,-0.22720936,-0.07359037,-0.05771013,0.07691805,0.99342917,0.05394088,-0.04705738,0.08929984
1761618743275,0.33504252,0.00478619,-0.22533882,-0.04295695,-0.04483437,0.09007716,0.99338640,0.05370891,-0.04729949,0.08978626
1761618743313,-1.24378287,-0.16405143,0.39382325,-0.00698652,-0.01181269,0.02758761,0.99333494,0.05357512,-0.04752570,0.09031456
1761618743332,5.08779815,0.45619398,-1.89750765,-0.01631386,0.00391106,0.26730297,0.99311569,0.05342340,-0.04748933,0.09280048
1761618743342,2.92377111,-1.33287840,0.21856344,-0.09584396,0.13031676,0.36346966,0.99299496,0.05292022,-0.04680517,0.09470870
1761618743352,-7.25366190,-0.00286626,0.83632715,-0.07202526,0.12059799,0.23270249,0.99292806,0.05254569,-0.04617806,0.09591875
1761618743365,-2.00194769,0.21406777,0.23378787,-0.05742224,0.15425557,0.11799938,0.99291955,0.05217531,-0.04518311,0.09667985
1761618743377,0.10353352,-0.24332658,0.38611366,-0.06444138,0.19474822,0.20197608,0.99287433,0.05179511,-0.04403409,0.09787150
1761618743387,0.66211668,-0.21634213,-0.23873176,-0.03833503,0.23557122,0.21248999,0.99283055,0.05160343,-0.04285624,0.09893395
1761618743397,0.24278777,0.18882148,-0.52826199,-0.02504868,0.24814134,0.24810517,0.99276677,0.05148070,-0.04164034,0.10014967
1761618743408,-0.65874171,-0.05654131,0.23634634,-0.01653565,0.20919550,0.19577305,0.99271145,0.05139223,-0.04052115,0.10119706
1761618743419,0.66611230,0.65472801,-0.56400631,-0.03182811,0.25304621,0.19310682,0.99266708,0.05121558,-0.03911674,0.10226880
1761618743430,0.26898522,0.00818577,-0.26871251,-0.03518814,0.26600832,0.21072499,0.99261153,0.05101501,-0.03760049,0.10346993
1761618743442,-0.32981389,-0.19556162,0.62667888,-0.03850403,0.26689620,0.19415927,0.99256106,0.05078591,-0.03601246,0.10462518
1761618743452,0.27581102,-0.44164547,-0.05859961,-0.10659269,0.29012541,0.24148412,0.99251073,0.05024229,-0.03453282,0.10585675
1761618743464,-0.67087978,0.34488466,0.32656501,-0.07585219,0.27359436,0.16948312,0.99248125,0.04979855,-0.03293230,0.10684822
1761618743475,0.53735062,0.16659540,-0.33793733,-0.00165870,0.28810445,0.20589624,0.99241178,0.04978960,-0.03137653,0.10796006
1761618743487,-0.35965915,-0.28900261,0.11592012,0.02816083,0.25446626,0.17381102,0.99233767,0.04995575,-0.02987518,0.10898555
1761618743498,0.06243179,0.28569170,0.02779310,0.02226554,0.26082832,0.16502840,0.99227235,0.05008043,-0.02841454,0.10990971
1761618743508,0.31329607,-0.21169532,0.20601447,0.01827785,0.27853018,0.20394243,0.99218912,0.05017639,-0.02695226,0.11098040
1761618743519,0.37422442,-0.09422298,0.24253487,0.02374258,0.28636953,0.23285286,0.99208299,0.05030342,-0.02542018,0.11222617
1761618743531,-0.14020973,-0.03048906,0.36484906,0.02820938,0.26011482,0.26714853,0.99192407,0.05047972,-0.02379446,0.11389585
1761618743542,0.27429490,0.52825934,-0.47389612,0.05113967,0.28106871,0.33006974,0.99174417,0.05074821,-0.02231885,0.11562871
1761618743553,-0.44335554,0.55264678,-0.55096043,0.07867228,0.27873957,0.32812591,0.99154688,0.05117304,-0.02081366,0.11740059
1761618743565,-0.53574450,-0.15749133,0.56521579,0.07781587,0.23487492,0.31920013,0.99132451,0.05163604,-0.01941615,0.11929983
1761618743575,0.63356231,-0.14832228,-0.92179835,0.10253698,0.31200356,0.35809245,0.99110989,0.05214873,-0.01785614,0.12109030
1761618743586,-0.71821799,0.01598739,0.76920984,0.04915080,0.25345097,0.36435057,0.99085540,0.05243872,-0.01636078,0.12323996
1761618743598,0.63667409,0.05830698,-0.17200192,0.04344288,0.27459375,0.39787005,0.99057973,0.05268851,-0.01478186,0.12552772
1761618743609,-0.26806027,0.26764263,-0.03578849,0.03457542,0.25473381,0.41817960,0.99029535,0.05287868,-0.01338083,0.12782770
1761618743620,0.42367230,0.65659949,-0.26355939,0.02818716,0.24903469,0.41735554,0.99000295,0.05303512,-0.01199868,0.13014403
1761618743632,-0.13613348,-0.06171784,-0.30148717,0.10705027,0.22340774,0.39537663,0.98967737,0.05366136,-0.01069175,0.13245698
1761618743642,0.94557420,1.28957769,-0.25468504,0.12314964,0.24527317,0.51940020,0.98930522,0.05427711,-0.00946538,0.13505398
1761618743653,-0.85249290,-1.38480801,0.39181322,0.14166946,0.18757070,0.47276231,0.98889501,0.05509171,-0.00838685,0.13777237
1761618743664,0.47001581,0.55961902,0.24320638,0.08756004,0.20915376,0.52249697,0.98848417,0.05556015,-0.00726788,0.14056772
1761618743675,-0.31572244,-0.70480951,-0.41727888,0.07394662,0.16650456,0.49697140,0.98806746,0.05597426,-0.00633545,0.14335076
1761618743687,-0.81329592,0.27832132,0.27262621,0.02953774,0.16078354,0.42962013,0.98768570,0.05615148,-0.00537075,0.14592848
1761618743698,1.07181631,0.09436376,-0.41879241,0.10207095,0.21830201,0.49558559,0.98725285,0.05671287,-0.00417009,0.14865421
1761618743709,-0.09598780,0.27133530,-0.73247606,0.17570736,0.20180388,0.45277082,0.98683852,0.05764412,-0.00310053,0.15105389
1761618743720,0.64457409,0.04043201,0.57714067,0.14432566,0.19034936,0.42174314,0.98644039,0.05843070,-0.00206313,0.15335239
1761618743732,-0.70394191,-0.16115478,-0.14050958,0.16407124,0.15823280,0.34158989,0.98606547,0.05940692,-0.00112164,0.15538485
1761618743743,0.57786124,-0.05238209,-0.31077954,0.19422511,0.18166868,0.37475695,0.98565978,0.06051400,-0.00008613,0.15752097
1761618743755,-0.34646738,0.34133427,0.10858741,0.17751868,0.16051074,0.40618580,0.98520854,0.06156136,0.00086088,0.15991746
1761618743765,1.14214201,0.36469109,-0.60930317,0.20215934,0.20550030,0.47066019,0.98475399,0.06258227,0.00189866,0.16229430
1761618743776,-0.20444379,-0.53112684,0.79484728,0.16494881,0.20436263,0.41642717,0.98431288,0.06348949,0.00302266,0.16458464
1761618743787,-0.50824380,-0.57667603,0.00001611,0.11745029,0.12693731,0.35871106,0.98391601,0.06417070,0.00375889,0.16666517
1761618743798,1.64103159,0.08217427,-0.57301367,0.10453377,0.16635666,0.34832168,0.98356482,0.06471950,0.00463226,0.16849386
1761618743808,-0.41412388,0.58861276,-0.07352591,0.09548491,0.12718210,0.32013010,0.98323893,0.06522080,0.00529997,0.17017454
1761618743847,-1.32006973,-0.39433336,0.80083971,0.03673822,0.03267754,0.08373194,0.98290696,0.06592984,0.00593065,0.17179057
1761618743866,5.88031679,0.91206021,-4.17878466,0.27017369,0.24623577,0.43995043,0.98198969,0.06845597,0.00823295,0.17590410
1761618743876,-1.54012961,-0.94536174,1.69067675,0.17092430,0.20776469,0.29143703,0.98164164,0.06935332,0.00932372,0.17743415
1761618743886,2.33949556,0.62523758,-1.02662435,0.17053061,0.21194563,0.28263647,0.98131718,0.07019745,0.01037285,0.17883320
1761618743898,-4.32574242,-0.50000671,2.80230160,0.08913583,0.11280690,0.14759057,0.98111306,0.07072335,0.01103841,0.17970398
1761618743909,-0.54234378,-0.59614828,0.20529898,0.05267321,0.06904970,0.13653384,0.98094400,0.07102359,0.01143199,0.18048223
1761618743921,0.01900658,-0.71902613,0.71781529,0.01230156,0.10100618,0.09017147,0.98083921,0.07109247,0.01199763,0.18098719
1761618743931,0.95748032,0.22596013,-0.39137545,-0.03182951,0.11344841,0.08956528,0.98075853,0.07092855,0.01258189,0.18144845
1761618743943,-1.23765465,-0.29003968,0.46555178,-0.02550105,0.08639167,0.06598327,0.98069005,0.07077682,0.01309592,0.18184105
1761618743953,2.33041684,0.03693706,-1.31181483,-0.07127887,0.10162596,0.05855789,0.98065194,0.07039548,0.01363961,0.18215433
1761618743965,-1.18479611,0.35192448,0.68019854,-0.10111091,0.07177600,-0.01066172,0.98069825,0.06982420,0.01404515,0.18209409
1761618743976,-0.29616759,-0.08936708,-0.13674060,-0.07245384,0.05125498,-0.01732486,0.98074205,0.06940759,0.01433986,0.18199448
1761618743986,1.09371330,0.10656523,-0.82395154,-0.06544169,0.07095273,-0.00154752,0.98076172,0.06907384,0.01470172,0.18198658
1761618743998,-0.93022317,0.13106157,0.60839700,-0.05935125,0.09624834,-0.02159719,0.98079928,0.06874147,0.01524071,0.18186564
1761618744009,-0.01930739,-0.71723295,-0.13574782,-0.01872280,0.10987635,-0.03979004,0.98083781,0.06863756,0.01585053,0.18164480
1761618744020,0.62855408,0.25617671,0.56167669,-0.06800624,0.12898630,-0.04473243,0.98089935,0.06825333,0.01657930,0.18139207
1761618744031,-0.30714900,-0.15322441,-0.10596174,-0.08372650,0.10450846,-0.05914419,0.98098373,0.06778027,0.01716977,0.18105790
1761618744043,-0.16389408,0.65261986,0.11627577,-0.09781580,0.10264714,-0.07355837,0.98108989,0.06721783,0.01775999,0.18063494
1761618744055,-0.54194875,-0.42329511,0.49267414,-0.05544397,0.09749320,-0.06465239,0.98117320,0.06688517,0.01834495,0.18024703
1761618744065,1.70205892,-0.27446411,-1.29420609,-0.05049216,0.14094065,-0.08673700,0.98125486,0.06663776,0.01903556,0.17982202
1761618744076,-1.05383869,-0.00554461,0.96855067,-0.04614656,0.12686639,-0.06482010,0.98132603,0.06637472,0.01975870,0.17945254
1761618744087,0.26034806,0.21954765,-0.25015468,-0.05256814,0.12911024,-0.07272358,0.98140263,0.06609085,0.02045590,0.17905983
1761618744098,-0.24289709,0.03745881,0.23210910,-0.02705610,0.10964865,-0.08006674,0.98148154,0.06593934,0.02106993,0.17861146
1761618744109,0.16623503,0.06237112,0.14752501,-0.01088817,0.12044491,-0.06802653,0.98153913,0.06587945,0.02173238,0.17823731
1761618744121,-0.90317594,-0.28766108,0.16199368,-0.00665916,0.09839456,-0.08517468,0.98162123,0.06583950,0.02232274,0.17772627
1761618744132,0.81913535,-0.30450378,-0.01255455,-0.01587130,0.10901329,-0.08405848,0.98169617,0.06575300,0.02291687,0.17726815
1761618744142,0.28133680,0.12780360,0.04648441,-0.02621320,0.10558024,-0.06854721,0.98175719,0.06561538,0.02347116,0.17690827
1761618744154,-0.48843678,0.23730278,0.40964270,-0.04592635,0.10031592,-0.02916367,0.98179076,0.06535360,0.02404296,0.17674204
1761618744165,0.03324049,-0.06117225,0.10743172,-0.03567950,0.09668620,-0.04221591,0.98183354,0.06515201,0.02458924,0.17650352
1761618744176,0.12192949,0.18447938,0.23918582,-0.06000294,0.08453888,-0.04106417,0.98188420,0.06482199,0.02505420,0.17627767
1761618744188,-0.09124561,0.11645645,-0.05543570,-0.03475958,0.07156923,-0.01554645,0.98190283,0.06462213,0.02546573,0.17618828
1761618744198,0.30165809,0.16415262,0.21601218,-0.03477554,0.06447761,-0.03621978,0.98194115,0.06443434,0.02581391,0.17599269
1761618744210,-0.90905786,0.19615486,0.09222541,-0.02856726,0.06159580,-0.02853408,0.98197300,0.06426436,0.02618040,0.17582291
1761618744221,1.01194344,-0.35062649,-0.46572288,0.01401402,0.06056833,-0.05307328,0.98201020,0.06433934,0.02650444,0.17553897
1761618744232,-0.12121910,0.03125246,0.35024792,0.03039541,0.08042242,-0.02538725,0.98201213,0.06450499,0.02694274,0.17540061
1761618744243,0.24762186,-0.16891322,0.39785455,0.03136215,0.07360305,-0.04676020,0.98203465,0.06467121,0.02733284,0.17515278
1761618744254,-0.87599932,0.34822877,0.30717522,0.01936914,0.04396899,-0.06886625,0.98209030,0.06478162,0.02758346,0.17476024
1761618744265,0.42214987,-0.18345907,0.02124231,0.04017812,0.02115717,-0.05327977,0.98212452,0.06500260,0.02769983,0.17446720
1761618744276,-0.31744450,0.23692246,0.02216859,0.03347849,-0.00463794,-0.02505764,0.98213775,0.06519008,0.02767386,0.17432688
1761618744287,0.14564772,0.18532236,0.18000365,0.03753981,0.00737046,-0.01000147,0.98213259,0.06539842,0.02771476,0.17427137
1761618744299,-0.65167784,-0.11965515,0.11636752,0.03822898,0.02159013,0.00307379,0.98211054,0.06562588,0.02784322,0.17428966
1761618744311,-0.01302854,-0.08931276,0.02120926,0.02971616,0.01573534,0.00409295,0.98209236,0.06579675,0.02793370,0.17431320
1761618744322,0.39589125,-0.21062451,-0.13342517,0.03855598,0.02458839,-0.00519426,0.98207946,0.06600688,0.02806771,0.17428489
1761618744332,0.04205873,-0.09238916,-0.03066073,0.04178193,0.01437024,0.00961808,0.98205333,0.06622833,0.02814387,0.17433586
1761618744343,-0.11805382,-0.07063801,0.16179853,0.06467791,0.01894930,-0.02223868,0.98204808,0.06657759,0.02824620,0.17421577
1761618744380,-1.40810917,0.07319090,0.27054590,0.00667534,0.00214836,-0.00003641,0.98203858,0.06670242,0.02828637,0.17421509
1761618744400,4.91585435,-0.15562261,-0.76600708,0.04691816,0.03829189,0.04039509,0.98192662,0.06715987,0.02865972,0.17460895
1761618744410,-1.12900533,-0.24115293,0.39640780,0.04690978,0.04332100,0.05125026,0.98185520,0.06740615,0.02888715,0.17487801
1761618744421,0.75484032,0.40257481,-0.14669015,0.01533138,0.04183413,0.05079089,0.98179395,0.06748893,0.02911306,0.17515228
1761618744435,-3.89858528,0.13347447,0.52059034,0.02426936,0.02157864,0.02865771,0.98174567,0.06764669,0.02925332,0.17533856
1761618744444,0.42438507,-0.00233834,-0.44616369,0.07639074,0.01502399,0.01978332,0.98169936,0.06802864,0.02932844,0.17543747
1761618744455,-0.33752977,0.39990530,0.65550331,0.07300586,0.06215123,0.04193101,0.98161994,0.06843017,0.02967027,0.17566809
1761618744465,0.32717531,-0.62422319,-0.17447905,0.09166124,0.02567458,0.05375080,0.98153586,0.06888848,0.02979864,0.17593685
1761618744476,0.26905832,0.05849629,0.34383506,0.05025444,0.06258469,0.05689707,0.98144977,0.06916488,0.03014286,0.17624978
1761618744488,-0.06703090,-0.20316180,0.12361383,0.03463646,0.03414554,0.05168683,0.98137624,0.06936404,0.03033919,0.17654698
1761618744499,0.54377790,-0.12971764,0.27280506,-0.01412378,0.02566867,0.05386231,0.98132449,0.06928706,0.03047909,0.17684053
1761618744515,-1.70903846,0.21003822,-0.12394052,-0.01475711,-0.00252896,0.01859936,0.98130584,0.06916384,0.03045797,0.17699583
1761618744526,1.59759436,0.27107428,-0.16556213,-0.01369690,0.00119811,-0.01573831,0.98132693,0.06908714,0.03046468,0.17690770
1761618744537,-0.08494481,0.20365301,-0.60933531,0.06356085,0.02804229,-0.06530439,0.98136022,0.06941765,0.03061050,0.17656812
1761618744549,-0.70314885,0.15248059,0.15909816,0.08463016,0.04254465,-0.06792254,0.98139014,0.06993813,0.03087215,0.17615039
1761618744560,0.38066380,0.20586251,-0.30368622,0.12410346,0.06420430,-0.11559316,0.98144448,0.07062690,0.03122848,0.17550885
1761618744572,0.11839113,-0.35175714,0.20095390,0.12401231,0.06843375,-0.10301578,0.98148605,0.07133997,0.03162198,0.17491651
1761618744593,-1.25510311,-0.21423196,0.19440519,0.04867666,0.01817782,-0.05329620,0.98154377,0.07186568,0.03181830,0.17434091
1761618744595,425.48840210,21.07679782,-25.44464460,0.06833263,0.13954793,-1.41031874,0.98174783,0.07192376,0.03193691,0.17314214
1761618744634,-19.25158413,-0.89796405,1.19130048,-0.00365499,0.00389204,-0.03071142,0.98185462,0.07185341,0.03201184,0.17255095
1761618744643,22.21789777,0.69223257,-4.06629890,0.02825009,0.12517945,-0.28478644,0.98206200,0.07198759,0.03260644,0.17119821
1761618744657,-11.93583550,-0.60125126,2.20305239,0.00783205,0.01066461,-0.12039135,0.98219705,0.07204046,0.03267843,0.17038557
1761618744677,-1.39925604,-0.04756736,0.21922932,0.00666330,-0.01435167,-0.07739605,0.98233421,0.07210876,0.03253132,0.16959226
1761618744688,2.83805938,0.08036169,-0.46879571,-0.00355931,-0.02015679,-0.12382629,0.98244998,0.07209025,0.03242651,0.16894836
1761618744699,-1.03378398,-0.07928182,0.02795560,-0.00709636,-0.02026791,-0.08290189,0.98254252,0.07204767,0.03230490,0.16845095
1761618744710,-0.10797020,-0.22139219,0.07362167,0.00648189,-0.01763403,-0.08999483,0.98262472,0.07208203,0.03221144,0.16797398
1761618744721,-0.56820969,-0.15037714,-0.06522184,-0.01924571,0.01055905,-0.06735516,0.98269634,0.07197233,0.03227162,0.16759005
1761618744732,-0.09020738,-0.61991012,-0.36669271,0.00201590,0.00036642,-0.05987516,0.98275057,0.07198321,0.03227360,0.16726673
1761618744743,0.52151952,0.02048927,0.23091239,-0.02181228,0.02028715,-0.07149491,0.98282383,0.07186106,0.03238721,0.16686636
1761618744746,92.99019501,-23.03978795,-20.99906997,-0.31600101,0.10676247,-0.27992704,0.98289753,0.07151346,0.03250465,0.16655844
1761618744755,-20.65190458,5.32594071,5.33784814,-0.08628275,0.04168149,-0.03820195,0.98295030,0.07111225,0.03269847,0.16638080
1761618744766,-1.69867567,0.40417685,-0.02690240,-0.05954979,0.02744833,-0.06423303,0.98302722,0.07079068,0.03284669,0.16603394
1761618744777,0.89819367,-0.02264820,-0.21014833,-0.05968119,0.03677170,-0.05480618,0.98309427,0.07046542,0.03304710,0.16573525
1761618744788,-0.35188061,0.13195167,-0.21143397,-0.03672593,0.05072062,-0.05445537,0.98315278,0.07025241,0.03334127,0.16541940
1761618744799,0.02795279,0.00787299,0.09395151,-0.03223440,0.06971083,-0.05916292,0.98320803,0.07007189,0.03373166,0.16508809
1761618744811,-0.01851264,0.08324208,-0.01320850,-0.03120410,0.07658378,-0.04588006,0.98324840,0.06989871,0.03415670,0.16483346
1761618744862,-0.79461039,0.08937356,0.20559369,-0.01292470,0.01571413,-0.00995563,0.98330040,0.06956848,0.03455819,0.16457909
1761618744889,3.20468842,-0.47885944,-0.43561543,-0.14884278,0.15037155,-0.10804099,0.98361570,0.06752190,0.03662580,0.16309353
1761618744930,-1.80258913,0.33336460,0.26468202,-0.00619626,0.04804164,-0.04658100,0.98374323,0.06739673,0.03759624,0.16215259
1761618744955,2.15476163,0.22962989,-0.13948808,0.01196313,0.07813283,-0.17487590,0.98406404,0.06755165,0.03860806,0.15988795
1761618744977,0.01259650,0.43015353,0.03059400,0.12319490,0.03945937,-0.17424029,0.98426248,0.06890680,0.03904211,0.15797131
1761618744999,-1.28981111,-0.28120353,0.19126222,0.08046643,0.01813166,-0.15029905,0.98445438,0.06978388,0.03923975,0.15633305
1761618745022,-0.45812121,-0.14687674,0.06088545,0.04057012,0.01800584,-0.12743232,0.98464043,0.07024030,0.03944232,0.15489943
1761618745033,0.32288715,0.11694613,-0.11232878,0.05092619,0.03000530,-0.16510260,0.98475935,0.07052803,0.03961185,0.15396660
1761618745045,-0.39984739,-0.07846531,0.03486514,0.04435405,0.04095799,-0.11948407,0.98484423,0.07080081,0.03986374,0.15323178
1761618745056,-0.35127834,0.40217718,-0.07458308,0.04631208,0.02282075,-0.12900305,0.98492936,0.07105089,0.03998697,0.15253516
1761618745066,0.33731976,0.02585899,-0.29819553,0.06915660,0.03187955,-0.15049537,0.98501327,0.07139322,0.04014477,0.15179021
1761618745077,-0.51962189,-0.58941411,0.12733272,0.07962143,0.02836297,-0.11275034,0.98507094,0.07183512,0.04030219,0.15116444
1761618745088,0.76821829,-0.03743129,-0.13787293,0.08283192,0.04456670,-0.13521343,0.98514203,0.07229483,0.04054953,0.15041401
1761618745100,-0.32984097,-0.13246637,0.30353662,0.03523064,0.04434966,-0.16162498,0.98525605,0.07249389,0.04080011,0.14950083
1761618745111,-0.26894241,-0.12524589,0.19407918,-0.00027090,0.01978858,-0.13334147,0.98537038,0.07249229,0.04091686,0.14871411
1761618745155,-0.63499449,0.01640266,-0.00587030,-0.00303503,0.00229662,-0.03698587,0.98549452,0.07242612,0.04096693,0.14790782
1761618745183,1.17567797,-0.01805448,-0.14601620,-0.00112255,0.03912827,-0.18167338,0.98584735,0.07241058,0.04150885,0.14539164
1761618745201,0.59509489,-0.32146505,0.05296395,-0.06415144,0.08594186,-0.17197473,0.98608634,0.07182680,0.04229092,0.14382667
1761618745211,0.44718656,0.46718635,-0.56571746,-0.02258509,0.08391296,-0.26017231,0.98627068,0.07171049,0.04272308,0.14248679
1761618745233,-1.40630232,0.19200684,-0.06111831,-0.00333712,0.07749243,-0.09568425,0.98638755,0.07167378,0.04357549,0.14143426
1761618745246,-0.27757124,-0.14744022,0.03851110,-0.00510245,0.10064106,-0.10427530,0.98645511,0.07164189,0.04420450,0.14078254
1761618745267,-0.55883424,-0.14343745,0.25897734,0.01471264,0.06562241,-0.06205220,0.98650529,0.07179563,0.04489025,0.14013409
1761618745278,0.59391941,-0.00127469,0.05009040,-0.02488293,0.10222246,-0.09665493,0.98657025,0.07164634,0.04550359,0.13955416
1761618745289,0.30600122,-0.11196647,-0.36801800,-0.02028408,0.09728214,-0.06021153,0.98659841,0.07154187,0.04600459,0.13924407
1761618745300,-0.35755087,0.42149705,0.07646353,-0.02382746,0.09337824,-0.05883637,0.98662888,0.07141320,0.04650883,0.13892636
1761618745311,-0.11847951,0.09245151,0.17116951,-0.00686933,0.10460080,-0.08355197,0.98666893,0.07137542,0.04708414,0.13846682
1761618745322,-0.10840664,-0.32060866,-0.14342195,0.01980251,0.10288981,-0.06317573,0.98668282,0.07148632,0.04766032,0.13811304
1761618745333,0.39386067,0.03150954,0.10448519,0.01265569,0.12004380,-0.06925529,0.98669962,0.07155909,0.04835057,0.13771482
1761618745335,77.60467161,-5.40890555,-30.65233645,0.08917460,0.77283803,-0.61695638,0.98673067,0.07162597,0.04893020,0.13725210
1761618745346,-10.87989173,0.80525548,4.12193918,0.00362406,0.11301392,-0.08070454,0.98675932,0.07164554,0.04954048,0.13681630
1761618745356,-0.20006984,-0.02237498,-0.07979241,0.00440021,0.11295560,-0.07768162,0.98678345,0.07166798,0.05011655,0.13642012
1761618745367,0.13905819,0.03783988,-0.10415864,0.00910339,0.13920620,-0.08258844,0.98680386,0.07171941,0.05090307,0.13595350
1761618745379,-0.12972454,0.09390766,-0.03413206,0.01928591,0.12627617,-0.07005769,0.98681373,0.07183320,0.05164810,0.13554016
1761618745390,0.04625488,0.17083951,-0.12026975,0.02240961,0.16131645,-0.07445124,0.98681407,0.07195309,0.05251114,0.13514184
1761618745400,-0.02008470,0.08005347,-0.20703403,0.06405198,0.15478477,-0.09099954,0.98681136,0.07227655,0.05329280,0.13468230
1761618745412,-0.14088987,0.17000170,-0.01167577,0.06249874,0.12401477,-0.09920332,0.98682504,0.07267030,0.05407409,0.13405731
1761618745423,0.54360143,0.21624635,-0.45570201,0.10035810,0.14632958,-0.12150833,0.98683003,0.07318212,0.05482038,0.13343762
1761618745434,0.05068848,0.13587677,0.00273593,0.07810725,0.11780099,-0.13146771,0.98686095,0.07363514,0.05550362,0.13267511
1761618745475,-0.42086670,-0.18965256,0.35034602,0.01626377,0.02606208,-0.04073470,0.98691705,0.07396449,0.05603138,0.13185023
1761618745502,0.47082962,0.31162167,-0.47137939,0.08986156,0.13924185,-0.15474130,0.98699507,0.07520008,0.05794595,0.12972254
1761618745513,2.73475104,0.91749868,-2.72167759,0.16075091,0.35599586,-0.47443593,0.98714313,0.07604403,0.05981493,0.12723175
1761618745534,-1.39809222,-0.45609436,1.07617246,0.08549307,0.09022249,-0.15756690,0.98722600,0.07692460,0.06074422,0.12560881
1761618745546,-0.31526089,-0.00811172,0.17810202,0.08202817,0.06397409,-0.15202834,0.98728299,0.07744958,0.06115366,0.12463583
1761618745567,-0.28569123,-0.31296687,0.49094886,0.03568362,0.03770730,-0.07935303,0.98733304,0.07781891,0.06154393,0.12381453
1761618745578,0.39093144,0.15922647,-0.69610407,0.02278150,0.04914880,-0.11038491,0.98738533,0.07795218,0.06183145,0.12316877
1761618745590,0.08723873,-0.10028393,0.13778407,0.01752252,0.04640809,-0.11252434,0.98744257,0.07805556,0.06210526,0.12250488
1761618745601,0.24856440,0.11213045,-0.29318307,0.00830653,0.06267588,-0.11114681,0.98749013,0.07809876,0.06243117,0.12192692
1761618745612,-0.17409946,-0.36484694,-0.13892884,0.00925357,0.01869767,-0.08586412,0.98753823,0.07815012,0.06253494,0.12145037
1761618745623,-0.09143003,0.77167566,-0.37638235,-0.00585201,0.02376691,-0.11213207,0.98760687,0.07811851,0.06266328,0.12084486
1761618745634,0.07532239,-0.26975709,-0.21825893,0.01859178,0.02227984,-0.10352859,0.98766147,0.07822263,0.06278805,0.12026510
1761618745636,19.33408563,10.44612948,-51.86775103,0.15903154,0.09702904,-0.53404545,0.98771446,0.07840551,0.06289963,0.11965095
1761618745646,-4.32647670,-2.34853829,11.68675089,0.01320276,0.03010014,-0.10661156,0.98776455,0.07847219,0.06305164,0.11911256
1761618745656,0.09161882,-0.38455854,-0.06595171,-0.00132870,0.03610230,-0.08959143,0.98780831,0.07846541,0.06323576,0.11865564
1761618745667,-0.25870212,0.06214975,0.23993502,-0.02147087,0.01880014,-0.09688683,0.98787492,0.07834732,0.06333916,0.11812276
1761618745679,-0.21750443,0.12538297,-0.38005391,-0.04110837,0.02220980,-0.11456499,0.98796167,0.07811712,0.06346354,0.11748120
1761618745690,0.18282192,-0.00879261,0.09877905,-0.01061121,0.03005712,-0.08817580,0.98801553,0.07805610,0.06363637,0.11697419
1761618745702,0.02163344,-0.12151911,-0.27222084,0.00756112,0.02909670,-0.09195314,0.98806376,0.07809958,0.06380367,0.11644546
1761618745713,-0.09033261,0.42004495,-0.06873578,-0.01230282,0.00704573,-0.07683750,0.98811966,0.07802761,0.06384489,0.11599596
1761618745723,0.24150150,-0.02722248,-1.05332168,0.02946113,-0.00834496,-0.07442965,0.98815467,0.07817638,0.06380275,0.11562009
1761618745734,-0.22288694,0.08174478,0.29691599,0.02412696,-0.00867171,-0.07787577,0.98819418,0.07829943,0.06375852,0.11522292
1761618745746,-0.17844895,-0.57126109,0.92189929,0.01142334,-0.02072795,-0.04879382,0.98823299,0.07837197,0.06362690,0.11491308
1761618745756,0.29563684,-0.11332394,-0.59489863,-0.03691138,-0.02928165,-0.08236751,0.98830410,0.07818926,0.06348196,0.11450536
1761618745767,-0.24445538,0.12030303,0.69350990,-0.06892894,-0.05406919,-0.09256817,0.98841389,0.07780326,0.06317917,0.11398698
1761618745779,-0.10724542,-0.05889495,-0.43253261,-0.05802614,-0.06439936,-0.08359282,0.98851718,0.07747541,0.06281531,0.11351468
1761618745790,-0.12799509,0.39016304,0.19045208,-0.04966910,-0.05485300,-0.08974520,0.98861335,0.07720471,0.06251636,0.11302557
1761618745801,0.06730096,-0.11215923,-0.22654194,-0.01091262,-0.05615102,-0.06053930,0.98867553,0.07714469,0.06220753,0.11269260
1761618745812,-0.42633494,0.10846279,0.15232912,-0.01023814,-0.06099277,-0.06079385,0.98874017,0.07708736,0.06186597,0.11235216
1761618745823,-0.25426585,-0.64694342,-0.26558115,0.00817183,-0.05919101,-0.08171130,0.98880672,0.07713149,0.06154634,0.11191092
1761618745834,0.02946020,0.20812869,0.49747972,-0.02715604,-0.03672338,-0.07536130,0.98887902,0.07697941,0.06134069,0.11148889
1761618745845,0.03711369,0.00730686,0.36613776,-0.04887893,-0.04919123,-0.07262927,0.98896610,0.07669592,0.06105538,0.11106764
1761618745857,0.08415329,0.33057118,-0.14638346,-0.06881629,-0.04617301,-0.07518292,0.98905903,0.07631054,0.06079681,0.11064662
1761618745868,-0.24273239,-0.03412720,-0.07141129,-0.03316091,-0.05930662,-0.07723465,0.98914421,0.07611987,0.06045580,0.11020252
1761618745879,-0.02835582,0.06193463,-0.05269556,0.00487253,-0.05551369,-0.08398170,0.98921457,0.07614764,0.06013937,0.10972383
1761618745891,-0.08664480,0.00171705,-0.09080772,-0.00844786,-0.05912392,-0.06444528,0.98927768,0.07610076,0.05981123,0.10936615
1761618745902,-0.29653655,0.19371842,0.22531807,-0.01434936,-0.04224036,-0.10501867,0.98936145,0.07602184,0.05957891,0.10878855
1761618745912,0.04688751,0.11747067,-0.20661961,-0.01585159,-0.07811866,-0.09131090,0.98944505,0.07593862,0.05916879,0.10830917
1761618745923,0.35710906,-0.71790689,0.10671305,0.02115417,-0.06548615,-0.08637956,0.98951123,0.07605814,0.05879879,0.10782112
1761618745934,-0.24696888,0.05586895,0.17769712,-0.03219857,-0.09221138,-0.11307503,0.98962038,0.07588426,0.05830085,0.10721052
1761618745946,-0.17600262,0.53817336,0.41933510,-0.06313458,-0.10439026,-0.09164585,0.98974131,0.07551808,0.05769539,0.10667897
1761618745956,-0.21833793,-0.11430798,-0.24599602,-0.05393887,-0.11331309,-0.07923409,0.98984308,0.07523221,0.05709483,0.10625903
1761618745968,-0.04411623,-0.06877418,0.11125058,-0.01107949,-0.11299027,-0.08310479,0.98993474,0.07516961,0.05645643,0.10578949
1761618746008,0.12084705,-0.09590462,0.40630670,-0.00234086,-0.02849810,-0.02659272,0.99002894,0.07512197,0.05587650,0.10524833
1761618746038,-0.32283043,0.03071216,-0.57427869,-0.00692522,-0.13010353,-0.06866934,0.99024952,0.07502017,0.05396397,0.10423889
1761618746047,-6.11975153,-0.17000618,-4.62681614,-0.06295228,-0.49691572,-0.17657641,0.99047112,0.07474003,0.05175270,0.10345312
1761618746067,2.20346550,0.19424973,2.29113651,-0.04975554,-0.14608102,-0.02980275,0.99062056,0.07422258,0.05023346,0.10314318
1761618746080,-0.14260364,-0.18505910,-0.16822036,0.01390864,-0.12624652,-0.00160715,0.99065587,0.07431229,0.04941917,0.10313281
1761618746102,0.43855210,-0.20779763,0.41754677,0.00137919,-0.06249248,-0.00449293,0.99069255,0.07432691,0.04875675,0.10308518
1761618746112,-1.40703844,0.34693897,-0.14762664,-0.06752709,-0.11217072,0.01880974,0.99073719,0.07397577,0.04817346,0.10318300
1761618746123,0.49549774,0.05313942,-0.33432165,-0.03756167,-0.09586524,0.04232656,0.99075456,0.07375979,0.04762223,0.10342637
1761618746135,-0.43367189,-0.00244669,0.05907818,-0.03589066,-0.09464273,0.02973472,0.99077724,0.07356059,0.04709697,0.10359140
1761618746146,-0.08979828,-0.05915852,-0.01916476,-0.04090047,-0.09134718,0.01137461,0.99081266,0.07332541,0.04657172,0.10365680
1761618746157,-0.09490225,0.08600267,0.32529426,-0.04395719,-0.10481796,0.02053736,0.99084682,0.07307486,0.04597426,0.10377387
1761618746169,-0.13458842,-0.06622165,-0.17248757,-0.04979979,-0.11767109,0.02537171,0.99088249,0.07279847,0.04532118,0.10391468
1761618746179,-0.29623548,0.32131780,0.23204751,-0.05549956,-0.11595580,0.03722247,0.99091208,0.07249600,0.04468922,0.10411754
1761618746181,-198.33226307,27.42287685,-75.64072413,-0.18697697,-0.96279951,0.27551992,0.99093015,0.07237446,0.04406340,0.10429663
1761618746192,23.63076990,-3.77509448,8.89973699,-0.01218461,-0.11458918,0.03254286,0.99094377,0.07230867,0.04344462,0.10447236
1761618746203,0.33684617,0.17067070,0.29573296,-0.01533710,-0.09030903,0.02309999,0.99095894,0.07221971,0.04292083,0.10460634
1761618746214,-0.34855244,0.30322244,0.00520464,-0.03084529,-0.12103575,0.03727396,0.99097841,0.07204852,0.04224908,0.10481321
1761618746224,-0.76705271,-0.06363131,-0.22045664,-0.01439757,-0.13785067,0.02384325,0.99100017,0.07197653,0.04155983,0.10493243
1761618746234,-0.04799456,-0.01649996,0.06021232,-0.01048755,-0.14752988,0.00902447,0.99103016,0.07192357,0.04081480,0.10497800
1761618746246,0.51533826,0.03366560,0.15838198,0.00793969,-0.11670887,-0.01093325,0.99106091,0.07196922,0.04014373,0.10491514
1761618746257,-0.03914708,-0.21657671,-0.11411798,0.01360975,-0.13189197,-0.00967439,0.99109048,0.07204476,0.03941173,0.10486144
1761618746268,0.01718111,0.10647041,0.15213018,0.01033722,-0.13614481,0.00034466,0.99111519,0.07210058,0.03867654,0.10486330
1761618746280,0.21559248,0.32160488,-0.02555373,-0.00082100,-0.12824185,0.00721853,0.99114132,0.07209553,0.03788786,0.10490770
1761618746291,-0.13864303,-0.61106853,-0.22832361,0.03123324,-0.15034178,0.00396322,0.99115835,0.07227356,0.03703091,0.10493029
1761618746302,-0.73198687,0.26335456,0.14124134,-0.00667253,-0.18074400,-0.00122432,0.99119586,0.07223919,0.03610008,0.10492398
1761618746313,0.70417696,-0.15510508,0.01378745,-0.02145010,-0.15366652,0.01705177,0.99122442,0.07212336,0.03527028,0.10501606
1761618746324,-0.10102760,-0.00650289,0.03958746,-0.02079656,-0.17999660,0.00084276,0.99126927,0.07200274,0.03422630,0.10502095
1761618746335,0.15052811,0.13639254,0.13640881,-0.03739075,-0.17765525,0.00519316,0.99131320,0.07180270,0.03327584,0.10504873
1761618746346,-0.24420994,-0.20173874,-0.18790886,-0.01476882,-0.19093339,0.01899160,0.99134375,0.07171852,0.03218752,0.10515699
1761618746358,0.19892547,0.41083859,0.22973910,-0.04952123,-0.17129522,0.00995834,0.99139091,0.07142635,0.03117688,0.10521574
1761618746368,-0.71721053,-0.45796542,-0.38574932,-0.01836474,-0.21865362,0.01127693,0.99142632,0.07133177,0.03005081,0.10527382
1761618746380,0.51791009,0.22035843,0.24296549,-0.01202053,-0.17877257,0.00736796,0.99145768,0.07126205,0.02901393,0.10531655
1761618746391,-0.45811889,0.08101657,-0.04362353,-0.03247317,-0.20968571,0.01464106,0.99149402,0.07108832,0.02789211,0.10539488
1761618746402,0.15630572,-0.10599589,0.15643683,-0.03113950,-0.19888893,0.00799547,0.99153212,0.07091549,0.02678828,0.10543926
1761618746413,0.04063623,-0.02944917,-0.18286304,-0.04317520,-0.20614863,0.00791055,0.99157481,0.07067587,0.02564416,0.10548316
1761618746424,-0.08338741,-0.11321875,0.13637119,-0.03179897,-0.21296930,0.00547274,0.99161331,0.07050257,0.02448347,0.10551299
1761618746435,0.01658281,0.10912983,-0.03313074,-0.04108277,-0.20653790,0.01784759,0.99164688,0.07027250,0.02332686,0.10561293
1761618746446,0.22893785,-0.11554034,0.09921767,-0.01399129,-0.21025962,-0.00273818,0.99168196,0.07019205,0.02211787,0.10559719
1761618746457,-0.16429489,-0.07013589,-0.03396028,-0.00859210,-0.20786730,-0.00611013,0.99171400,0.07014437,0.02096420,0.10556328
1761618746468,-0.38184945,0.20056834,-0.10459043,-0.01710034,-0.23104927,-0.03296966,0.99176412,0.07005373,0.01973964,0.10538854
1761618746479,0.67619347,-0.13015609,0.16567114,-0.02198038,-0.20915605,0.02454188,0.99178067,0.06993174,0.01857883,0.10552474
1761618746521,0.66866386,-0.01796117,0.09465011,-0.00429485,-0.06055857,-0.00026101,0.99181013,0.06984305,0.01732829,0.10551936
1761618746547,-1.42643804,0.17146938,-0.29647236,-0.00297197,-0.27672244,-0.02086240,0.99189987,0.06980353,0.01364788,0.10524189
1761618746558,-3.90319014,0.28811935,-0.97834419,0.00850273,-0.56189289,-0.06029780,0.99196646,0.06984817,0.01069795,0.10492532
1761618746569,1.61490433,-0.31263526,0.86111285,-0.08535032,-0.44807119,-0.06941333,0.99206238,0.06938301,0.00825596,0.10454702
1761618746590,2.27461880,-0.12361718,0.32120086,-0.03733014,-0.15828040,-0.00941028,0.99211441,0.06897611,0.00653070,0.10444445
1761618746602,-1.30996067,0.04433203,-0.14292283,-0.05131711,-0.26125793,-0.00393842,0.99214760,0.06866564,0.00495009,0.10442062
1761618746614,-0.09150749,0.23773685,0.00086758,-0.03765488,-0.27812551,-0.00402822,0.99217089,0.06845666,0.00340649,0.10439826
1761618746624,0.24062494,-0.19798079,-0.13030685,-0.02171685,-0.26919726,-0.00290423,0.99218420,0.06834264,0.00199321,0.10438302
1761618746636,0.51734656,0.11172100,0.27199649,-0.02831020,-0.21955220,-0.01465191,0.99220654,0.06817561,0.00069785,0.10429657
1761618746646,-0.04035239,-0.03373376,-0.21006078,-0.03388841,-0.23798841,-0.01382079,0.99222665,0.06799600,-0.00056349,0.10422332
1761618746657,-0.04028170,-0.17193147,0.19930797,-0.02761670,-0.23227661,-0.01886265,0.99224639,0.06784411,-0.00184101,0.10411957
1761618746670,0.10653114,-0.16570366,-0.19574882,-0.01244346,-0.22763159,-0.01367695,0.99225686,0.06776758,-0.00324094,0.10403546
1761618746671,-98.58995921,4.21806959,-10.05884468,-0.15625866,-1.52851125,-0.12589518,0.99227288,0.06762695,-0.00461660,0.10392216
1761618746683,15.95460636,-0.96907228,1.84010786,-0.01791941,-0.26202258,-0.01167309,0.99227852,0.06752929,-0.00604463,0.10385854
1761618746693,0.02307730,0.35305756,0.31806535,-0.04160699,-0.24198666,-0.01619569,0.99229425,0.06730253,-0.00736345,0.10377027
1761618746704,-0.39789892,-0.32647444,-0.22221930,-0.03059554,-0.30629535,-0.00104292,0.99229241,0.06713885,-0.00900213,0.10376469
1761618746715,0.30726742,-0.02817081,0.14447383,-0.01398809,-0.28479745,-0.01976319,0.99229352,0.06706121,-0.01058276,0.10365501
1761618746726,0.42680494,-0.09057578,0.14446948,-0.03251393,-0.27243393,-0.00207742,0.99228968,0.06688239,-0.01208115,0.10364358
1761618746737,-0.14080998,0.39150029,0.23881177,-0.04735432,-0.28267364,-0.00379743,0.99228931,0.06663378,-0.01356518,0.10362364
1761618746747,-0.34264156,-0.16010588,-0.74877625,-0.00133978,-0.28123256,0.01062577,0.99226399,0.06662708,-0.01497135,0.10367677
1761618746758,0.32557389,-0.07201978,0.24972822,0.00430741,-0.23157666,-0.00448050,0.99224349,0.06665249,-0.01633765,0.10365034
1761618746769,-0.24362364,-0.02591879,-0.15517496,-0.01504385,-0.26964776,-0.01580780,0.99223281,0.06657125,-0.01779375,0.10356498
1761618746781,0.09577206,0.07046295,0.24856387,-0.04162604,-0.26494496,-0.00702541,0.99222481,0.06633815,-0.01927744,0.10352563
1761618746792,0.19702782,-0.28682949,-0.10941266,-0.02786751,-0.26514844,0.00925368,0.99219963,0.06618070,-0.02077553,0.10357792
1761618746802,-0.28119393,0.43975539,0.00463942,-0.03918616,-0.29693873,-0.00092020,0.99217957,0.06597105,-0.02236415,0.10357299
1761618746813,0.67627656,0.02916539,0.21493143,-0.03212404,-0.28097623,0.00365752,0.99215367,0.06579758,-0.02388142,0.10359274
1761618746825,0.25712575,0.12885117,0.07642876,-0.04887823,-0.26563518,0.01706552,0.99212219,0.06549942,-0.02550179,0.10369684
1761618746836,-0.45099339,0.06748835,-0.20256425,-0.03531607,-0.30531967,0.01102994,0.99208515,0.06531048,-0.02713525,0.10375585
1761618746847,0.16977856,-0.53516728,-0.06138949,0.00765871,-0.30959484,0.02567464,0.99202260,0.06535069,-0.02876063,0.10389065
1761618746858,0.09398156,0.14102639,0.28422476,-0.03672810,-0.28268911,0.00711623,0.99198410,0.06514134,-0.03037196,0.10393121
1761618746869,-0.14520476,-0.07774768,0.01591877,-0.03754639,-0.30026404,-0.00605590,0.99194919,0.06493484,-0.03202341,0.10389790
1761618746880,-0.03682768,0.17039951,-0.17989889,-0.03457240,-0.29738135,-0.00852243,0.99191203,0.06474296,-0.03367387,0.10385060
1761618746891,0.03289600,0.19701316,0.00967529,-0.02450126,-0.27674126,-0.01348261,0.99187539,0.06460698,-0.03520979,0.10377577
1761618746903,0.15492441,-0.03160727,-0.16543354,-0.00893886,-0.24841715,0.01535693,0.99181878,0.06455647,-0.03661335,0.10386254
1761618746914,-0.01460591,-0.33793163,0.00854951,0.00662324,-0.24171863,0.01422280,0.99175489,0.06459489,-0.03801531,0.10394503
1761618746927,0.32022330,-0.12518048,0.11175774,0.00374422,-0.19327280,0.01169743,0.99169821,0.06461848,-0.03923293,0.10401873
1761618746938,-0.48006034,-0.05947500,0.42071871,-0.03670830,-0.21696583,0.01213556,0.99165680,0.06441842,-0.04041540,0.10408486
1761618746948,0.25075304,0.03184694,-0.30467203,-0.02548210,-0.20234088,-0.00610272,0.99162405,0.06428081,-0.04150804,0.10405191
1761618747003,0.35443947,0.05685395,-0.01043012,-0.01110504,-0.04796355,-0.00224794,0.99159425,0.06397598,-0.04282464,0.10399020
1761618747036,-1.06371310,0.01447034,0.00064555,-0.05103310,-0.40512907,-0.06047790,0.99144167,0.06313648,-0.04948901,0.10299534
1761618747048,-0.89191326,-1.09126016,0.51648426,-0.15420452,-0.70842071,-0.17551284,0.99138771,0.06221126,-0.05373953,0.10194226
1761618747070,1.47015506,0.47446150,-0.27640706,-0.06057097,-0.37918039,-0.11515578,0.99132587,0.06156315,-0.05779676,0.10071010
1761618747092,0.60530914,0.05040325,0.06288328,-0.05610721,-0.35833219,-0.07972978,0.99121453,0.06094316,-0.06175633,0.09982908
1761618747114,0.25162594,0.00859414,-0.04001049,-0.03894984,-0.24714392,-0.05631398,0.99112704,0.06050108,-0.06456142,0.09918992
1761618747125,0.64037453,-0.77986750,0.46167054,-0.13280210,-0.50633909,-0.10228623,0.99104380,0.05978395,-0.06729565,0.09863757
1761618747137,0.34092179,-0.19897737,0.06844130,-0.10309449,-0.45890418,-0.09691434,0.99095448,0.05920662,-0.06986551,0.09809485
1761618747147,-0.21207801,0.29365932,-0.19274394,-0.04277507,-0.46508597,-0.12057339,0.99085420,0.05897991,-0.07233047,0.09745582
1761618747158,-0.15027100,0.44737292,-0.18886112,-0.03443492,-0.40053869,-0.07452402,0.99074241,0.05879052,-0.07453343,0.09704593
1761618747170,-0.14607653,0.26763765,-0.02054554,-0.05050045,-0.34070662,-0.09156854,0.99065811,0.05848752,-0.07657767,0.09649652
1761618747181,0.00019007,-0.09774927,-0.05768498,-0.03306730,-0.33375404,-0.08538370,0.99056924,0.05830234,-0.07844669,0.09601837
1761618747192,0.12695504,-0.07618771,0.04996925,-0.05562091,-0.39794407,-0.11091956,0.99047408,0.05800755,-0.08055580,0.09543050
1761618747203,-0.17185152,-0.06332289,-0.03145523,-0.03770223,-0.37661844,-0.12619316,0.99037790,0.05779076,-0.08272135,0.09470489
1761618747216,0.04571493,-0.11616428,0.01686903,-0.07213261,-0.37896758,-0.12205421,0.99027777,0.05734715,-0.08505200,0.09395426
1761618747218,8.82175175,-3.54529592,-3.96433164,-0.25878504,-2.00999341,-0.71139253,0.99017578,0.05706248,-0.08726300,0.09317172
1761618747238,-1.12582125,0.54367439,0.29276503,-0.02957123,-0.20592038,-0.06167855,0.99006644,0.05676529,-0.08933250,0.09255185
1761618747248,0.13152544,-0.41029095,-0.02370685,-0.08990976,-0.42706315,-0.14351919,0.98996711,0.05632923,-0.09140375,0.09185579
1761618747250,5.39674507,-16.89018003,4.24711989,-0.41438951,-1.54457467,-0.48112801,0.98987970,0.05585268,-0.09318001,0.09130249
1761618747259,-1.48598837,3.42102162,-0.81578608,-0.10287298,-0.37963754,-0.15339893,0.98980270,0.05536404,-0.09498329,0.09057384
1761618747270,-0.11860780,0.06666738,-0.04831974,-0.09950318,-0.31290858,-0.11167611,0.98972327,0.05482174,-0.09668864,0.08996521
1761618747282,-0.01801217,-0.08242944,0.03201592,-0.10401455,-0.32130773,-0.13193409,0.98964410,0.05423406,-0.09850403,0.08921978
1761618747292,0.04973361,-0.07687179,-0.07321540,-0.10079609,-0.34943979,-0.12537570,0.98954871,0.05370992,-0.10032112,0.08856783
1761618747303,-0.00888575,0.06288944,0.07876869,-0.10986927,-0.31503014,-0.14980778,0.98947755,0.05310564,-0.10205378,0.08774389
1761618747314,0.10246088,-0.47443573,-0.19408455,-0.08932689,-0.31321063,-0.11245561,0.98937927,0.05261434,-0.10377644,0.08712538
1761618747326,-0.04657313,0.16065489,0.01034054,-0.07744274,-0.30359860,-0.12138872,0.98927411,0.05214582,-0.10561321,0.08639098
1761618747336,0.13155896,-0.25693318,0.07162686,-0.09069730,-0.36291999,-0.12403840,0.98915409,0.05168326,-0.10746411,0.08575838
1761618747348,0.15012712,0.31000020,0.16016581,-0.04310042,-0.30242023,-0.09984318,0.98902277,0.05142897,-0.10924839,0.08516931
1761618747359,0.00039842,-0.13210030,0.13930755,-0.09558671,-0.33877254,-0.11317391,0.98889814,0.05091280,-0.11107776,0.08455817
1761618747370,-0.02573471,0.03696180,0.07562437,-0.12247262,-0.32553904,-0.11426964,0.98877914,0.05021470,-0.11293333,0.08390683
1761618747382,0.05579942,-0.00026488,0.02901064,-0.08232177,-0.30512023,-0.10339223,0.98865139,0.04974135,-0.11468777,0.08331233
1761618747392,0.01118873,-0.13099447,-0.08438556,-0.07730586,-0.35722067,-0.08979756,0.98849199,0.04933550,-0.11656318,0.08284089
1761618747404,0.00871347,0.21841891,0.09327276,-0.08549312,-0.30403691,-0.09917949,0.98835633,0.04884391,-0.11831139,0.08227061
1761618747415,-0.09941961,0.14547506,-0.48938776,-0.08354972,-0.33021291,-0.12620222,0.98821738,0.04838439,-0.12012756,0.08157649
1761618747426,0.04266804,-0.00207964,0.04040754,-0.07591446,-0.32356387,-0.11662333,0.98807120,0.04796306,-0.12192334,0.08092923
1761618747438,-0.00416591,0.01679162,0.04774322,-0.07289828,-0.32706802,-0.10094011,0.98790204,0.04753661,-0.12383669,0.08033874
1761618747461,-0.03041625,0.22620571,0.10790239,-0.04946830,-0.16030103,-0.05124845,0.98774418,0.04696772,-0.12568015,0.07974938
