UnixTime(ms),Ax,Ay,Az,Gx,Gy,Gz,QuatW,QuatX,QuatY,QuatZ
1761618048292,0.00000000,0.00000000,0.00000000,0.00000000,0.00000000,0.00000000,0.98917133,0.12332764,-0.01231889,0.07860421
1761618048310,0.37042537,0.14409474,0.04948708,-0.00099916,-0.01322164,0.00489646,0.98916744,0.12331860,-0.01243855,0.07864852
1761618048320,2.41117642,0.36278487,-0.49428988,-0.01942105,-0.07603630,-0.00080085,0.98917470,0.12322538,-0.01280353,0.07864468
1761618048327,-1.22149070,-0.58158290,-0.14377332,-0.01111041,-0.04759006,-0.00494658,0.98917892,0.12318483,-0.01297723,0.07862662
1761618048338,-0.35734967,-0.03417499,0.04466540,-0.01727217,-0.05135931,0.00453597,0.98918508,0.12308897,-0.01326227,0.07865180
1761618048349,0.05031153,-0.04063623,-0.10642823,0.01007324,-0.04471417,-0.00722402,0.98917795,0.12314487,-0.01351044,0.07861171
1761618048361,0.01362527,0.03902127,-0.09021277,0.00017896,-0.04618037,-0.00594753,0.98917689,0.12314588,-0.01377136,0.07857810
1761618048372,-0.09335836,0.00840225,-0.04481201,0.00656401,-0.04361156,-0.01021350,0.98917340,0.12318297,-0.01401776,0.07852040
1761618048383,0.06955937,-0.06520976,-0.10055455,0.00489991,-0.02925745,-0.01293899,0.98917339,0.12321016,-0.01418014,0.07844858
1761618048394,0.06215666,-0.14083279,0.24794173,0.00061364,-0.04161951,-0.01174246,0.98917481,0.12321360,-0.01441321,0.07838283
1761618048405,-0.08743028,-0.03658767,-0.00190066,0.01889804,-0.03066449,-0.01913325,0.98916759,0.12331943,-0.01458493,0.07827568
1761618048417,0.02280790,0.04419031,0.00570197,0.00709667,-0.03504434,-0.00350045,0.98916127,0.12335917,-0.01478118,0.07825608
1761618048428,-0.11709815,0.08707591,-0.29070459,-0.00758165,-0.02262254,-0.00546803,0.98916698,0.12331747,-0.01490560,0.07822600
1761618048439,-0.12241507,-0.08267379,-0.01097419,-0.00694121,-0.02648428,-0.00034917,0.98916991,0.12327617,-0.01506318,0.07822393
1761618048450,0.20283392,-0.02281187,-0.18286543,-0.02446227,-0.02934364,-0.01064810,0.98918779,0.12314897,-0.01521577,0.07816856
1761618048461,-0.04283178,-0.04939051,0.00044655,-0.02087682,-0.02716051,-0.01597319,0.98920688,0.12303310,-0.01536651,0.07807991
1761618048472,-0.09257058,-0.06538696,-0.05617700,-0.03723774,-0.03316121,-0.00896363,0.98923434,0.12282085,-0.01555553,0.07802881
1761618048484,-0.00489722,-0.12310610,-0.06857745,-0.04298438,-0.02424021,-0.01608743,0.98926946,0.12257798,-0.01569249,0.07793792
1761618048495,-0.20184422,-0.17069564,0.10392331,-0.04944853,-0.02447365,-0.01693033,0.98930796,0.12230849,-0.01582587,0.07784565
1761618048506,-0.03476984,-0.07101313,-0.01381029,-0.04610470,-0.02383917,-0.00097671,0.98933813,0.12205030,-0.01595937,0.07784018
1761618048517,0.04308961,-0.16521427,-0.12508772,-0.05156110,-0.02050967,-0.00897807,0.98937546,0.12176414,-0.01607320,0.07779035
1761618048528,0.17996046,0.20898634,-0.10062305,-0.04445030,-0.02120540,-0.01498924,0.98941041,0.12151744,-0.01619089,0.07770716
1761618048539,0.15608580,-0.07149801,-0.05488786,-0.05460756,-0.02924044,-0.00471264,0.98944796,0.12120618,-0.01635756,0.07768030
1761618048550,-0.10007565,0.20527608,0.08310255,-0.06477287,-0.02929546,-0.01935629,0.98949721,0.12084993,-0.01651868,0.07757384
1761618048562,0.07568076,-0.08858796,-0.10996172,-0.05764476,-0.03311538,-0.02425336,0.98954411,0.12052712,-0.01670413,0.07743802
1761618048572,0.20626079,0.05093539,-0.12060745,-0.06424750,-0.03556212,-0.01074927,0.98958598,0.12019303,-0.01688905,0.07738212
1761618048583,-0.07108602,0.06174556,0.07229858,-0.04307781,-0.03412910,-0.02589274,0.98962263,0.11995610,-0.01707676,0.07723971
1761618048594,0.08736117,0.24605750,0.19113711,-0.04773210,-0.04327716,-0.01857089,0.98965889,0.11968880,-0.01731911,0.07713572
1761618048605,-0.07455332,-0.07454915,0.01938853,-0.03490619,-0.04168381,-0.03267787,0.98969295,0.11949158,-0.01755463,0.07695109
1761618048617,0.11133148,0.14126264,0.17050419,-0.05710498,-0.03271599,-0.03222793,0.98974225,0.11917179,-0.01773784,0.07677061
1761618048628,-0.22040664,-0.45766729,-0.27959870,-0.06358209,-0.04234887,-0.00861031,0.98978414,0.11881891,-0.01797287,0.07672282
1761618048639,0.01196442,0.09035445,0.01814189,-0.06176312,-0.03491448,-0.01275527,0.98982679,0.11847922,-0.01816490,0.07665267
1761618048650,0.03328192,0.11423838,0.11140419,-0.05996840,-0.02507774,-0.00029347,0.98986615,0.11812840,-0.01831161,0.07665095
1761618048662,-0.03934067,-0.19638335,-0.23277683,-0.03995753,-0.02776188,-0.00906265,0.98989338,0.11790863,-0.01846430,0.07660111
1761618048673,-0.04355592,-0.14429808,0.06667484,-0.06163965,-0.02421083,-0.02284203,0.98994221,0.11756037,-0.01860109,0.07647205
1761618048684,-0.01005203,-0.03340545,0.09512611,-0.07847126,-0.02137446,-0.02551178,0.99000253,0.11712485,-0.01871972,0.07633046
1761618048695,-0.03583854,0.24549314,0.33542339,-0.10775773,-0.01398607,-0.02112398,0.99008136,0.11652141,-0.01879804,0.07621217
1761618048706,-0.19236044,-0.13205208,-0.32472920,-0.07602501,-0.01507716,-0.01844265,0.99013671,0.11610327,-0.01888096,0.07611073
1761618048717,0.06833832,-0.18885547,-0.03696991,-0.03588571,0.00736887,-0.02478359,0.99017201,0.11590052,-0.01883933,0.07597070
1761618048729,0.12045312,0.13733779,-0.14155040,-0.06466420,0.00453722,0.00349268,0.99021294,0.11554163,-0.01881415,0.07599009
1761618048740,-0.13434743,0.16796854,0.05746495,-0.06222378,0.00435074,-0.00871504,0.99025774,0.11519318,-0.01878978,0.07594128
1761618048751,0.02604031,0.07811261,-0.01500402,-0.03763413,0.01006974,-0.01467004,0.99028988,0.11498055,-0.01873289,0.07585840
1761618048762,0.14685594,-0.01358356,-0.15784136,-0.01735685,0.01331323,-0.01607047,0.99030911,0.11488508,-0.01865967,0.07577001
1761618048773,-0.12549735,0.09535441,0.05178921,-0.03948162,0.01031272,-0.02839561,0.99034763,0.11466596,-0.01860243,0.07561241
1761618048784,-0.01781378,0.03998850,0.12891864,-0.03963549,0.00282700,-0.04234856,0.99039207,0.11444202,-0.01858646,0.07537315
1761618048796,0.32536579,0.17078592,0.29477024,-0.05314496,-0.00766860,-0.01766521,0.99043313,0.11414441,-0.01862940,0.07527422
1761618048807,0.03234312,-0.19948814,0.21957733,-0.06446521,0.00088080,-0.02256579,0.99048390,0.11378663,-0.01862452,0.07514898
1761618048818,0.02851215,-0.09141550,-0.29499560,-0.07955839,-0.01476676,-0.01226996,0.99053912,0.11333712,-0.01870795,0.07507965
1761618048829,-0.06966211,-0.09947572,-0.03638938,-0.08311690,-0.01776047,-0.00555010,0.99059226,0.11287582,-0.01880652,0.07504885
1761618048840,-0.01049106,0.15779632,-0.18733015,-0.06331983,-0.02980243,-0.01476528,0.99063491,0.11252756,-0.01897043,0.07496764
1761618048888,0.03609670,-0.01100228,0.01137583,-0.02498360,-0.03185624,-0.02844986,0.99073955,0.11192671,-0.01973657,0.07428342
1761618048912,-0.01705441,-0.17010178,0.19485711,-0.03520703,-0.02977930,-0.01585151,0.99079266,0.11151655,-0.02008350,0.07409875
1761618048933,0.03954878,0.10041413,-0.08078992,-0.04804658,-0.04295215,-0.02215528,0.99085989,0.11099284,-0.02055168,0.07385726
1761618048948,0.16960091,-0.02896545,-0.08050092,-0.05372396,-0.04862286,-0.01752769,0.99090585,0.11060065,-0.02090663,0.07372931
1761618048961,-0.04439463,0.13661357,-0.06387370,-0.02643445,-0.03865513,-0.03187033,0.99093484,0.11043015,-0.02115595,0.07352375
1761618048973,0.15931401,0.05122353,-0.00914727,-0.00539136,-0.02258261,-0.00688771,0.99093874,0.11039673,-0.02129597,0.07348104
1761618048986,-0.07046115,0.35297640,0.18070590,-0.02084596,-0.01985553,-0.04527200,0.99097151,0.11026644,-0.02142006,0.07319809
1761618048998,0.08781751,-0.13556745,-0.00231796,0.01593333,-0.02409523,-0.03783636,0.99097447,0.11036204,-0.02156463,0.07297107
1761618049009,0.21424168,0.06792036,0.18605494,-0.00404894,-0.02776363,-0.02452470,0.99098428,0.11033795,-0.02172983,0.07282515
1761618049021,-0.49430362,-0.15679280,0.02129565,-0.03913076,-0.02891103,-0.03966280,0.99102338,0.11010708,-0.02190040,0.07259114
1761618049033,0.05899572,-0.28623699,-0.35435809,-0.02749691,-0.03898505,-0.03108599,0.99104947,0.10994622,-0.02212847,0.07240929
1761618049045,0.17779959,0.26626034,0.22122138,-0.05536509,-0.04157883,-0.02927217,0.99109275,0.10961956,-0.02237378,0.07223658
1761618049056,-0.15399979,0.10477872,-0.26082062,-0.03185914,-0.05229046,-0.02753046,0.99111790,0.10943478,-0.02267707,0.07207691
1761618049068,0.03478136,0.08126529,0.15977977,-0.00824956,-0.03010045,-0.03574043,0.99113409,0.10938735,-0.02285014,0.07187140
1761618049080,-0.05559746,-0.22848949,-0.27832047,0.01613746,-0.04247687,-0.02743833,0.99112953,0.10948175,-0.02309863,0.07171088
1761618049091,-0.14895335,0.08463469,0.39673640,-0.01737878,-0.04045136,-0.03012723,0.99114764,0.10938182,-0.02333123,0.07153765
1761618049103,0.03992029,-0.03190465,0.08514069,-0.02696783,-0.03211702,-0.02736971,0.99117193,0.10922541,-0.02351751,0.07137891
1761618049114,-0.22303242,0.13381618,0.01985860,-0.03827108,-0.03983628,-0.02913955,0.99120194,0.10901109,-0.02374059,0.07121573
1761618049126,0.24723474,0.07588847,-0.27077488,-0.03413526,-0.03722492,-0.02878539,0.99123048,0.10881311,-0.02395649,0.07104877
1761618049137,-0.05080440,-0.03227144,-0.04482101,-0.00711107,-0.03252600,-0.04024349,0.99124699,0.10877222,-0.02414352,0.07081737
1761618049148,-0.06705192,-0.04166160,0.12879852,-0.01545863,-0.03930683,-0.04915077,0.99127073,0.10868565,-0.02436364,0.07054213
1761618049160,0.13395258,-0.00793129,-0.11301363,0.00692267,-0.02919887,-0.02629713,0.99127293,0.10872476,-0.02452861,0.07039355
1761618049171,-0.03466170,0.09822167,-0.03850939,0.02289906,-0.02461559,-0.03289390,0.99126842,0.10885529,-0.02466892,0.07020605
1761618049182,-0.13598043,0.10759560,0.13421315,0.00209238,-0.02640689,-0.02887395,0.99127488,0.10886700,-0.02481680,0.07004436
1761618049193,-0.28024179,0.06360455,0.22324318,0.01687950,-0.01657302,-0.02063943,0.99127029,0.10896237,-0.02491044,0.06992775
1761618049205,0.22032573,-0.20818914,-0.04107768,0.01650530,-0.00014784,-0.01583835,0.99126632,0.10905563,-0.02491127,0.06983826
1761618049216,-0.20944245,-0.00285099,-0.17048737,0.00674479,-0.02382073,-0.00793443,0.99126193,0.10909340,-0.02504467,0.06979383
1761618049227,0.14410530,0.04810456,-0.21379064,-0.00889184,-0.00585731,-0.01926024,0.99127428,0.10904316,-0.02507776,0.06968501
1761618049238,-0.00094192,-0.04093143,-0.17963744,-0.00239964,-0.01228262,-0.02336609,0.99128320,0.10902972,-0.02514654,0.06955416
1761618049250,-0.07412567,-0.00190066,0.19766846,-0.01143670,-0.00981144,-0.02245650,0.99129767,0.10896568,-0.02520149,0.06942840
1761618049261,-0.02082225,-0.02616535,-0.29421220,0.01676788,-0.00945749,-0.01991384,0.99129376,0.10906042,-0.02525492,0.06931589
1761618049272,-0.06642212,0.00549173,0.14858775,0.00711873,-0.00757849,-0.01310721,0.99129342,0.10910028,-0.02529736,0.06924249
1761618049283,0.02280790,-0.15727948,-0.18436386,0.01750701,-0.00780170,-0.01666702,0.99128803,0.10919832,-0.02534105,0.06914915
1761618049295,-0.09307495,-0.21692065,0.18296571,-0.00175899,-0.00142654,-0.00335286,0.99129024,0.10918838,-0.02534911,0.06913021
1761618049306,-0.29642359,0.36097835,0.06531251,-0.01530192,0.00673388,-0.00843237,0.99130381,0.10910346,-0.02531174,0.06908341
1761618049317,0.08547825,-0.33276503,-0.44319585,0.00330275,-0.00035935,-0.00282954,0.99130282,0.10912195,-0.02531375,0.06906756
1761618049328,0.25088690,0.19196649,0.15965530,-0.01853091,0.01398555,0.00000602,0.99131623,0.10901818,-0.02523543,0.06906760
1761618049339,-0.15556490,-0.09788028,-0.20734499,-0.00841824,0.00415884,-0.00720744,0.99132475,0.10897146,-0.02521235,0.06902759
1761618049351,0.04898370,0.14531523,0.26930943,-0.03113040,0.00729533,-0.01935795,0.99135272,0.10879557,-0.02517113,0.06891822
1761618049362,0.00560150,-0.21612460,-0.26700491,-0.02960883,0.00201736,-0.01647373,0.99137782,0.10862828,-0.02515973,0.06882515
1761618049373,-0.14003754,0.07095235,0.16244355,-0.02354834,-0.00370274,-0.01992044,0.99139967,0.10849523,-0.02518065,0.06871259
1761618049384,0.02844004,0.07071213,-0.19705759,-0.02977637,-0.00767312,-0.00674651,0.99141907,0.10833146,-0.02522286,0.06867549
1761618049396,-0.12188107,0.18592366,0.50630342,-0.02296422,0.00751089,-0.00114943,0.99143491,0.10820057,-0.02518004,0.06866894
1761618049406,-0.17137788,0.24235500,0.01032786,-0.01915580,-0.00616721,0.00084658,0.99144503,0.10809712,-0.02521335,0.06867351
1761618049418,0.17676122,-0.19263524,0.04012501,-0.01720906,0.00270605,0.00369897,0.99145448,0.10800075,-0.02519819,0.06869422
1761618049429,0.00983079,-0.34469096,-0.58165790,-0.01467177,-0.00429880,-0.01308273,0.99146777,0.10791933,-0.02522205,0.06862161
1761618049440,0.07578661,0.07694670,-0.01654086,-0.02446425,-0.00512702,-0.01730152,0.99148864,0.10778233,-0.02525076,0.06852473
1761618049451,0.01140395,-0.10168522,-0.10073489,-0.01928205,0.00425942,0.01442944,0.99149540,0.10767435,-0.02522691,0.06860553
1761618049462,-0.12474218,-0.01664237,0.01964430,-0.01275459,0.00646319,-0.01229989,0.99150871,0.10760356,-0.02519104,0.06853727
1761618049473,0.04684739,-0.02034119,-0.11853989,0.00118058,0.01015876,-0.00399322,0.99151101,0.10761023,-0.02513364,0.06851470
1761618049485,0.14937338,0.05648181,0.20352122,-0.02279446,0.01618315,0.01087987,0.99152304,0.10748144,-0.02504221,0.06857618
1761618049496,-0.35479730,0.09242566,-0.16101003,-0.01722241,0.01399861,0.00571128,0.99153289,0.10738844,-0.02496661,0.06860702
1761618049507,-0.12413812,0.06242578,0.07980308,-0.00531409,0.00793437,-0.00158465,0.99153793,0.10735815,-0.02492139,0.06859798
1761618049518,0.07169902,-0.33886442,-0.17629403,0.00321254,0.00409681,-0.02261127,0.99154525,0.10737598,-0.02489865,0.06847249
1761618049529,0.39150137,0.18363613,0.07892013,-0.02735035,0.01160461,-0.04476160,0.99158073,0.10722282,-0.02483367,0.06822183
1761618049540,-0.01093626,0.08076332,-0.04079427,-0.05553772,0.00048557,-0.01481491,0.99162043,0.10690903,-0.02483092,0.06813812
1761618049552,-0.09750641,-0.06481162,-0.10002370,-0.05326345,0.01184019,-0.01371928,0.99165913,0.10661342,-0.02476521,0.06806198
1761618049563,-0.04438294,-0.11133406,0.03195161,-0.05134075,0.01028437,-0.01701633,0.99169797,0.10632591,-0.02470762,0.06796669
1761618049574,0.16458566,-0.12953258,0.07580637,-0.04563417,0.02644596,-0.00413920,0.99173119,0.10606579,-0.02455687,0.06794309
1761618049585,0.02474838,-0.06133627,-0.09074407,-0.05220491,0.01688494,0.00304297,0.99176329,0.10577606,-0.02446316,0.06795998
1761618049596,0.04343759,-0.00167750,0.08133675,-0.04398873,0.00894591,-0.00576755,0.99179245,0.10553412,-0.02441396,0.06792826
1761618049608,-0.01423766,-0.04092463,0.18757770,-0.04873361,0.01409526,-0.00672778,0.99182597,0.10526121,-0.02433503,0.06789059
1761618049618,-0.03705268,0.11206733,-0.11316476,-0.05307803,0.02353833,-0.01803986,0.99186649,0.10497193,-0.02420674,0.06779227
1761618049629,0.02809410,-0.05367980,-0.03812771,-0.06318370,0.01742721,-0.01321878,0.99191011,0.10462758,-0.02411177,0.06772023
1761618049641,-0.05917772,-0.01630364,0.14951554,-0.05923407,0.02845733,-0.00846775,0.99195326,0.10428699,-0.02394814,0.06767154
1761618049653,0.04052565,0.05185854,-0.12672383,-0.06455826,0.03228982,-0.01625014,0.99200219,0.10392223,-0.02376570,0.06757972
1761618049663,0.04249632,-0.13338482,-0.07653955,-0.06544785,0.02233509,-0.01420052,0.99204767,0.10356554,-0.02364397,0.06750233
1761618049675,-0.20884182,0.10418123,0.10986965,-0.04804124,0.02234911,-0.01827597,0.99208734,0.10328450,-0.02351323,0.06739542
1761618049688,0.16101632,0.01618745,0.30312759,-0.04058394,0.02846104,-0.01659100,0.99212586,0.10302476,-0.02333108,0.06728923
1761618049697,0.42809640,0.00503816,-0.78907349,-0.07080805,0.02903240,-0.01856289,0.99216947,0.10269197,-0.02319463,0.06720199
1761618049707,-0.35773715,0.26588152,0.22626012,-0.02790337,0.02454573,-0.02085161,0.99219504,0.10254547,-0.02306576,0.06709252
1761618049719,0.02329513,-0.05273858,0.16368832,-0.02614073,0.02268384,0.00524766,0.99221126,0.10239778,-0.02293760,0.06712217
1761618049729,0.01942757,0.07268605,0.08832850,-0.03743300,0.03409316,-0.02558542,0.99224567,0.10219564,-0.02275349,0.06698401
1761618049742,-0.20502234,-0.01203142,0.17446999,-0.03390537,0.01357457,-0.01685541,0.99227628,0.10198543,-0.02266933,0.06687950
1761618049752,0.45030597,-0.37471174,-0.65819137,-0.03601674,0.02398058,-0.00825689,0.99229956,0.10181075,-0.02255303,0.06683946
1761618049764,-0.20953798,0.14115564,0.63303478,-0.06339295,0.01804495,-0.00689075,0.99234375,0.10143039,-0.02244476,0.06679811
1761618049774,0.13299540,-0.16604151,-0.32032428,-0.05918351,0.03467579,-0.01105548,0.99238347,0.10111967,-0.02226271,0.06674007
1761618049792,-0.38724682,0.18100386,0.40578022,-0.02206878,0.01136427,-0.00689531,0.99241029,0.10091995,-0.02215986,0.06667767
1761618049835,-0.09573125,0.07972940,0.20673180,-0.00938474,0.00533118,-0.00401356,0.99243907,0.10071865,-0.02204551,0.06659158
1761618049837,177.23265191,-63.98001654,-209.44592406,-0.97345430,0.60250727,-0.35062733,0.99256733,0.09979387,-0.02147313,0.06625848
1761618049861,-13.93523494,4.93553370,16.26200902,-0.03903908,0.02356149,-0.01790680,0.99263415,0.09932930,-0.02119274,0.06604539
1761618049872,1.50130076,-0.62519873,-1.20009555,-0.08460372,0.07002708,-0.03307373,0.99269842,0.09888090,-0.02082160,0.06587010
1761618049887,-0.64472408,0.16506282,0.53105663,-0.05993049,0.03523872,-0.02761653,0.99276360,0.09842243,-0.02055203,0.06565883
1761618049902,-0.25066618,0.24089409,0.21228942,-0.05344576,0.02393421,-0.02243166,0.99282096,0.09800021,-0.02036294,0.06548162
1761618049913,-0.21632625,-0.41968771,-0.43758808,-0.04522687,0.02930748,-0.01891268,0.99285343,0.09776729,-0.02021201,0.06538422
1761618049924,-0.19932923,0.25624288,0.50188451,-0.01229838,0.03524410,-0.02266769,0.99287256,0.09769842,-0.02001464,0.06525728
1761618049934,0.26872981,-0.11985784,-0.30224346,-0.03853913,0.02275921,-0.01941399,0.99289961,0.09750958,-0.01990312,0.06516215
1761618049946,0.33576355,0.26541195,0.29920477,-0.04791987,0.02917862,-0.01943878,0.99293862,0.09722446,-0.01972951,0.06504649
1761618049957,-0.27008110,0.12487204,0.13783984,-0.08175047,0.01975987,-0.03100706,0.99299533,0.09677892,-0.01962182,0.06487751
1761618049970,0.00633320,-0.12384995,0.07659507,-0.05679253,0.01797767,-0.02936138,0.99304483,0.09641829,-0.01950766,0.06469106
1761618049980,0.19022588,0.12324284,-0.36009168,-0.06977928,0.00395718,-0.03390459,0.99309367,0.09604148,-0.01948629,0.06450798
1761618049992,-0.20978111,0.03745768,0.39279866,-0.03096278,0.00996267,-0.02773406,0.99312384,0.09585415,-0.01942602,0.06434019
1761618050004,0.07251375,-0.21941110,-0.26678268,-0.03046806,-0.00253455,-0.02163241,0.99314849,0.09567896,-0.01944059,0.06421580
1761618050015,-0.03064738,0.00315488,0.06670312,-0.02918883,0.01470953,-0.03226731,0.99317828,0.09551113,-0.01935601,0.06403026
1761618050027,-0.09374492,-0.05137943,0.03425295,-0.03616668,0.00434355,-0.01233101,0.99320331,0.09530317,-0.01933104,0.06395936
1761618050037,-0.06454318,0.06487069,0.04631314,-0.03058971,0.01556162,-0.00648819,0.99322267,0.09514104,-0.01924856,0.06392497
1761618050049,-0.20191214,-0.06114594,0.06908416,-0.01962228,0.02119062,-0.01170802,0.99324016,0.09502821,-0.01912671,0.06385765
1761618050060,-0.10085259,0.04556074,0.14934861,-0.03080576,0.04204498,-0.00884980,0.99326477,0.09485262,-0.01888706,0.06380721
1761618050072,-0.12108053,0.07384078,-0.05687116,-0.02049535,0.02730305,-0.00866470,0.99328204,0.09473580,-0.01873143,0.06375782
1761618050083,-0.05455280,0.00920729,0.04382849,0.00167103,0.03354775,-0.01387933,0.99329006,0.09474566,-0.01853350,0.06367593
1761618050094,-0.21822246,0.13557699,0.08751346,-0.01692161,0.04050380,-0.01787586,0.99330919,0.09465343,-0.01831275,0.06357851
1761618050107,-0.15577019,-0.02219903,0.03408451,-0.01592217,0.02344064,0.00204960,0.99332045,0.09455472,-0.01816742,0.06359121
1761618050117,-0.03229622,-0.00265510,-0.01899351,-0.04781032,0.03759998,-0.02706177,0.99335629,0.09430849,-0.01797378,0.06345185
1761618050128,0.17157593,-0.21429461,0.00367215,-0.02314337,0.02898808,-0.00660973,0.99337387,0.09417889,-0.01781145,0.06341483
1761618050140,-0.07149982,0.04721048,0.02931138,-0.04380546,0.03342499,0.00049590,0.99340096,0.09392701,-0.01761925,0.06341768
1761618050151,-0.06691080,0.00639121,0.07934488,-0.03954282,0.05229440,0.00293353,0.99342709,0.09369568,-0.01731333,0.06343484
1761618050162,-0.11630409,-0.17443898,-0.14069347,-0.01238765,0.05732173,-0.00124168,0.99343929,0.09362817,-0.01700093,0.06342808
1761618050173,-0.10117740,0.05339969,0.10547975,-0.04822647,0.06407762,0.01211496,0.99346596,0.09336293,-0.01664850,0.06349471
1761618050185,-0.01427534,0.12288506,0.09361297,-0.04238409,0.06534097,-0.01444633,0.99349977,0.09312346,-0.01627933,0.06341309
1761618050196,-0.07828021,0.13395436,-0.21781881,-0.00894377,0.06056531,-0.02527904,0.99351898,0.09307337,-0.01594016,0.06327152
1761618050207,-0.02323956,0.12723411,-0.01190319,-0.00379828,0.06054363,-0.02747779,0.99353630,0.09305191,-0.01559809,0.06311627
1761618050218,-0.02427317,0.12229945,0.17738088,-0.03020083,0.06255833,-0.03492470,0.99357027,0.09288128,-0.01524463,0.06291895
1761618050230,-0.08700978,0.09083212,0.18276596,-0.02787931,0.04873736,-0.01954812,0.99359593,0.09272515,-0.01497170,0.06280948
1761618050241,0.00781876,0.03040398,0.08772352,-0.02342036,0.04754665,-0.00420166,0.99361378,0.09259283,-0.01470307,0.06278574
1761618050252,-0.06721802,0.05881577,0.13256887,-0.03018313,0.05129424,0.00899892,0.99363069,0.09242229,-0.01441325,0.06283658
1761618050263,-0.07370697,0.00082391,0.00233658,-0.00678750,0.04570333,-0.00014271,0.99363782,0.09238496,-0.01416189,0.06283580
1761618050274,0.01704611,0.00069046,0.07532656,-0.01050322,0.03220797,0.00890720,0.99364264,0.09232667,-0.01398313,0.06288523
1761618050286,-0.06449296,0.04519890,0.06563681,0.02919149,0.04667345,-0.00442876,0.99363257,0.09249160,-0.01371943,0.06286021
1761618050297,-0.49551202,0.20409304,-0.28935121,0.03208657,0.06343608,0.00738305,0.99361818,0.09266968,-0.01336736,0.06290119
1761618050308,-0.12836917,0.05424329,0.12261759,0.03981503,0.11232617,-0.00424630,0.99360693,0.09289663,-0.01272710,0.06287698
1761618050319,-0.35841421,-0.01013839,-0.01125214,0.03700900,0.13956172,-0.01479737,0.99360243,0.09310573,-0.01193857,0.06279338
1761618050331,-0.01801488,0.07458538,0.34800232,0.02100114,0.17924086,-0.02778067,0.99361269,0.09322228,-0.01094379,0.06263920
1761618050342,-0.21819977,0.19727535,0.10155556,-0.00131512,0.20707209,-0.03258011,0.99363654,0.09321505,-0.00980489,0.06246001
1761618050353,-0.25398525,0.23118234,-0.00195265,-0.00882348,0.20033869,-0.04654638,0.99366768,0.09316608,-0.00869301,0.06220167
1761618050364,-0.57376589,0.55405431,0.12540096,-0.01690772,0.21766899,-0.04495204,0.99370370,0.09306717,-0.00741965,0.06193870
1761618050375,0.11154404,-0.29883462,-0.14128556,-0.02930042,0.24129026,-0.03635870,0.99373928,0.09291041,-0.00612874,0.06174419
1761618050386,-0.06004107,0.22072328,-0.05210191,-0.03079224,0.26641393,-0.03060322,0.99377380,0.09273951,-0.00465015,0.06157434
1761618050397,-0.36013194,0.07980625,-0.40434365,0.02151617,0.30316947,-0.05318654,0.99378745,0.09286001,-0.00295240,0.06127649
1761618050409,0.09189130,-0.12488765,-0.03891043,0.01891539,0.32589239,-0.01416150,0.99378615,0.09296688,-0.00111111,0.06119648
1761618050420,-0.53070061,0.21060192,-0.07297460,0.02192081,0.34326858,-0.03804119,0.99378805,0.09308744,0.00077687,0.06098725
1761618050431,0.21039579,-0.22321559,0.08970890,0.03874558,0.36854662,-0.03157733,0.99377464,0.09330635,0.00285916,0.06080884
1761618050442,-0.35694127,-0.16367514,-0.13451226,0.05197257,0.39066550,-0.02947226,0.99374891,0.09359480,0.00502735,0.06064527
1761618050453,-0.05998682,-0.28638868,-0.13932422,0.03040462,0.39780461,-0.01900398,0.99372581,0.09376355,0.00723517,0.06053980
1761618050464,-0.03578717,-0.42216018,-0.03700291,0.03817669,0.42391681,-0.02587451,0.99369431,0.09397734,0.00960910,0.06039490
1761618050476,0.06132695,-0.30446980,-0.26119486,0.03104110,0.43433907,-0.02463613,0.99365872,0.09415582,0.01210655,0.06025324
1761618050487,-0.57845928,-0.33218220,-0.21630713,0.03438919,0.46198781,-0.02338320,0.99361480,0.09434324,0.01462439,0.06012581
1761618050498,-0.47916669,-0.20082891,-0.44137091,0.01385587,0.48840939,-0.03646104,0.99357612,0.09442014,0.01733506,0.05992345
1761618050509,-0.51779034,-0.49280075,-0.52279818,0.01131567,0.49983437,-0.04322928,0.99353103,0.09448464,0.02018411,0.05967704
1761618050520,-0.31837540,-0.32284337,-0.18134607,-0.01434058,0.54097746,-0.05788285,0.99349270,0.09440577,0.02315949,0.05935868
1761618050531,0.38341462,-0.27649395,0.02792240,-0.04942304,0.55928043,-0.06675879,0.99346328,0.09412900,0.02629146,0.05898483
1761618050542,-0.12832240,-0.22782767,-0.12497975,-0.11196764,0.56885583,-0.07021041,0.99345656,0.09351318,0.02942017,0.05859868
1761618050554,-0.16857111,-0.46950580,-0.16425144,-0.12093298,0.61128531,-0.08222694,0.99343986,0.09283596,0.03284337,0.05813821
1761618050565,-0.59287973,0.08938058,-0.11058878,-0.17083625,0.62960988,-0.09780892,0.99343803,0.09189636,0.03630622,0.05760026
1761618050576,0.03870431,-0.13530095,-0.05294197,-0.16538050,0.67756847,-0.10325606,0.99341071,0.09097022,0.04010060,0.05702202
1761618050587,-0.47896590,-0.08457929,-0.40293956,-0.15957349,0.69311718,-0.09296487,0.99335763,0.09007661,0.04398206,0.05650142
1761618050598,-0.42232656,0.14113402,-0.21714123,-0.15000994,0.74885477,-0.10686386,0.99327361,0.08924406,0.04813820,0.05590833
1761618050610,-0.09255094,-0.10910733,0.19876079,-0.20239473,0.74171917,-0.07716957,0.99318820,0.08810053,0.05232892,0.05547232
1761618050621,-0.55209108,-0.47089567,-0.22943289,-0.20252789,0.76232491,-0.11792031,0.99309168,0.08697650,0.05655982,0.05481786
1761618050632,0.24575245,-0.94285734,0.18189552,-0.21880585,0.77329218,-0.08561079,0.99296969,0.08576213,0.06085159,0.05434272
1761618050643,-0.14899952,-0.22398304,0.01354541,-0.24458828,0.78132312,-0.09539013,0.99283962,0.08440466,0.06518794,0.05381330
1761618050654,0.15162459,-0.09208775,0.08066668,-0.29878781,0.75823537,-0.06392969,0.99271192,0.08273145,0.06943405,0.05345530
1761618050665,-0.10643687,-0.27987194,-0.08743028,-0.31613141,0.73528138,-0.07902311,0.99258506,0.08096111,0.07355163,0.05301277
1761618050676,0.03761270,-0.28551186,-0.14411004,-0.34689570,0.70248039,-0.06215306,0.99246203,0.07903584,0.07745040,0.05266782
1761618050687,0.88074109,-0.08433957,-0.20309647,-0.39399716,0.67155031,-0.03645715,0.99234548,0.07682946,0.08121108,0.05246366
1761618050699,-0.16496375,-0.13815801,-0.57296742,-0.41663430,0.59626220,-0.02804447,0.99225369,0.07451714,0.08452033,0.05230801
1761618050710,0.27562970,0.14809082,0.17441537,-0.47068349,0.52019305,-0.03071575,0.99220477,0.07188131,0.08743341,0.05213600
1761618050721,0.42004549,-0.52054280,0.02280790,-0.45500009,0.49153810,-0.03355439,0.99214957,0.06933331,0.09018603,0.05194810
1761618050732,0.28687245,-0.33847113,0.11060934,-0.47514655,0.45615705,-0.00930245,0.99209969,0.06669625,0.09271770,0.05189647
1761618050743,0.10062305,0.06458258,0.05224658,-0.53179520,0.39230196,-0.02528909,0.99209518,0.06374478,0.09489497,0.05175612
1761618050754,0.21657231,-0.43132530,0.08758439,-0.55867331,0.36149068,-0.03016855,0.99210437,0.06061621,0.09691932,0.05158717
1761618050765,0.05939353,-0.40724856,-0.09918860,-0.58966661,0.36649302,-0.03011578,0.99210686,0.05737305,0.09893503,0.05142154
1761618050777,-0.05795008,0.24606718,0.07726677,-0.56584268,0.35894268,-0.07473196,0.99210407,0.05417603,0.10096306,0.05099930
1761618050788,0.17924805,0.17411334,-0.50786948,-0.55039577,0.38133075,-0.05863831,0.99206439,0.05106630,0.10311758,0.05066799
1761618050799,-0.40800377,0.01948340,-0.82410546,-0.60289067,0.39030257,-0.03595411,0.99201469,0.04778054,0.10524473,0.05047204
1761618050810,0.05933823,0.39711777,0.40096131,-0.59003707,0.45805939,-0.03699363,0.99190231,0.04444684,0.10783276,0.05026303
1761618050821,-0.68151603,0.01236998,0.65724285,-0.56735335,0.49972116,-0.00870554,0.99173229,0.04124129,0.11065619,0.05021384
1761618050832,-1.17570195,0.23896567,0.85759545,-0.57265419,0.57898100,-0.00288385,0.99149862,0.03809169,0.11384058,0.05019798
1761618050844,-0.43283744,0.09427914,0.15279927,-0.52788134,0.64643505,0.02583323,0.99118110,0.03516195,0.11742830,0.05034136
1761618050855,-0.46502773,0.25878918,0.21715449,-0.50143165,0.69108321,0.03483912,0.99080068,0.03235393,0.12129836,0.05053646
1761618050866,-0.56410416,0.23304499,0.25304348,-0.50348770,0.75548518,0.01397176,0.99036175,0.02955958,0.12549131,0.05061400
1761618050877,-0.09665960,0.06577605,0.25098964,-0.48867614,0.77737976,0.01672076,0.98987354,0.02682299,0.12984463,0.05070764
1761618050888,-0.23041177,-0.05405824,-0.16267694,-0.47274854,0.79775413,0.05211265,0.98932554,0.02415196,0.13435194,0.05100207
1761618050899,-0.23832037,0.37231343,-1.17711085,-0.47671319,0.86066263,0.07066698,0.98871733,0.02155387,0.13904256,0.05138721
1761618050910,-0.24660459,0.02796959,0.15491121,-0.42824536,0.87125053,0.08789728,0.98804875,0.01917711,0.14387800,0.05187504
1761618050922,0.02026970,0.18474442,0.78908841,-0.41032348,0.89074777,0.07472943,0.98732283,0.01685878,0.14891072,0.05229726
1761618050933,-0.56845211,-0.23332256,1.36608109,-0.36251819,0.92413465,0.06088270,0.98655710,0.01486493,0.15399346,0.05263211
1761618050944,0.19632050,0.05330647,0.19208096,-0.33381877,0.90094724,0.04013366,0.98577789,0.01301224,0.15899372,0.05285486
1761618050955,0.40532667,0.16519594,0.12647955,-0.36025764,0.85555983,0.04888120,0.98499600,0.01097678,0.16382763,0.05313103
1761618050966,0.38848443,-0.33676443,0.06861752,-0.34230168,0.85156758,0.05549265,0.98420094,0.00907701,0.16855383,0.05343902
1761618050977,0.23342139,0.19093911,-0.10368006,-0.34111696,0.79752473,0.03205920,0.98343163,0.00716675,0.17301997,0.05361855
1761618050989,0.16345662,-0.08933094,-0.18436386,-0.30971916,0.74711235,0.01035365,0.98269432,0.00543233,0.17720380,0.05367653
1761618051000,0.62285798,-0.24376681,-1.48490863,-0.28684384,0.73465355,0.03532565,0.98195394,0.00385469,0.18124439,0.05387082
1761618051011,0.16268566,0.55653607,0.03996776,-0.28182579,0.66072999,0.00413780,0.98127365,0.00229055,0.18491145,0.05389379
1761618051023,0.80341652,0.37261098,-0.06287634,-0.23314779,0.55986483,-0.01660976,0.98065306,0.00091498,0.18821465,0.05379579
1761618051033,0.17861005,-0.19350491,0.51438815,-0.24138193,0.58880561,0.00978673,0.98005225,-0.00035227,0.19130588,0.05384717
1761618051044,0.71464481,0.21192348,-0.13335319,-0.23196125,0.47690806,0.00287369,0.97952969,-0.00163966,0.19395272,0.05386312
1761618051055,0.94817875,-0.05950305,-0.13932422,-0.25125726,0.42642410,0.01656547,0.97904972,-0.00303414,0.19631937,0.05395506
1761618051066,0.30944772,0.02578089,-0.46797290,-0.21649908,0.35714602,0.01526497,0.97863732,-0.00424653,0.19831939,0.05404054
1761618051078,0.51697906,0.23568163,0.01710593,-0.20372623,0.31727426,0.00798920,0.97826750,-0.00538740,0.20009612,0.05408528
1761618051089,0.07947562,0.30968498,-0.27845840,-0.19378038,0.24959562,0.00946219,0.97797371,-0.00646288,0.20148138,0.05413779
1761618051100,0.10559784,0.59684310,-1.24075317,-0.17050475,0.22347053,-0.01301827,0.97771231,-0.00741771,0.20273282,0.05406489
1761618051111,0.34021784,0.06105865,-0.41244285,-0.12932937,0.19084677,-0.03447420,0.97749499,-0.00814195,0.20380156,0.05387184
1761618051122,0.28699941,0.00403890,0.20527110,-0.14418124,0.16433627,-0.05400795,0.97731223,-0.00894937,0.20472184,0.05356939
1761618051133,0.75444828,-0.22840387,1.26359331,-0.18206105,0.12937731,-0.05252391,0.97716770,-0.00995981,0.20543988,0.05327788
1761618051144,0.23492822,0.11541362,0.09145420,-0.18960617,0.09985965,-0.06075267,0.97705706,-0.01102160,0.20599910,0.05293767
1761618051156,0.10643687,0.20432077,0.00000000,-0.18239108,0.08277643,-0.06121570,0.97696567,-0.01204299,0.20646265,0.05259486
1761618051167,0.09063847,-0.00998395,0.06625475,-0.17003085,0.06660475,-0.03972189,0.97688795,-0.01297816,0.20682897,0.05237639
1761618051178,0.20117878,0.11329249,0.24487049,-0.17043543,0.05158345,-0.04151589,0.97682547,-0.01394112,0.20712042,0.05214183
1761618051189,-0.32752152,0.59172125,-0.33175125,-0.16811504,0.03830598,-0.02898790,0.97677518,-0.01487416,0.20733302,0.05198094
1761618051200,-0.33802609,1.00064951,-0.04416034,-0.14284020,0.06124009,-0.00555296,0.97669147,-0.01567406,0.20767596,0.05194985
1761618051212,-0.47136326,0.52363137,0.11213884,0.00102967,0.12337771,0.00725140,0.97654224,-0.01566830,0.20836688,0.05199046
1761618051223,-0.51270416,0.10267473,0.76154925,0.09512253,0.22606420,0.00415052,0.97628079,-0.01514037,0.20962153,0.05201349
1761618051234,-0.15710396,-0.05614219,0.85130657,0.13300614,0.31659695,0.02560618,0.97590205,-0.01439553,0.21139448,0.05215689
1761618051246,0.17889653,0.12901012,0.56559837,0.10138451,0.34322375,0.01416265,0.97543559,-0.01375681,0.21355679,0.05224611
1761618051256,-1.99439034,1.44091863,0.60861073,0.10538264,0.49037419,-0.00136095,0.97490322,-0.01322990,0.21600866,0.05223930
1761618051267,-0.70538041,0.38051967,0.21037971,0.24886314,0.55673134,-0.02865013,0.97428195,-0.01193581,0.21890366,0.05209032
1761618051278,-0.18262331,0.47157417,0.42194388,0.33043153,0.61637652,-0.10032080,0.97354421,-0.01006887,0.22238619,0.05152351
1761618051289,-0.34676081,0.38658423,0.38309198,0.37954811,0.70095662,-0.10418357,0.97268962,-0.00794340,0.22631154,0.05094008
1761618051301,-0.41966306,0.59806050,-0.16237960,0.37934664,0.71551570,-0.10496424,0.97177003,-0.00576216,0.23042576,0.05033654
1761618051313,0.02497522,-0.18200440,0.34094794,0.36240773,0.75932900,-0.12063220,0.97076141,-0.00366019,0.23482987,0.04963687
1761618051323,-0.39180414,0.12538803,0.35348323,0.36674539,0.83570586,-0.13118851,0.96968018,-0.00164309,0.23942625,0.04891534
1761618051334,-0.31643568,-0.62749422,1.06616677,0.39910742,0.89240884,-0.14298204,0.96853935,0.00047218,0.24415602,0.04815753
1761618051345,0.30562974,0.39669844,0.08317101,0.37879339,0.87751339,-0.13950670,0.96733352,0.00257448,0.24902622,0.04738327
1761618051356,0.09777675,-0.32455483,0.11562646,0.42120847,0.86004827,-0.14321775,0.96608855,0.00497537,0.25392849,0.04656693
1761618051368,-0.07335874,0.11396864,-0.02644249,0.44746241,0.88053053,-0.20450256,0.96481743,0.00748116,0.25885946,0.04542171
1761618051379,-0.07937903,-0.00953973,0.15534505,0.44620227,0.86561918,-0.20395545,0.96355753,0.00993527,0.26362037,0.04429996
1761618051390,0.55502679,0.14764227,0.17244155,0.41594140,0.83147877,-0.20082221,0.96229575,0.01226454,0.26827665,0.04317535
1761618051401,-0.09820966,-0.93307721,0.27083927,0.43014907,0.76471755,-0.18580450,0.96109324,0.01469488,0.27259730,0.04212556
1761618051412,0.21143513,-0.10016283,0.12666928,0.42360864,0.77602683,-0.18964634,0.95986795,0.01704591,0.27690425,0.04107302
1761618051424,0.41982289,0.32840508,-0.03386939,0.36750405,0.74210752,-0.16137798,0.95865881,0.01910393,0.28106005,0.04016930
1761618051435,0.51517143,0.56200274,-0.27384007,0.36821371,0.72521512,-0.17340789,0.95744482,0.02118434,0.28515752,0.03918955
1761618051446,-0.10630836,0.34268519,-0.08180332,0.40171696,0.69391921,-0.17991915,0.95627777,0.02341387,0.28900877,0.03819100
1761618051457,0.25380017,0.00740559,-0.33415564,0.43934421,0.62417099,-0.19343164,0.95518385,0.02589617,0.29253534,0.03709811
1761618051468,0.50560502,0.18628990,0.20386870,0.44520344,0.60981413,-0.20038316,0.95413257,0.02832252,0.29585882,0.03600602
1761618051479,0.35038374,-0.35748724,-0.08551219,0.39690480,0.51787944,-0.18144358,0.95319766,0.03054519,0.29875895,0.03498994
1761618051491,0.71849261,-0.52859378,-0.10816233,0.36815727,0.49402801,-0.15133645,0.95228035,0.03262528,0.30155021,0.03413489
1761618051502,0.20357502,-0.55717489,0.23962191,0.32979834,0.45901987,-0.11200575,0.95142746,0.03445566,0.30409777,0.03351325
1761618051513,-0.23027198,-0.11223340,0.02902588,0.30477266,0.42857613,-0.11874180,0.95062412,0.03614715,0.30647636,0.03285424
1761618051524,0.36972085,0.13190098,-0.36999482,0.30360582,0.40375745,-0.09513729,0.94984426,0.03784734,0.30873741,0.03232147
1761618051535,0.02750548,0.31100669,-0.05818998,0.29646746,0.36410456,-0.08358268,0.94913369,0.03949274,0.31075819,0.03185759
1761618051546,0.35097111,-0.07539920,-0.17611055,0.28451280,0.33240605,-0.07825989,0.94846914,0.04108601,0.31261966,0.03141933
1761618051557,0.10060577,-0.17813986,-0.04870474,0.27203043,0.28667874,-0.06270280,0.94788807,0.04259578,0.31421073,0.03107133
1761618051568,0.34057033,-0.12892328,-0.05998682,0.24101620,0.24109259,-0.05958419,0.94739318,0.04393342,0.31554879,0.03074064
1761618051580,0.31725021,-0.29902220,-0.26448171,0.19462694,0.18855089,-0.02534816,0.94699067,0.04503306,0.31661410,0.03059742
1761618051591,0.31850755,-0.55879191,-0.36213538,0.19486685,0.16322258,-0.01070366,0.94664037,0.04610483,0.31751183,0.03053855
1761618051602,0.58245432,-0.55837211,-0.31405752,0.15193489,0.12391650,0.00233332,0.94636261,0.04696326,0.31821196,0.03055173
1761618051613,0.03759267,-0.49014278,-0.01727412,0.11552785,0.11166793,0.03181528,0.94611401,0.04761021,0.31883730,0.03072990
1761618051624,-0.05701975,0.16036805,0.25278756,0.05892395,0.09894624,0.05140263,0.94590104,0.04794019,0.31939140,0.03101775
1761618051635,-0.05246194,0.05347793,0.13996888,0.06055139,0.07966350,0.04916901,0.94572713,0.04827322,0.31982955,0.03128818
1761618051647,-0.07052409,-0.10728361,-0.29734815,0.05124467,0.05975020,0.03634682,0.94559366,0.04855763,0.32016116,0.03148991
1761618051658,0.13738917,-0.00774023,-0.03289600,0.04169205,0.06201402,0.03541961,0.94545858,0.04878902,0.32050534,0.03168649
1761618051669,-0.06579199,-0.12045740,-0.10449317,0.05117147,0.05533067,0.03102332,0.94533394,0.04907302,0.32081242,0.03185867
1761618051680,0.06946821,-0.35204130,-0.02022232,0.04010697,0.08383612,0.03405394,0.94515635,0.04929762,0.32128190,0.03204937
1761618051691,-0.03240607,-0.39603310,-0.09046254,0.02034822,0.09344927,0.05728549,0.94496490,0.04940954,0.32179588,0.03236444
1761618051702,0.16266421,-0.11664066,0.16546496,-0.01701554,0.12426847,0.06896477,0.94471710,0.04931340,0.32249799,0.03275409
1761618051714,-0.28141727,-0.28905583,-0.12642184,-0.02907083,0.13936783,0.08764535,0.94443673,0.04914769,0.32329239,0.03325367
1761618051725,0.01540534,-0.05776167,-0.03494544,-0.04665216,0.18054444,0.08313865,0.94408708,0.04888644,0.32430344,0.03371924
1761618051736,-0.14531711,0.22401881,-0.13736513,-0.05799095,0.20469816,0.05356688,0.94370548,0.04856749,0.32542928,0.03401386
1761618051747,-0.03721556,0.16343150,-0.17757661,-0.05734718,0.21566357,0.05788607,0.94330396,0.04825495,0.32660464,0.03432934
1761618051758,-0.05067046,-0.20983576,-0.25167358,-0.01198097,0.19904575,0.01855430,0.94291347,0.04818726,0.32772925,0.03443417
1761618051769,-0.02304946,0.22110828,0.06580912,-0.02300628,0.20956819,0.00231794,0.94251445,0.04805957,0.32889236,0.03444704
1761618051780,0.04383500,-0.12848279,-0.17830230,-0.02850447,0.20079117,0.02824475,0.94212366,0.04789995,0.33001679,0.03460521
1761618051792,0.12605525,0.05127042,-0.45672568,-0.05317682,0.20547247,0.04403331,0.94172938,0.04760482,0.33115716,0.03484959
1761618051803,-0.13738917,0.10739576,-0.33089503,-0.04165046,0.19247624,0.02015502,0.94136057,0.04737366,0.33222540,0.03496145
1761618051814,0.12717288,0.13283847,-0.14313156,-0.02969430,0.17217364,0.00903732,0.94102621,0.04720737,0.33318957,0.03501206
1761618051825,0.32219347,-0.05199403,0.18663306,-0.00211436,0.14280671,0.00629396,0.94073687,0.04719532,0.33400357,0.03504794
1761618051836,0.23306134,0.32067057,0.23204037,-0.01076738,0.12993126,-0.00302210,0.94048871,0.04713663,0.33471170,0.03503147
1761618051847,0.08195499,0.05064862,-0.06606967,0.02285566,0.13145661,-0.00514468,0.94022104,0.04726463,0.33544785,0.03500266
1761618051859,-0.20146978,-0.18412627,0.12924477,0.03001085,0.13243566,-0.00404109,0.93994849,0.04743269,0.33618949,0.03498003
1761618051870,0.21620825,0.42416227,-0.23630176,0.03914962,0.15964294,-0.01224590,0.93962265,0.04764997,0.33707551,0.03491206
1761618051881,-0.04583402,0.04713875,-0.03786366,0.03126422,0.15772782,0.00049959,0.93930215,0.04782192,0.33794302,0.03491481
1761618051892,-0.12486406,0.03891227,-0.17726897,0.02402526,0.14505300,-0.00063380,0.93900546,0.04795526,0.33874806,0.03491129
1761618051903,0.02671195,0.06994979,-0.23907199,0.01698159,0.13229891,-0.00804422,0.93873467,0.04805036,0.33948893,0.03486624
1761618051914,0.08575632,0.05083238,-0.15620854,0.03448631,0.10324081,-0.01474581,0.93851660,0.04824520,0.34007224,0.03478293
1761618051925,0.27469271,-0.02702660,-0.15511293,0.04234329,0.08441218,-0.01678136,0.93833805,0.04848021,0.34054073,0.03468979
1761618051937,0.24737442,-0.00636056,-0.08849700,0.03808643,0.05939088,0.00358914,0.93820431,0.04869540,0.34087629,0.03471007
1761618051948,0.18479925,0.10163697,-0.22987436,0.03204983,0.04067275,0.01737484,0.93811029,0.04887167,0.34109999,0.03480563
1761618051959,0.07008431,-0.01684381,-0.10394783,0.04722580,0.02270614,0.01921543,0.93804681,0.04913378,0.34122601,0.03491228
1761618051970,0.14424456,0.12259032,-0.13349128,0.04793334,0.00523413,0.01242820,0.93801945,0.04940220,0.34125532,0.03498188
1761618051981,0.39063805,0.13802658,-0.35589540,0.06434042,-0.00623820,0.00438221,0.93801214,0.04976573,0.34122007,0.03500664
1761618051992,-0.74892693,0.11466472,-0.05170124,0.06274431,-0.02426118,-0.01159470,0.93804467,0.05011082,0.34108664,0.03494287
1761618052003,-0.01389724,0.11656749,0.01029099,0.07798433,-0.03887607,-0.01278197,0.93810252,0.05054363,0.34087088,0.03487193
1761618052014,0.06192188,0.09070588,-0.17415528,0.09483738,-0.04680740,-0.00948225,0.93817032,0.05106998,0.34061110,0.03481930
1761618052026,0.37746047,0.12905427,0.30806075,0.09380871,-0.05106886,0.00652453,0.93824401,0.05159531,0.34032511,0.03485584
1761618052037,0.24222788,-0.00395434,0.00457849,0.11756805,-0.05129491,-0.00144349,0.93831141,0.05224781,0.34004042,0.03484783
1761618052048,0.00193506,0.08030493,-0.08707764,0.13768293,-0.06090631,0.00207047,0.93839056,0.05301195,0.33970239,0.03485932
1761618052059,0.07922834,0.03599479,0.08556387,0.14928722,-0.06295961,-0.00870546,0.93847233,0.05384796,0.33934982,0.03481057
1761618052070,-0.06082107,-0.12591861,-0.16725793,0.18831419,-0.05772791,-0.01420294,0.93853102,0.05490252,0.33902654,0.03473103
1761618052081,0.07602633,0.08647995,0.23378097,0.18548669,-0.03773568,-0.00932498,0.93854792,0.05594125,0.33881522,0.03467881
1761618052093,-0.43778975,0.13094689,-0.64496197,0.18999312,-0.03457870,0.00166965,0.93855340,0.05699571,0.33862331,0.03468808
1761618052104,-0.10255811,0.22567622,0.01548047,0.20143817,-0.02868850,0.01017942,0.93854018,0.05811369,0.33846409,0.03474457
1761618052115,0.05697383,-0.37817074,-0.04953881,0.21366256,-0.00856754,0.00061435,0.93848198,0.05932088,0.33841568,0.03474804
1761618052126,0.30111477,0.16009597,0.47985505,0.18858595,-0.01815425,-0.00818259,0.93845378,0.06034868,0.33831674,0.03470345
1761618052137,0.10136263,0.23722701,0.17262860,0.17541009,-0.04927971,-0.03456531,0.93849668,0.06133097,0.33804078,0.03450988
1761618052148,0.25658887,-0.01235428,-0.22617834,0.21949355,-0.07445215,-0.04620686,0.93857511,0.06256014,0.33762384,0.03425112
1761618052159,0.09683116,0.38871887,-0.09862563,0.26908820,-0.12944381,-0.04837039,0.93874078,0.06404012,0.33691190,0.03398509
1761618052170,0.07595722,0.05608670,0.01513615,0.30431958,-0.15989783,-0.00275846,0.93894445,0.06574431,0.33601648,0.03396964
1761618052182,0.39533693,-0.17866188,0.16535727,0.29772258,-0.13697889,0.01812820,0.93909674,0.06741156,0.33524939,0.03407116
1761618052193,-0.41121023,-0.16766161,-1.01922322,0.27738050,-0.14771896,0.03878335,0.93927252,0.06897876,0.33441478,0.03429028
1761618052204,0.23812215,-0.28250631,-0.07466601,0.26819765,-0.15659360,0.06980427,0.93945516,0.07045384,0.33355352,0.03467421
1761618052215,0.20244232,0.09008358,0.25989597,0.22672044,-0.16377880,0.05772251,0.93967034,0.07171214,0.33264454,0.03499457
1761618052226,0.32629680,0.24448930,1.04745109,0.20239871,-0.18846888,0.05110953,0.93994545,0.07284558,0.33158912,0.03528078
1761618052237,0.25902143,0.30528358,0.21057585,0.22479892,-0.17733376,0.03823267,0.94018660,0.07409321,0.33060492,0.03549297
1761618052249,-0.14214021,-0.37366053,-0.19344525,0.26735533,-0.18655461,0.01239135,0.94043371,0.07560377,0.32955088,0.03556298
1761618052260,0.16366323,-0.04307570,0.24188985,0.23397424,-0.18782566,0.03171419,0.94068190,0.07687893,0.32852723,0.03573583
1761618052270,0.37886355,-0.06691866,-0.03522966,0.19899099,-0.18650244,0.05860969,0.94091638,0.07788383,0.32758540,0.03603180
1761618052281,-0.08014756,-0.19035752,0.22949038,0.13698948,-0.15187078,0.05615524,0.94113616,0.07865097,0.32673492,0.03634627
1761618052292,-0.21727491,-0.20569681,0.09164123,0.11523618,-0.15334082,0.03887442,0.94137336,0.07930206,0.32586854,0.03656591
1761618052303,-1.40037540,-0.59282558,-1.87650303,0.08769491,-0.13806888,0.02964773,0.94159466,0.07979753,0.32508845,0.03673342
1761618052315,-0.25206757,-0.26840528,0.09709269,0.03393786,-0.12648274,0.04544398,0.94181477,0.07998928,0.32437383,0.03699018
1761618052326,0.22254887,-0.11616774,0.34219715,0.00034377,-0.09617796,0.04577950,0.94198827,0.07999119,0.32384004,0.03724426
1761618052337,1.30499848,0.62314813,1.49555046,-0.02899056,-0.06704377,0.03717950,0.94212398,0.07982739,0.32346124,0.03745432
1761618052348,-0.43577217,-0.85026707,0.24252736,-0.04001374,-0.04303398,0.04941246,0.94221460,0.07960332,0.32322025,0.03773103
1761618052360,-0.17486057,-0.14967684,0.07602633,-0.05285769,-0.02926842,0.03004069,0.94228902,0.07930731,0.32305635,0.03789926
1761618052371,-0.00380132,-0.16535727,0.01140395,-0.06839747,-0.01419806,0.03354033,0.94234086,0.07892429,0.32297684,0.03808709
1761618052382,-0.04094722,-0.13463775,-0.00744652,-0.07801682,-0.02994358,0.02502569,0.94242834,0.07849129,0.32281065,0.03822598
1761618052393,-0.06964029,-0.16027780,-0.23383325,-0.08811619,-0.01710775,0.02966695,0.94249596,0.07799344,0.32271399,0.03839360
1761618052404,-0.12067574,-0.15998911,-0.48373042,-0.10649371,-0.00571903,0.02333842,0.94255026,0.07740240,0.32268225,0.03852313
1761618052415,0.03483106,-0.08973835,0.02322070,-0.08106167,-0.01040989,0.01986850,0.94260237,0.07695250,0.32262448,0.03863340
1761618052426,0.06192188,0.21866163,0.29219386,-0.05190596,-0.00439326,0.01034413,0.94263183,0.07666443,0.32260010,0.03869081
1761618052438,0.21533692,0.37828990,0.45372972,-0.01676235,-0.00239841,0.02470603,0.94263848,0.07656888,0.32258642,0.03883163
1761618052449,0.07674195,0.27250307,-0.04220807,0.02458214,-0.00926915,0.00108670,0.94264469,0.07670408,0.32253544,0.03883761
1761618052460,0.08012902,0.18826802,0.00928828,0.01231792,-0.01248596,0.00413726,0.94266189,0.07677245,0.32246615,0.03886057
1761618052471,0.15402182,0.13169978,0.09457059,0.03196599,-0.02096697,0.00756648,0.94268570,0.07695146,0.32234873,0.03890294
1761618052482,0.29158915,-0.07483451,0.02455106,0.02869255,-0.03140114,0.01995566,0.94272769,0.07711070,0.32217446,0.03901369
1761618052493,-0.00774023,-0.06700141,-0.58245266,0.02234118,-0.03680932,0.00645053,0.94278585,0.07723469,0.32197016,0.03904950
1761618052505,0.06345004,0.02365078,-0.11796796,0.04433936,-0.05106537,0.00157708,0.94286341,0.07748521,0.32168164,0.03905841
1761618052516,0.13975901,0.21371227,-0.08749978,0.04043071,-0.05279412,-0.01966556,0.94294860,0.07770758,0.32139128,0.03895025
1761618052527,0.22064915,0.17385408,0.55070711,0.05548487,-0.06608880,-0.01996318,0.94305362,0.07801830,0.32102118,0.03883845
1761618052538,0.07843769,0.12028016,0.02667382,0.06814112,-0.06707700,-0.02561326,0.94315656,0.07840329,0.32064219,0.03869374
1761618052549,0.43366270,0.58709028,-0.26891621,0.07653216,-0.07910145,-0.02388733,0.94327466,0.07882422,0.32020714,0.03856236
1761618052560,-0.25221139,-0.50540798,-0.05517124,0.08714282,-0.08658669,-0.02199174,0.94340095,0.07930351,0.31973091,0.03844140
1761618052571,0.23787710,0.00707614,0.06715012,0.07419043,-0.09260827,-0.01147584,0.94354544,0.07972268,0.31920767,0.03837656
1761618052583,0.10769543,-0.04354096,-0.02258710,0.07202574,-0.10197522,-0.02428858,0.94370834,0.08012242,0.31864171,0.03824176
1761618052594,-0.30758131,0.08983607,-0.56745781,0.05824145,-0.10827540,-0.01007590,0.94388739,0.08044858,0.31803537,0.03818534
1761618052605,-0.07472436,-0.04589717,-0.28466095,0.04951417,-0.11345074,-0.01652659,0.94407956,0.08072338,0.31740572,0.03809361
1761618052616,-0.07799548,-0.12533429,-0.12462154,0.05175777,-0.11169963,-0.03167754,0.94427195,0.08101322,0.31678020,0.03791622
1761618052627,0.45990470,-0.07623397,0.53984682,0.03082254,-0.11252404,-0.03228453,0.94447372,0.08118429,0.31615569,0.03773704
1761618052638,0.15431291,-0.15181294,-0.06556415,0.03130018,-0.10838539,-0.03157792,0.94466865,0.08135957,0.31554873,0.03756020
1761618052650,-0.11403950,0.11213884,0.07032436,0.04329713,-0.11385165,-0.04921592,0.94487138,0.08160203,0.31491116,0.03728459
1761618052661,0.08901270,-0.01584329,-0.23507507,0.06117100,-0.10037165,-0.03524523,0.94503518,0.08194153,0.31435410,0.03708898
1761618052672,-0.05400609,-0.19123234,0.00679785,0.06668673,-0.09606045,-0.05321126,0.94519315,0.08231498,0.31381616,0.03679100
1761618052683,0.18979189,-0.03511097,-0.09081440,0.04106460,-0.09952982,-0.04848579,0.94536537,0.08254083,0.31326875,0.03652433
1761618052694,0.41617459,0.37593502,-0.38857447,0.02110268,-0.10341091,-0.04794409,0.94555879,0.08266006,0.31268448,0.03625344
1761618052705,-0.05995257,-0.08360352,-0.12696040,0.01995970,-0.11116612,-0.06373009,0.94576639,0.08277084,0.31206750,0.03589974
1761618052716,-0.02709082,0.10546070,0.01548047,0.00606527,-0.10532811,-0.05729494,0.94596815,0.08280450,0.31148293,0.03558176
1761618052728,-0.44590129,-0.52873831,0.30662242,0.00113490,-0.09453051,-0.05467976,0.94615320,0.08281086,0.31095356,0.03527555
1761618052739,-0.06816827,-0.17612638,0.21824184,-0.00929534,-0.09814831,-0.05214829,0.94635080,0.08275834,0.31039902,0.03498091
1761618052750,0.18454980,-0.03896874,-0.10584600,-0.01272799,-0.10579631,-0.04433306,0.94655842,0.08268770,0.30981185,0.03473486
1761618052761,-0.08707764,0.08441693,-0.02322070,-0.01403226,-0.11763758,-0.04935724,0.94678868,0.08260982,0.30915897,0.03446093
1761618052772,0.01018821,-0.06263611,-0.08847479,-0.01601521,-0.12964812,-0.02591840,0.94703853,0.08252013,0.30843294,0.03431579
1761618052783,0.05131777,0.14302454,0.01140395,-0.03192202,-0.12730066,-0.01601039,0.94728921,0.08234137,0.30772005,0.03422613
1761618052795,-0.15585398,0.45805865,-0.85909756,-0.03034868,-0.13241139,-0.00916804,0.94754636,0.08217142,0.30697855,0.03417479
1761618052806,0.22484691,-0.12774411,0.00222877,-0.02471841,-0.15536388,-0.00807211,0.94783878,0.08203423,0.30611628,0.03412999
1761618052817,0.07746467,-0.30484590,-0.23598985,-0.02807248,-0.18830205,-0.01625881,0.94819555,0.08187703,0.30506179,0.03403894
1761618052828,0.42108259,-0.35056957,0.41420622,-0.06410291,-0.22484696,-0.00589641,0.94862795,0.08152125,0.30381389,0.03400621
1761618052839,0.24790749,-0.14150487,-0.25085265,-0.08502691,-0.24234555,0.00166115,0.94910197,0.08104510,0.30245675,0.03401552
1761618052850,0.21040308,-0.21907629,-0.31966478,-0.10658987,-0.29471416,-0.00463867,0.94967289,0.08045353,0.30082109,0.03398977
1761618052861,0.54181643,-0.07377411,-0.34444044,-0.13950357,-0.33232695,-0.01843332,0.95032405,0.07967929,0.29897667,0.03388747
1761618052873,0.32266671,-0.35978948,-0.40809360,-0.16436733,-0.42226553,-0.03807163,0.95114900,0.07875883,0.29661199,0.03367427
1761618052884,0.75225406,-0.15508113,-0.84021284,-0.23179138,-0.52324964,-0.04563464,0.95216422,0.07747239,0.29370795,0.03342099
1761618052895,-0.24186305,0.00116865,-1.87192584,-0.30334186,-0.64812956,-0.04210887,0.95342100,0.07577367,0.29007843,0.03318518
1761618052906,0.85939066,-0.55339655,-0.62485118,-0.38666380,-0.75607724,-0.03122267,0.95486153,0.07362769,0.28588220,0.03301190
1761618052917,1.00712631,-0.75302028,-0.22081883,-0.46522247,-0.86878625,0.02429015,0.95649698,0.07102244,0.28101699,0.03314792
1761618052928,1.70836309,-1.27128172,0.84202696,-0.56796741,-0.97519488,0.03962724,0.95829134,0.06787022,0.27560466,0.03336785
1761618052939,0.89938809,-0.86025336,-0.41636403,-0.69419395,-1.09010217,0.08242308,0.96027677,0.06398274,0.26950009,0.03382942
1761618052951,0.76976662,-1.07387195,-0.23568163,-0.83997122,-1.22174385,0.14466801,0.96244310,0.05927890,0.26265833,0.03463956
1761618052962,0.70944806,-0.92859531,-0.19446268,-0.95632028,-1.30732445,0.18804454,0.96472631,0.05382787,0.25520658,0.03571142
1761618052973,1.18393819,-1.28368001,-0.73908727,-1.10342622,-1.50999274,0.22473752,0.96711430,0.04786937,0.24705262,0.03692500
1761618052984,0.31818428,0.56887759,-0.19175531,-1.15214196,-1.55651136,0.25678475,0.96954049,0.04141738,0.23833615,0.03836299
1761618052996,0.17364702,-0.03167352,-1.26639347,-1.06901245,-1.59225524,0.28880543,0.97192094,0.03527055,0.22918068,0.04002363
1761618053006,1.16792301,-0.00849500,-0.72530487,-1.12075164,-1.77890974,0.28831087,0.97425007,0.02927453,0.21966352,0.04156609
1761618053017,-0.14038227,0.85388185,0.54873960,-0.95664049,-1.70575656,0.29968970,0.97642774,0.02391735,0.21011128,0.04324435
1761618053029,-0.64017627,0.15405121,0.88272076,-0.75910964,-1.63877300,0.32779525,0.97845337,0.01947655,0.20052446,0.04516195
1761618053040,1.67606916,-0.10581826,-0.79708520,-0.78587653,-1.80429055,0.37351650,0.98032798,0.01535070,0.19105193,0.04712292
1761618053051,-0.51146365,0.48632862,0.78148727,-0.72275973,-1.68822585,0.34966125,0.98206707,0.01133939,0.18168228,0.04906354
1761618053062,-0.20229327,0.16383761,0.45560562,-0.70937440,-1.65190017,0.33319867,0.98369027,0.00733142,0.17234904,0.05094611
1761618053073,0.46232942,-0.01645852,0.07086470,-0.69366195,-1.66954211,0.35782306,0.98517227,0.00351628,0.16316656,0.05291413
1761618053084,-0.56200738,0.65662129,0.44482316,-0.62539678,-1.60995410,0.31668671,0.98653271,0.00001406,0.15415082,0.05468758
1761618053095,-0.67977575,1.20984576,-0.26689988,-0.55067867,-1.56595766,0.31581927,0.98774829,-0.00304221,0.14545975,0.05644038
1761618053107,-0.74484337,0.66242880,0.44471994,-0.48311910,-1.47008562,0.29652266,0.98884498,-0.00582014,0.13700676,0.05814538
1761618053118,0.67379164,-0.03425792,-0.21499904,-0.47663857,-1.52127472,0.32156779,0.98982643,-0.00839399,0.12879188,0.05988185
1761618053129,0.12354279,-0.65731980,1.08337524,-0.44898515,-1.43611565,0.31622713,0.99070655,-0.01090831,0.12074963,0.06165272
1761618053140,0.00305808,0.34213608,0.50715815,-0.49054246,-1.42183490,0.33046094,0.99148707,-0.01363082,0.11285845,0.06348678
1761618053152,-0.62624922,-0.04188434,0.53939062,-0.44575761,-1.33082369,0.34082606,0.99216237,-0.01619393,0.10520621,0.06544653
1761618053162,0.35978923,0.03071193,-0.23636386,-0.43767313,-1.38096721,0.36459605,0.99275170,-0.01855736,0.09774899,0.06741535
1761618053173,-0.46187670,0.75997747,0.39612368,-0.37203161,-1.27920768,0.35368060,0.99324503,-0.02060353,0.09071335,0.06936059
1761618053185,-0.74353993,0.73116146,0.32595647,-0.30560027,-1.18511895,0.35379162,0.99365500,-0.02233018,0.08401742,0.07135951
1761618053196,-0.06366857,0.30500720,-0.04894157,-0.25485373,-1.13240307,0.35335129,0.99399091,-0.02374461,0.07773259,0.07332061
1761618053207,-0.61629274,0.20863364,0.34948141,-0.28844239,-1.08714952,0.33565205,0.99426800,-0.02535989,0.07164455,0.07520026
1761618053218,-0.21287373,0.07341293,0.53218433,-0.29943910,-1.05195041,0.30498796,0.99450018,-0.02703675,0.06575363,0.07690820
1761618053229,-0.16016549,-0.08302955,0.49562634,-0.30479239,-1.01290250,0.29045062,0.99468109,-0.02871311,0.06018266,0.07850568
1761618053240,-0.68699027,0.36610184,0.17938598,-0.20481834,-0.92116585,0.24245429,0.99484048,-0.02988057,0.05493202,0.07988766
1761618053252,-0.14899952,0.38317981,-0.07307393,-0.15062263,-0.87937574,0.23353006,0.99496761,-0.03071653,0.05005148,0.08118376
1761618053263,-0.52959875,0.30680007,0.48833220,-0.12988730,-0.80752265,0.21341226,0.99506386,-0.03144390,0.04552936,0.08237887
1761618053276,-1.31162968,0.15811543,0.58745592,-0.11539913,-0.64814105,0.15815276,0.99513808,-0.03219399,0.04131644,0.08340686
1761618053285,3.40022149,-0.14816588,-0.85739709,-0.17143862,-0.84359255,0.18718626,0.99519275,-0.03297404,0.03747809,0.08425856
1761618053296,-2.06813598,0.55910072,-0.37192708,-0.12387958,-0.67529368,0.12274644,0.99524508,-0.03364918,0.03379774,0.08492752
1761618053307,-0.46484174,0.24636630,0.35012219,-0.09258516,-0.61015433,0.08458100,0.99529705,-0.03416766,0.03038088,0.08540118
1761618053318,-0.42074612,-0.00613081,0.35617881,-0.07727316,-0.55494875,0.05830961,0.99534441,-0.03460425,0.02724542,0.08573063
1761618053329,-0.30915133,0.06795694,1.30941902,-0.10444008,-0.50864032,0.04692860,0.99537513,-0.03518912,0.02439703,0.08599343
1761618053341,-0.36112508,-0.06652304,0.28129743,-0.09711925,-0.47985490,0.03642573,0.99540034,-0.03573298,0.02170984,0.08619741
1761618053352,-0.01892993,0.12097737,0.15133387,-0.09418239,-0.43068367,0.00459453,0.99542827,-0.03625099,0.01934108,0.08622268
1761618053363,-0.61677625,-0.12315453,0.21603124,-0.07194119,-0.40106566,-0.00103222,0.99545534,-0.03665745,0.01707506,0.08621685
1761618053374,-0.20052688,0.33785397,0.13786865,-0.05038624,-0.38984386,-0.03933195,0.99549864,-0.03693710,0.01491143,0.08599856
1761618053385,-0.15253211,0.91172953,-0.00715743,-0.00748369,-0.35353811,-0.05826789,0.99555291,-0.03697901,0.01293162,0.08567226
1761618053397,-0.97423293,1.80848942,-0.67004862,0.05141596,-0.35997167,-0.05451175,0.99561340,-0.03669365,0.01093377,0.08536972
1761618053408,0.05131777,0.30194569,0.41698046,0.05719429,-0.33365843,-0.05522976,0.99567039,-0.03637336,0.00906529,0.08506043
1761618053419,-0.06580097,-0.53271155,0.44331884,0.09336500,-0.32994851,-0.07524404,0.99574097,-0.03584585,0.00720108,0.08463530
1761618053430,0.67312643,-1.07650268,0.78823673,0.11147695,-0.33659190,-0.05880378,0.99580250,-0.03522715,0.00533299,0.08430894
1761618053441,-0.14647055,0.02966354,0.34907045,0.09226466,-0.33873000,-0.05757669,0.99585624,-0.03471047,0.00343610,0.08398651
1761618053454,-0.38629357,-0.30924134,0.31864224,0.06328098,-0.31571804,-0.04172811,0.99589614,-0.03432129,0.00149444,0.08372988
1761618053463,1.21034628,0.74176825,0.41619088,0.04412230,-0.40701158,-0.05807143,0.99592845,-0.03410509,-0.00049992,0.08344533
1761618053475,-0.79047857,-0.15808285,0.02231074,0.06054814,-0.37018971,-0.04234296,0.99595687,-0.03376299,-0.00259149,0.08320609
1761618053486,-0.06535085,0.49013139,0.02053884,0.11108709,-0.37359980,-0.04372431,0.99599083,-0.03313535,-0.00470233,0.08295905
1761618053497,0.06261681,0.66269757,-0.80236894,0.16556115,-0.40168056,-0.02865488,0.99602069,-0.03223304,-0.00689149,0.08280288
1761618053508,-0.03946046,0.16959888,-0.35659140,0.19133831,-0.39925549,-0.00919329,0.99604109,-0.03116155,-0.00912732,0.08275140
1761618053519,0.01045280,-0.01309101,0.00150040,0.21366276,-0.39535031,-0.00783265,0.99605883,-0.02995435,-0.01136105,0.08270715
1761618053530,0.17018064,0.06205076,1.43041948,0.18292318,-0.43601874,0.02274550,0.99604807,-0.02895742,-0.01373735,0.08283111
1761618053542,-0.28279054,-0.22251115,0.61876630,0.17290198,-0.42361660,0.01952107,0.99603075,-0.02797188,-0.01615197,0.08294238
1761618053553,0.01479530,0.33014163,0.13951825,0.15919364,-0.46120443,0.02487915,0.99599918,-0.02709632,-0.01868859,0.08307921
1761618053564,0.32132529,0.49016575,-0.00066847,0.20602352,-0.46545038,0.02633954,0.99596561,-0.02595289,-0.02127184,0.08322540
1761618053575,-0.13981886,0.32218306,-0.10957412,0.29420693,-0.49936825,0.02729950,0.99593038,-0.02429062,-0.02409327,0.08337964
1761618053586,0.09918269,0.71674008,-0.00498703,0.37559159,-0.55350536,0.01875764,0.99589168,-0.02222486,-0.02713755,0.08348281
1761618053597,-0.11873931,0.33975995,0.01406487,0.41146775,-0.58258526,0.04158457,0.99582664,-0.01992064,-0.03040003,0.08371568
1761618053608,0.17159824,-0.14362195,0.31515540,0.37240849,-0.59828531,0.07364560,0.99572449,-0.01785378,-0.03372051,0.08412441
1761618053619,-0.02941740,-0.04582556,0.49353761,0.32299589,-0.58664760,0.06557326,0.99560750,-0.01604500,-0.03700574,0.08449162
1761618053631,0.18061699,-0.06768818,0.55855814,0.30088530,-0.61888419,0.07544023,0.99546379,-0.01437509,-0.04044054,0.08491032
1761618053642,-0.11818328,0.33412631,-0.28557819,0.36092125,-0.65637814,0.08067367,0.99529616,-0.01235393,-0.04411626,0.08536209
1761618053653,0.24889692,0.40060466,0.20494345,0.43067793,-0.68626194,0.09864223,0.99509973,-0.00996367,-0.04792502,0.08590956
1761618053664,-0.01669497,0.05128995,0.23593848,0.44312210,-0.70671356,0.11281263,0.99486824,-0.00748218,-0.05188261,0.08654131
1761618053675,-0.22237702,-0.13114542,0.25658887,0.42699198,-0.72819830,0.10226027,0.99461232,-0.00509103,-0.05596052,0.08711396
1761618053687,0.33217355,-0.36545613,0.36607163,0.39766266,-0.74998773,0.11225972,0.99432345,-0.00288400,-0.06012295,0.08773700
1761618053698,0.21057924,-0.19113602,-1.01092762,0.37403878,-0.79664300,0.11236047,0.99399179,-0.00078938,-0.06458415,0.08836622
1761618053709,0.42609301,0.56245418,0.55368594,0.36906688,-0.83350909,0.12132747,0.99361981,0.00125894,-0.06921013,0.08903959
1761618053720,-0.00387012,0.13279340,0.08514258,0.41112610,-0.87949378,0.12096832,0.99320183,0.00354069,-0.07409132,0.08971097
1761618053731,0.13653918,-0.14521415,1.12118293,0.41088816,-0.86564731,0.16948081,0.99273122,0.00584166,-0.07893895,0.09066006
1761618053742,-0.06423704,-0.00610537,0.33549080,0.38405131,-0.86794356,0.19025760,0.99222454,0.00797315,-0.08375603,0.09171599
1761618053753,-0.24234250,-0.51781809,-0.09491305,0.34635066,-0.85122708,0.16526146,0.99170711,0.00991271,-0.08852290,0.09264145
1761618053765,-0.03801317,-0.10762478,0.35922442,0.29012778,-0.83591651,0.14933613,0.99118203,0.01153743,-0.09320404,0.09347773
1761618053776,0.09313226,-0.26823040,-0.00570197,0.27149773,-0.83780092,0.10036766,0.99065758,0.01305781,-0.09789572,0.09403979
1761618053787,0.01862494,0.23219408,0.06028053,0.30337808,-0.86432515,0.05896037,0.99011704,0.01474156,-0.10269273,0.09436702
1761618053798,-0.17802540,0.20680940,-0.41410256,0.30826601,-0.87281954,0.07581956,0.98953545,0.01645244,-0.10753687,0.09478782
1761618053809,0.02322070,0.03434729,0.24188233,0.29456405,-0.86568957,0.06829057,0.98893656,0.01808727,-0.11234145,0.09516683
1761618053820,0.03803029,-0.52281802,0.16795998,0.26684549,-0.83042538,0.05374627,0.98833970,0.01958160,-0.11699183,0.09546781
1761618053831,0.17641861,0.04932672,0.45748588,0.19545626,-0.83619952,0.04739375,0.98773174,0.02066639,-0.12163274,0.09573085
1761618053842,0.08707764,-0.68259195,-0.10836329,0.17840118,-0.82406076,0.06269365,0.98710275,0.02165651,-0.12620628,0.09607880
1761618053854,-0.00645539,-0.16852718,-0.06280734,0.15028182,-0.81336897,0.03701455,0.98647065,0.02249809,-0.13076114,0.09628608
1761618053865,0.28709705,0.31130472,0.20269740,0.13000867,-0.83323763,-0.00093402,0.98583040,0.02321964,-0.13538561,0.09628090
1761618053876,0.22674340,-0.04290822,-0.21419221,0.15923773,-0.87190342,-0.01173127,0.98513252,0.02411137,-0.14026827,0.09621520
1761618053887,0.62721724,-0.16630760,0.08933094,0.15211596,-0.90156309,-0.01648293,0.98438823,0.02496322,-0.14531703,0.09612290
1761618053898,1.03333483,-0.53065815,-0.63798785,0.11866616,-0.93749484,0.00740210,0.98359249,0.02561588,-0.15047325,0.09616361
1761618053909,0.02097636,-0.32627392,-0.05764178,0.05904325,-0.95342458,0.01847765,0.98274204,0.02594653,-0.15581243,0.09626708
1761618053921,0.05511909,0.32596290,0.44475405,0.01247950,-0.95223883,0.01426970,0.98187204,0.02601641,-0.16114496,0.09634699
1761618053932,0.16416900,0.21555171,0.77785903,0.05827129,-0.95946788,0.03584870,0.98095506,0.02633982,-0.16647001,0.09654595
1761618053943,0.33526928,0.10283246,-0.00114724,0.09268410,-0.97957825,0.09089672,0.97994397,0.02685885,-0.17195565,0.09705497
1761618053954,0.29253940,0.14804063,0.39397449,0.11746643,-1.00976159,0.06931312,0.97888772,0.02751079,-0.17755982,0.09743966
1761618053965,0.39430955,-0.06142679,0.20064788,0.11403006,-1.00997895,0.05602011,0.97779543,0.02814936,-0.18321571,0.09775338
1761618053976,0.30893080,-0.05800809,0.30491963,0.07519885,-1.05136991,0.10659933,0.97662333,0.02856295,-0.18899824,0.09833967
1761618053987,0.68872946,-0.31674471,-0.40591150,0.04871592,-1.00764646,0.09652529,0.97545172,0.02883576,-0.19464106,0.09888021
1761618053999,0.88190546,-0.05963315,-0.38013166,0.00294909,-0.97891978,0.09455511,0.97428745,0.02885227,-0.20012301,0.09940972
1761618054009,0.32786073,-0.00765730,0.42201777,-0.04093109,-0.98223022,0.10935149,0.97310720,0.02862715,-0.20552528,0.10001116
1761618054022,-1.32393928,-0.52141504,-0.07438385,-0.03982373,-0.86389563,0.10213013,0.97192209,0.02838423,-0.21079504,0.10063415
1761618054032,1.94970449,0.50431969,2.68335104,-0.02423234,-1.02517970,0.10311045,0.97075805,0.02826428,-0.21586968,0.10114455
1761618054043,-1.00809765,-0.11310117,-0.58611311,0.02805971,-0.87929617,0.10984012,0.96958100,0.02842141,-0.22079374,0.10175965
1761618054054,0.09280821,0.09223097,0.17169603,0.06241658,-0.84858417,0.11359628,0.96839865,0.02877407,-0.22558824,0.10240147
1761618054065,0.29793168,0.07437830,0.52920101,0.04426012,-0.85173093,0.10871997,0.96722467,0.02901750,-0.23027276,0.10299943
1761618054076,-0.05475892,-0.09084193,0.12155258,0.02708854,-0.79224399,0.08380685,0.96609284,0.02917055,-0.23474894,0.10347294
1761618054088,0.19168055,-0.04000213,0.06628756,0.02120756,-0.77425650,0.06934634,0.96498365,0.02928931,-0.23908478,0.10386128
1761618054099,0.12723011,-0.38117632,-0.36729832,0.05770423,-0.77536908,0.01561459,0.96388814,0.02960957,-0.24338807,0.10394794
1761618054110,0.36959621,0.02999341,0.49537502,0.06802270,-0.75175073,-0.01271067,0.96282094,0.02998709,-0.24756029,0.10387739
1761618054121,0.24316440,-0.36707534,0.09544387,0.06167753,-0.76155864,-0.01821526,0.96171449,0.03033249,-0.25182502,0.10377539
1761618054132,0.58091498,0.40666467,1.05699125,0.02363962,-0.75332327,-0.02682428,0.96062191,0.03046369,-0.25600596,0.10362651
1761618054143,0.25542775,0.06917835,0.24962257,0.00436419,-0.76883189,-0.02611762,0.95948946,0.03048791,-0.26027298,0.10348156
1761618054155,0.02577027,0.21286968,0.08657937,0.00738869,-0.74183063,-0.02795716,0.95835839,0.03052965,-0.26446432,0.10332360
1761618054166,0.12510020,0.04481201,0.09522553,0.05053224,-0.72995533,-0.03691084,0.95722405,0.03081516,-0.26858857,0.10311506
1761618054177,0.59987391,-0.03541056,0.40694894,0.06115318,-0.73673077,-0.00173317,0.95606796,0.03115150,-0.27264059,0.10310552
1761618054188,-0.24739660,0.15612180,-0.11804816,0.05928278,-0.71218064,-0.02735387,0.95492728,0.03148349,-0.27662880,0.10295234
1761618054199,0.24462943,-0.59181264,-1.07105498,0.06715598,-0.72948090,-0.04416894,0.95375919,0.03185620,-0.28067742,0.10270721
1761618054210,0.08636866,0.10138557,0.10356019,0.03911388,-0.71275692,-0.04922163,0.95259781,0.03207524,-0.28466886,0.10243156
1761618054222,0.23378097,0.07270018,-0.04371514,0.05181362,-0.72539520,-0.04930764,0.95139430,0.03236540,-0.28873107,0.10215544
1761618054233,0.41403061,0.51417803,1.49275505,0.05510718,-0.74861786,-0.01862248,0.95013563,0.03266849,-0.29284847,0.10205302
1761618054244,-0.14624702,0.22343102,0.00120951,0.08128965,-0.70557426,0.00040757,0.94889277,0.03312371,-0.29679969,0.10205530
1761618054255,0.09883423,0.50272412,-0.20146978,0.10371203,-0.68916755,0.01185019,0.94764937,0.03370450,-0.30065902,0.10212166
1761618054266,0.10344608,0.51430997,0.17434535,0.13885692,-0.68498539,0.05001694,0.94638860,0.03446821,-0.30442644,0.10239675
1761618054277,-0.18902911,0.09120568,-0.28527153,0.18777927,-0.66468772,0.07491165,0.94509870,0.03551977,-0.30814870,0.10281626
1761618054288,0.30639581,0.02527238,-0.36339365,0.24678633,-0.67305140,0.04624954,0.94379205,0.03688944,-0.31188413,0.10307294
1761618054299,0.60105323,-0.31727295,-0.77264329,0.26563236,-0.67287683,0.05573171,0.94244491,0.03837698,-0.31565224,0.10338504
1761618054311,-0.02660922,0.50272412,0.39723759,0.26862610,-0.68463954,0.06784785,0.94104775,0.03988128,-0.31948622,0.10376499
1761618054322,-0.13649074,0.97681589,0.32847621,0.35545416,-0.71625765,0.09407240,0.93954517,0.04185406,-0.32346145,0.10428709
1761618054333,-0.50311526,0.81272464,0.88432181,0.47373300,-0.70551119,0.17013434,0.93796155,0.04448327,-0.32737704,0.10523134
1761618054344,-0.38105631,0.69586782,0.16270320,0.54307224,-0.68466613,0.21616013,0.93632832,0.04752448,-0.33121117,0.10644183
1761618054355,-0.21344388,0.01818869,0.16285592,0.60191409,-0.68878667,0.21885050,0.93465239,0.05086510,-0.33503394,0.10765645
1761618054366,-0.64779573,-0.12970789,0.10685035,0.56912614,-0.67354028,0.20029492,0.93295240,0.05410912,-0.33887312,0.10879814
1761618054377,0.55727395,1.18848352,1.13358989,0.64791486,-0.72552226,0.23898662,0.93115852,0.05760786,-0.34279094,0.11008866
1761618054390,-1.60837715,-0.15668748,-1.42543499,0.71111481,-0.65070348,0.27887716,0.92922183,0.06191010,-0.34672769,0.11177587
1761618054399,2.82004037,2.58512915,1.98566048,1.04724692,-0.77462211,0.42059657,0.92716828,0.06709398,-0.35056207,0.11385782
1761618054411,-2.30701522,-1.13170764,-1.75332850,0.95058713,-0.65707012,0.38955249,0.92509646,0.07241726,-0.35424166,0.11603932
1761618054423,-1.70575876,-0.94655157,-0.78781002,0.83277837,-0.58218546,0.30767162,0.92304513,0.07758049,-0.35785121,0.11794688
1761618054433,2.23526358,2.91171364,4.84371139,1.05645575,-0.72612076,0.40366986,0.92097367,0.08270430,-0.36137290,0.11990468
1761618054444,-1.68517677,-1.48876332,-1.32218370,1.01895497,-0.59338878,0.40096896,0.91885549,0.08835950,-0.36466621,0.12213006
1761618054455,-0.79868745,0.66691703,-0.25239373,1.08497112,-0.58865517,0.42223810,0.91661690,0.09443534,-0.36796268,0.12449459
1761618054466,-0.36872771,0.10928785,0.24708558,1.11237478,-0.56266371,0.43749871,0.91434480,0.10066464,-0.37111359,0.12694458
1761618054477,-0.62721724,-1.01875286,0.31360862,1.04840817,-0.54469494,0.41581110,0.91210744,0.10653572,-0.37416388,0.12927313
1761618054489,-0.40103891,-1.13849433,0.02470856,0.87392550,-0.50009067,0.38271887,0.91006099,0.11142971,-0.37696439,0.13141635
1761618054500,1.74523287,-1.41283471,-1.03069518,0.74854154,-0.47045032,0.36189048,0.90816334,0.11558411,-0.37957539,0.13342484
1761618054511,0.05224659,-1.49144647,-0.75660794,0.66004858,-0.41875646,0.36386434,0.90641474,0.11924738,-0.38189949,0.13544429
1761618054522,-0.61534866,-0.96946440,-0.32121974,0.52265047,-0.35033467,0.29061238,0.90496357,0.12214809,-0.38384385,0.13705719
1761618054533,-2.61607638,-0.64164341,0.79724911,0.38792416,-0.30763540,0.21159700,0.90375435,0.12432047,-0.38556661,0.13824213
1761618054544,0.11784082,-0.82393538,-0.25088690,0.36528941,-0.26928714,0.19158207,0.90266062,0.12636609,-0.38707461,0.13931499
1761618054556,-0.37499579,-0.17372750,-0.63335770,0.30187282,-0.24534993,0.17255352,0.90165566,0.12810186,-0.38848538,0.14030718
1761618054566,0.85035357,-0.55316989,0.74791112,0.29097244,-0.22001000,0.19962854,0.90076638,0.12964401,-0.38965143,0.14136521
1761618054578,-0.41785794,-0.58007733,-0.96223517,0.18443814,-0.17299473,0.17010605,0.90004725,0.13067686,-0.39062020,0.14231780
1761618054589,0.14064872,-0.68423699,-0.90091204,0.14546119,-0.13647272,0.13550742,0.89947612,0.13149145,-0.39138445,0.14307664
1761618054600,0.19168472,0.06867674,-1.63680544,0.10754419,-0.08907992,0.10570858,0.89907266,0.13209907,-0.39188775,0.14367390
1761618054611,0.42473682,-0.23155203,-0.26561677,0.13418519,-0.05731602,0.11916304,0.89871822,0.13284380,-0.39220585,0.14433525
1761618054622,-0.26897315,-0.21769410,-0.11029834,0.16488845,-0.03195165,0.09635054,0.89841898,0.13375893,-0.39238318,0.14487000
1761618054634,-0.32115989,-0.45701843,0.91969602,0.19168044,-0.01614343,0.08565637,0.89814152,0.13483234,-0.39247359,0.14534967
1761618054645,0.08315562,-0.06498825,-0.25661879,0.18574977,-0.01967898,0.11575634,0.89782863,0.13588183,-0.39258477,0.14600369
1761618054656,0.07298425,-0.16400478,0.04342751,0.19121828,-0.01478970,0.14091783,0.89750391,0.13694309,-0.39266686,0.14678579
1761618054667,0.09448539,-0.24407324,-0.44036550,0.19545773,0.00143635,0.15412983,0.89719538,0.13804742,-0.39265874,0.14765662
1761618054678,-0.18693731,0.18308554,0.29143988,0.17437143,0.02017314,0.16868719,0.89693803,0.13902390,-0.39254577,0.14860127
1761618054689,0.78131449,-0.04462729,-0.61785387,0.19189524,0.02025907,0.19479779,0.89664171,0.14008892,-0.39243333,0.14968240
1761618054700,1.62544929,-0.53939761,-1.43000836,0.21107440,0.02716321,0.18223552,0.89635443,0.14126039,-0.39228258,0.15069381
1761618054712,-0.49602045,-0.17289998,-0.16948393,0.21100172,0.03487114,0.13829514,0.89612231,0.14244200,-0.39208730,0.15146826
1761618054723,-1.01136316,-0.42894155,0.21693596,0.21854288,0.03812527,0.13736304,0.89588578,0.14368769,-0.39186998,0.15225123
1761618054734,-1.70097653,-0.20311452,1.46655570,0.20694521,0.04596534,0.08473031,0.89573650,0.14480519,-0.39162177,0.15270877
1761618054745,-0.57336864,0.31192071,-0.37765895,0.19096935,0.03103000,0.02131926,0.89561962,0.14586507,-0.39144956,0.15282709
1761618054756,-0.35579060,0.61306557,-0.05458545,0.21257328,0.01932501,-0.02992236,0.89550295,0.14703423,-0.39134327,0.15266252
1761618054767,-0.34798904,0.07347727,-0.55480327,0.24882635,-0.01329862,-0.02065584,0.89525803,0.14844010,-0.39141841,0.15254581
1761618054779,-0.31714082,0.10370782,-0.06763316,0.26710931,-0.02176777,-0.02020884,0.89497469,0.14993591,-0.39154030,0.15243264
1761618054790,0.20354951,0.35241158,-0.97299129,0.29913007,-0.01758608,0.00650341,0.89464908,0.15158112,-0.39163703,0.15246841
1761618054801,-0.36180608,0.25480891,-1.13864948,0.26643467,-0.00737284,0.00085428,0.89437366,0.15308648,-0.39167868,0.15247324
1761618054812,-0.57613495,-0.37892483,-0.09272858,0.23596208,-0.01560795,-0.00944954,0.89411721,0.15440787,-0.39176609,0.15242032
1761618054823,-1.04460341,-0.23393909,0.87614965,0.19955627,-0.02779717,-0.05976922,0.89391411,0.15551540,-0.39192036,0.15208860
1761618054834,-1.00032846,-0.15825977,0.90688799,0.15003263,-0.06934197,-0.04358156,0.89363867,0.15635559,-0.39230868,0.15184455
1761618054845,-0.48626694,0.60204562,-0.14929310,0.14147408,-0.11712800,-0.02399661,0.89324147,0.15713369,-0.39295288,0.15171257
1761618054857,-0.75483540,0.51055625,-0.53148684,0.16302370,-0.11572663,-0.01375119,0.89280029,0.15806293,-0.39361252,0.15163418
1761618054868,-0.63458166,0.60493851,0.06909107,0.18646422,-0.11884859,-0.00483113,0.89233835,0.15907916,-0.39426025,0.15160785
1761618054879,-0.52963799,0.08511595,-0.33361122,0.18923639,-0.10764750,0.02716538,0.89186058,0.16012942,-0.39485769,0.15175862
1761618054890,1.24424273,-0.03773364,-1.35841119,0.15108536,-0.10909458,0.03892892,0.89140445,0.16096795,-0.39546317,0.15197468
1761618054901,-0.30064647,0.31222594,-0.28761584,0.10740239,-0.12417913,0.01100300,0.89097625,0.16156940,-0.39615857,0.15203629
1761618054912,-0.49797248,0.07460084,-0.43715141,0.11827458,-0.12949495,0.00472225,0.89052854,0.16223174,-0.39688374,0.15206274
1761618054923,-2.57279872,0.12006002,0.87836114,0.13309273,-0.14214336,-0.00337509,0.89004480,0.16297040,-0.39767264,0.15204401
1761618054935,-0.64585481,-0.11895201,-0.14193835,0.13674882,-0.13659156,0.00338759,0.88955444,0.16374303,-0.39844438,0.15206315
1761618054946,-0.81344451,0.01846162,-0.21869713,0.14643292,-0.14395177,-0.03507450,0.88908367,0.16454841,-0.39923612,0.15187024
1761618054957,-0.44496262,-0.05732980,-0.47755097,0.14986715,-0.15749350,-0.06346194,0.88858317,0.16540266,-0.40013383,0.15150850
1761618054968,-0.64507294,-0.15701715,-0.22832618,0.17839423,-0.17405923,-0.07163660,0.88804030,0.16637490,-0.40108245,0.15111808
1761618054979,-0.54011216,-0.07017694,-0.41990773,0.14785702,-0.17908224,-0.06610220,0.88749892,0.16719551,-0.40207636,0.15075122
1761618054990,-0.05705289,0.67645125,-1.38707389,0.14816089,-0.18295915,-0.06009233,0.88694448,0.16801040,-0.40308263,0.15042071
1761618055001,0.05536999,0.54421983,-1.08470532,0.12941912,-0.16044319,-0.03845536,0.88642990,0.16874161,-0.40398914,0.15020344
1761618055012,-0.69257976,0.01115227,-0.56889013,0.12737172,-0.16343555,-0.03818146,0.88591693,0.16944853,-0.40489620,0.14999153
1761618055023,-1.00723018,-0.92745111,0.46867153,0.13537004,-0.15088599,-0.01286404,0.88540637,0.17019306,-0.40572608,0.14992078
1761618055035,-0.71674339,-0.62167183,-0.09369565,0.12694525,-0.15475331,-0.02443740,0.88488576,0.17091665,-0.40660817,0.14978148
1761618055046,-0.80646116,0.01532770,-0.54624669,0.09108211,-0.15589523,-0.02393610,0.88441233,0.17142216,-0.40747339,0.14964864
1761618055057,-0.49537502,0.10449317,-0.43925832,0.07429346,-0.14857062,-0.00992858,0.88396123,0.17183448,-0.40829796,0.14959354
1761618055068,-0.39663828,-0.03775632,-0.61767971,0.11437049,-0.13325124,0.00202618,0.88348947,0.17247496,-0.40904416,0.14960488
1761618055079,-0.55119091,0.13352125,-0.55499223,0.10666027,-0.12843714,0.00040965,0.88303886,0.17307226,-0.40976341,0.14960718
1761618055091,-0.13504287,0.45394004,-0.68974608,0.10688078,-0.13734850,0.00537659,0.88256745,0.17366010,-0.41051883,0.14963675
1761618055102,1.75172534,0.35433741,-1.22088971,0.13961373,-0.13430889,0.01036687,0.88204850,0.17444892,-0.41127767,0.14969532
1761618055113,-0.56537962,-0.00304386,-0.67144824,0.14313153,-0.12370884,0.01399347,0.88155731,0.17524330,-0.41196426,0.14977298
1761618055124,-0.83309873,-0.10059064,-0.09286789,0.09614677,-0.10776385,-0.00607790,0.88116330,0.17579614,-0.41258390,0.14973804
1761618055135,-3.05621776,-0.48418776,-0.16247571,0.10479106,-0.10846945,-0.01253627,0.88078719,0.17636201,-0.41316963,0.14967034
1761618055146,-0.24817128,-0.07776517,-0.08820642,0.09592908,-0.10168861,-0.04304365,0.88045601,0.17689442,-0.41373401,0.14943145
1761618055157,-0.00097564,-0.12102524,-0.39689919,0.12015575,-0.13039635,-0.04406565,0.88001495,0.17757330,-0.41447075,0.14918248
1761618055169,-0.79255476,0.04311343,-0.44982696,0.14393152,-0.15758896,-0.04674648,0.87948960,0.17836492,-0.41533749,0.14892537
1761618055180,-0.30496525,-0.04626549,-0.31895044,0.14030907,-0.16701501,-0.03480251,0.87892560,0.17914364,-0.41626442,0.14873222
1761618055191,-0.11223340,0.71016653,-1.01590580,0.15333578,-0.15436268,-0.01644597,0.87836084,0.17999465,-0.41712113,0.14864094
1761618055202,-0.14809495,0.26046982,-0.60164837,0.12572900,-0.15479863,-0.01824819,0.87781647,0.18070502,-0.41799574,0.14853784
1761618055213,-0.67744178,-0.06972205,-0.51371527,0.09956910,-0.14952097,-0.02005066,0.87732569,0.18125763,-0.41882558,0.14842656
1761618055224,-0.77789359,-1.02122721,0.61147854,0.09334258,-0.14759317,-0.01092265,0.87683719,0.18177568,-0.41964473,0.14836594
1761618055236,-0.00440719,-0.40435524,0.30914233,0.11287350,-0.15122022,0.01434375,0.87628153,0.18241342,-0.42049912,0.14844698
1761618055247,-0.77921217,0.09816142,-0.41340045,0.13887256,-0.17064441,0.02020316,0.87564654,0.18318416,-0.42144620,0.14855911
1761618055258,-0.18770069,0.00483765,-0.27864845,0.16018499,-0.16589748,0.03960089,0.87497890,0.18407319,-0.42236693,0.14877889
1761618055269,-0.35477243,0.11980140,-0.14912462,0.15090639,-0.15312043,0.04136691,0.87434673,0.18491826,-0.42322440,0.14901055
1761618055280,-0.42194615,0.09740874,-0.27749611,0.13644643,-0.13687193,0.05100420,0.87376452,0.18568236,-0.42399089,0.14929617
1761618055291,1.38164917,0.28443203,-0.44418235,0.12722745,-0.11527517,0.05968371,0.87324669,0.18638847,-0.42463066,0.14962742
1761618055302,0.02128565,0.33379762,-0.06966211,0.13478134,-0.09924917,0.05433113,0.87276682,0.18713651,-0.42518150,0.14992895
1761618055314,-0.33670021,0.17899293,-0.19350587,0.17077290,-0.09883134,0.06757366,0.87223103,0.18808430,-0.42573001,0.15030399
1761618055325,-1.69343519,-0.15053299,-0.04212270,0.20698616,-0.10153788,0.09515009,0.87161038,0.18924342,-0.42629862,0.15083683
1761618055336,-0.94620914,-0.17368447,0.00186595,0.17821930,-0.11154375,0.08443882,0.87101063,0.19023254,-0.42691769,0.15130546
1761618055347,-0.38120656,-0.46586538,-0.07546729,0.14122805,-0.11160020,0.08062462,0.87045727,0.19101636,-0.42753707,0.15175293
1761618055358,-0.34513978,-0.18617188,-0.19581530,0.13078931,-0.10290552,0.07892791,0.86994500,0.19173570,-0.42810305,0.15218703
1761618055369,0.06178867,-0.33748780,0.17593185,0.10570913,-0.09289045,0.08311508,0.86947651,0.19232767,-0.42862324,0.15265248
1761618055380,-0.23568163,0.04228965,-0.15395332,0.09387563,-0.08976525,0.07249525,0.86904064,0.19285337,-0.42912592,0.15305845
1761618055391,-0.06109257,0.83646799,-0.37187681,0.11027383,-0.07904303,0.08290669,0.86860660,0.19346539,-0.42956461,0.15351858
1761618055403,0.59135372,0.26172301,-0.21692782,0.14523834,-0.07657556,0.09222425,0.86811698,0.19428599,-0.42999726,0.15403965
1761618055414,-0.72345121,-0.15770187,-0.27549003,0.14959920,-0.07210411,0.09558416,0.86764236,0.19510878,-0.43039384,0.15456536
1761618055425,-0.20242473,-1.19717682,0.28098811,0.15329388,-0.07335105,0.10896895,0.86714049,0.19595956,-0.43080093,0.15517014
1761618055436,-0.27116059,-0.67540578,-0.06291008,0.13622414,-0.07234210,0.09200206,0.86667393,0.19672242,-0.43120605,0.15568535
1761618055447,-0.11340826,-0.22073059,-0.16679515,0.11779433,-0.06800762,0.08325621,0.86625419,0.19737618,-0.43158349,0.15614742
1761618055458,0.07519133,-0.04725110,0.07832009,0.08977424,-0.06160564,0.07807986,0.86588527,0.19788340,-0.43193156,0.15658858
1761618055469,-0.26618187,-0.15652998,-0.39127571,0.09057683,-0.04314421,0.09172891,0.86555848,0.19838610,-0.43217102,0.15709767
1761618055481,-0.05805176,-0.05176282,-0.25155763,0.08163138,-0.03285212,0.08409610,0.86527859,0.19883916,-0.43235334,0.15756440
1761618055492,1.68227636,0.08006567,-0.42297281,0.07347076,0.00029650,0.07149295,0.86510728,0.19926162,-0.43235164,0.15797549
1761618055503,-0.13855103,0.07188862,-1.69128231,0.07843069,-0.00858762,0.05102915,0.86493449,0.19968906,-0.43239844,0.15825360
1761618055514,0.34444064,-0.06339631,0.01451589,0.09545788,-0.00840062,0.03585338,0.86475389,0.20021408,-0.43244465,0.15845079
1761618055525,-0.30897793,-0.54313903,0.76140372,0.11772083,-0.00657074,0.03066065,0.86455111,0.20087332,-0.43248144,0.15862249
1761618055536,-1.10427924,-0.92673761,0.62555955,0.10817752,-0.00216481,0.01605887,0.86438902,0.20147370,-0.43249346,0.15871162
1761618055547,0.21061349,-0.50275409,0.01864700,0.06837577,-0.00588719,-0.00765465,0.86429106,0.20185661,-0.43252642,0.15866875
1761618055559,0.25658887,-0.82393538,-0.01710592,0.06697942,0.00282279,-0.01788818,0.86422967,0.20223169,-0.43251062,0.15856858
1761618055570,-0.18115259,-0.28632389,-0.23569706,0.03273363,-0.02270701,-0.04382854,0.86416865,0.20241336,-0.43263664,0.15832533
1761618055581,0.21866163,-0.04547388,-0.17802540,0.04608963,-0.01654639,-0.03459704,0.86409787,0.20266916,-0.43272847,0.15813332
1761618055592,0.39427530,-0.04892055,-0.14116241,0.06020417,-0.01057588,-0.00743636,0.86399669,0.20300630,-0.43278770,0.15809167
1761618055603,1.57980263,0.27624690,-1.01473095,0.10669349,0.00941125,0.00933401,0.86387402,0.20359845,-0.43273547,0.15814348
1761618055614,0.50500985,-0.43848571,-0.07424933,0.09474077,0.01540497,0.00015645,0.86379113,0.20413374,-0.43264843,0.15814436
1761618055625,-0.26255150,-0.69965214,-0.19145094,0.06563223,0.01078254,-0.00766806,0.86374273,0.20449800,-0.43258858,0.15810180
1761618055637,-1.04686674,-0.98687992,0.54762161,0.05399140,0.00073958,-0.02747088,0.86370168,0.20479765,-0.43258448,0.15794934
1761618055648,0.41232299,-0.29006871,-0.20182937,0.01887562,-0.03083761,-0.03387697,0.86362477,0.20490335,-0.43275717,0.15775963
1761618055659,-0.14778011,0.11182908,-0.22170535,-0.01936163,-0.02912969,-0.03729490,0.86360718,0.20479686,-0.43291738,0.15755451
1761618055670,1.15526840,0.07645919,0.08095385,-0.00467555,-0.03832697,-0.01833480,0.86352301,0.20477021,-0.43313585,0.15745000
1761618055681,-0.43473279,0.18627208,-0.58437960,-0.04871680,-0.02914526,-0.02661441,0.86353277,0.20450227,-0.43329615,0.15730362
1761618055692,1.15554667,0.22351247,-0.97509366,-0.07194971,-0.02919567,-0.03127892,0.86357753,0.20410295,-0.43345818,0.15713002
1761618055704,1.22592142,0.49187240,-0.38414862,-0.10519201,-0.02637231,-0.02517383,0.86366885,0.20350862,-0.43360719,0.15698779
1761618055715,-0.09335836,0.94898773,0.12136587,-0.16433918,-0.03956287,-0.04220524,0.86381819,0.20258010,-0.43383072,0.15674933
1761618055726,-0.28628635,0.49907430,-0.15352307,-0.17345900,-0.03497236,-0.01232942,0.86395581,0.20163475,-0.43402132,0.15668213
1761618055737,0.09568777,0.43821534,0.83624715,-0.17628155,-0.02604976,0.00734379,0.86410354,0.20065638,-0.43416589,0.15672289
1761618055748,0.65245662,-0.22320321,-0.07092366,-0.15658140,-0.01737218,0.00942259,0.86424824,0.19977953,-0.43426318,0.15677566
1761618055759,0.10555722,-0.41127733,-0.19711052,-0.21553140,-0.02680879,-0.00343886,0.86445076,0.19859411,-0.43441062,0.15675674
1761618055770,0.13686142,-0.05319212,0.28237783,-0.29821877,-0.03623614,-0.05245693,0.86478100,0.19693899,-0.43461174,0.15646561
1761618055782,0.40691211,0.11263113,-0.03874946,-0.31228372,-0.03317000,-0.09868896,0.86518384,0.19519020,-0.43479749,0.15591295
1761618055793,0.90661402,0.70276841,-0.32691323,-0.33262702,-0.02379192,-0.10199447,0.86563773,0.19332749,-0.43493072,0.15534178
1761618055804,0.66194556,1.00733626,-0.33927453,-0.33724148,0.01059459,-0.09970623,0.86618222,0.19145580,-0.43487192,0.15478841
1761618055815,0.45204846,0.46041307,-0.01537650,-0.31236642,0.02832433,-0.07577869,0.86672228,0.18970655,-0.43471331,0.15436405
1761618055826,-0.64188661,0.04484326,0.08904725,-0.27374777,0.07155538,-0.06763628,0.86731915,0.18818725,-0.43431617,0.15398867
1761618055837,-0.22674340,0.23875522,0.34699857,-0.30012153,0.08040513,-0.06342217,0.86797029,0.18650657,-0.43386590,0.15363350
1761618055848,-0.03051173,0.46200390,0.05817270,-0.30311629,0.09804167,-0.05979187,0.86866036,0.18482427,-0.43332177,0.15330166
1761618055859,0.34954990,-0.00789801,-0.14888490,-0.26775396,0.11577923,-0.05668724,0.86935698,0.18332485,-0.43267341,0.15298421
1761618055871,-0.14758278,0.01232304,-0.01425378,-0.28021226,0.16328029,-0.07933399,0.87021102,0.18176967,-0.43176720,0.15254391
1761618055882,0.12384375,-0.31154445,-0.16060987,-0.27381249,0.20708389,-0.07818018,0.87117203,0.18025001,-0.43061789,0.15211001
1761618055893,0.26281640,-0.11567185,-1.10469013,-0.28174991,0.25657815,-0.10629321,0.87231921,0.17865813,-0.42916822,0.15150945
1761618055904,-0.31979841,-0.03124349,-0.86658092,-0.33646013,0.30008488,-0.13320076,0.87364453,0.17679077,-0.42750275,0.15077019
1761618055915,-0.01548047,-0.71548794,-0.31154445,-0.36865302,0.37478642,-0.12332319,0.87518803,0.17474475,-0.42542269,0.15008574
1761618055926,-0.20234781,-0.79072123,1.11150170,-0.44061314,0.46822556,-0.14957220,0.87705525,0.17232138,-0.42284745,0.14926310
1761618055938,0.16584108,-1.01610057,0.11127491,-0.45101525,0.53442427,-0.16212371,0.87913720,0.16979569,-0.41985467,0.14835520
1761618055949,-0.16535727,-0.70656973,-0.03611251,-0.52670117,0.60211528,-0.20205828,0.88149283,0.16684617,-0.41648282,0.14722368
1761618055960,-0.24309175,-0.58640053,-0.37427836,-0.53284476,0.68119121,-0.26774922,0.88406892,0.16388888,-0.41270221,0.14573767
1761618055971,0.15219936,-0.29166918,0.02114441,-0.56260180,0.72918082,-0.27326079,0.88681502,0.16071018,-0.40858234,0.14419375
1761618055982,-0.33103203,-0.24827830,-0.42982277,-0.63649230,0.84179066,-0.27609106,0.88983104,0.15717764,-0.40391040,0.14266144
1761618055993,0.49924514,0.26752186,-0.67727054,-0.60388023,0.97660175,-0.23793711,0.89306539,0.15382611,-0.39849026,0.14134089
1761618056004,0.01354541,0.20172987,-0.33283009,-0.61621212,1.14471938,-0.20614011,0.89663335,0.15040613,-0.39213707,0.14019681
1761618056015,-0.47602443,-0.27622963,-0.73338724,-0.63310542,1.30422880,-0.20393307,0.90052019,0.14689240,-0.38489860,0.13906498
1761618056027,-0.51240721,-1.06739087,-0.24864378,-0.68715168,1.44056569,-0.18763560,0.90470352,0.14304435,-0.37683143,0.13801422
1761618056038,-0.78307123,-0.60821066,-0.41814483,-0.75835828,1.55937130,-0.21230541,0.90912993,0.13879754,-0.36809895,0.13682531
1761618056049,-0.48471492,-0.67104206,-0.29473362,-0.82940034,1.69454707,-0.25375082,0.91377928,0.13419437,-0.35869422,0.13541700
1761618056060,-0.49150490,0.08127246,-0.14706446,-0.86415031,1.79908542,-0.30510997,0.91857275,0.12939833,-0.34870929,0.13372364
1761618056071,0.17873037,-0.23467993,-0.18746313,-0.76713566,1.88742881,-0.30037806,0.92335041,0.12510237,-0.33813969,0.13204152
1761618056082,-0.43715141,0.25516338,0.33831718,-0.73293460,1.95028234,-0.33620870,0.92808755,0.12099794,-0.32721811,0.13015875
1761618056094,0.53746255,-0.40671219,0.33155157,-0.67930969,2.01851455,-0.33709668,0.93270262,0.11722777,-0.31601536,0.12828786
1761618056105,0.56591673,0.01914785,1.06269060,-0.68434205,2.01767256,-0.31877418,0.93716938,0.11339546,-0.30471639,0.12650273
1761618056116,-0.26527581,-0.15429069,0.27647151,-0.70099139,2.02895081,-0.34165169,0.94146992,0.10950495,-0.29345571,0.12460656
1761618056127,-0.51859572,-0.12674634,-0.01935059,-0.66777864,2.02300606,-0.34588566,0.94556961,0.10579878,-0.28222803,0.12268690
1761618056138,0.23138375,0.11507116,0.98820534,-0.64540862,2.00401318,-0.33959938,0.94948684,0.10218449,-0.27100555,0.12078514
1761618056149,0.54168762,-0.09835907,0.73365411,-0.60381861,1.94307854,-0.31948038,0.95310714,0.09880311,-0.26012431,0.11899605
1761618056160,0.25328536,0.13044369,0.76659423,-0.58368531,1.87675991,-0.31412198,0.95643357,0.09556366,-0.24970830,0.11725267
1761618056171,0.52426880,0.08008306,0.90782254,-0.58278374,1.81808364,-0.30727730,0.95950763,0.09235835,-0.23970884,0.11556265
1761618056183,1.10241638,-0.00693740,1.12930206,-0.56461225,1.70069811,-0.25304817,0.96230435,0.08919652,-0.23018493,0.11414558
1761618056194,1.23005806,1.08843163,0.95248080,-0.57647034,1.62799752,-0.22976711,0.96486147,0.08599711,-0.22114954,0.11287037
1761618056205,1.19856198,0.41948043,0.89205943,-0.51205938,1.55469040,-0.17552846,0.96718072,0.08312958,-0.21244328,0.11188741
1761618056216,0.46446591,0.48113852,0.64214576,-0.46633274,1.47536856,-0.16418828,0.96926636,0.08054143,-0.20425498,0.11097617
1761618056227,0.46048380,0.03754730,0.72693361,-0.40779934,1.37372740,-0.13470826,0.97114463,0.07823736,-0.19649342,0.11021506
1761618056238,0.36620003,0.21445504,0.26114017,-0.38785855,1.31738135,-0.11182361,0.97280632,0.07612353,-0.18931369,0.10960562
1761618056249,1.05442945,0.16432021,0.69864494,-0.29727015,1.18476326,-0.08719734,0.97424476,0.07447368,-0.18273826,0.10912168
1761618056261,1.09866612,0.39736815,1.17131921,-0.26972969,1.08892111,-0.05615215,0.97551810,0.07296320,-0.17664030,0.10880723
1761618056272,0.77166728,0.14896410,0.64622383,-0.27302793,0.97881488,-0.02957091,0.97662622,0.07143424,-0.17115893,0.10864163
1761618056283,0.79447518,0.03302394,0.41434351,-0.26626782,0.88562933,-0.00288448,0.97759205,0.06994314,-0.16619941,0.10862548
1761618056294,0.89878292,-0.23747446,0.20553087,-0.26720018,0.83172002,0.03901227,0.97844644,0.06846018,-0.16158336,0.10884200
1761618056305,0.59555673,0.66157678,0.27527012,-0.21910994,0.75535661,0.01562175,0.97921090,0.06723316,-0.15735337,0.10892948
1761618056316,0.83102131,0.46737498,0.43435156,-0.13858406,0.67851965,0.02978125,0.97984270,0.06646402,-0.15358758,0.10909476
1761618056327,0.70242630,0.96148228,1.03525639,-0.11880054,0.61595620,0.05433795,0.98038332,0.06580468,-0.15016903,0.10939634
1761618056339,0.71731872,0.48788486,0.56771465,-0.07238873,0.53477298,0.00245835,0.98086293,0.06539930,-0.14717430,0.10941011
1761618056350,0.97326540,0.07517573,0.52628413,-0.08413591,0.45448678,0.02275281,0.98125501,0.06493235,-0.14465190,0.10953638
1761618056361,0.53314322,0.44413762,0.38312820,-0.08737749,0.36274105,-0.02178142,0.98159817,0.06444303,-0.14262055,0.10941441
1761618056372,0.70894555,0.16654518,0.45615800,-0.07899636,0.30390173,-0.04941638,0.98190366,0.06400066,-0.14091870,0.10913768
1761618056383,0.45150793,0.26233219,0.49801845,-0.10269786,0.25482740,-0.08647619,0.98219579,0.06343068,-0.13950440,0.10865773
1761618056394,0.45798521,0.44563470,-0.13854940,-0.09211324,0.19602274,-0.11585328,0.98245116,0.06292406,-0.13842628,0.10802054
1761618056405,0.32983955,0.20396398,0.39079389,-0.08101116,0.14943552,-0.13675483,0.98267950,0.06247445,-0.13759691,0.10726155
1761618056417,0.29097530,0.34712489,0.31045439,-0.06995972,0.11135133,-0.17844638,0.98290195,0.06207917,-0.13696778,0.10625333
1761618056428,0.36170185,-0.14028105,0.51215695,-0.07239225,0.07731323,-0.18524830,0.98309752,0.06167740,-0.13653869,0.10522520
1761618056439,0.13158399,0.29558021,0.37540138,-0.09919186,0.03599470,-0.20175043,0.98327883,0.06112688,-0.13633892,0.10410549
1761618056450,0.00464269,0.16673509,-0.06710027,-0.08143313,0.00018375,-0.22013300,0.98343835,0.06066679,-0.13633788,0.10286173
1761618056461,0.11494590,0.37385535,0.36147277,-0.06175967,-0.01816907,-0.23110987,0.98357750,0.06032711,-0.13643781,0.10159063
1761618056472,-0.20074408,0.22336191,-0.10574572,-0.00665513,-0.02930052,-0.23326222,0.98369106,0.06028984,-0.13660189,0.10028436
1761618056483,-0.01140395,0.30481808,0.28129743,0.00716804,-0.03775476,-0.21258715,0.98377986,0.06032998,-0.13681332,0.09909387
1761618056495,-0.58350210,-0.56473310,-0.65762778,0.04002799,-0.03693981,-0.19267137,0.98384539,0.06055414,-0.13702018,0.09801491
1761618056506,-0.56916454,-0.50784459,-0.33278674,-0.00336271,-0.03348865,-0.14848948,0.98390188,0.06053564,-0.13720437,0.09719822
1761618056517,-0.27416804,-0.14818942,0.12313119,0.00331166,-0.03750297,-0.14292359,0.98395060,0.06055435,-0.13741626,0.09639070
1761618056528,0.14956462,-0.10972254,0.78022251,-0.01488936,-0.00619371,-0.09879168,0.98400443,0.06047172,-0.13745064,0.09584241
1761618056539,0.67455186,0.76146254,0.57187796,-0.05314311,0.00889104,-0.07059081,0.98406692,0.06017943,-0.13740174,0.09545416
1761618056550,-0.76579251,-0.76820289,0.22666214,-0.06244309,0.02470379,-0.03451600,0.98412628,0.05982975,-0.13726339,0.09526087
1761618056562,-0.45615800,-0.26918073,0.09123160,-0.07299409,0.05469869,-0.00573351,0.98419682,0.05942098,-0.13695708,0.09522876
1761618056573,-0.24437027,-0.12415259,0.07230554,-0.05682528,0.07636801,0.01491001,0.98426669,0.05910560,-0.13653324,0.09531151
1761618056584,-0.87920002,-0.32503612,0.09559798,-0.10661822,0.09281237,0.01407803,0.98436668,0.05850854,-0.13601349,0.09539035
1761618056595,0.04561580,0.06129623,-0.17295991,-0.12030939,0.10783606,0.02809701,0.98447448,0.05783481,-0.13540961,0.09554769
1761618056606,-0.30083808,0.28629318,0.20822921,-0.16210764,0.11720581,0.01482565,0.98460699,0.05694321,-0.13476498,0.09562923
1761618056617,0.03697644,-0.11202221,-0.04485554,-0.11313771,0.11139676,0.00366414,0.98472661,0.05630964,-0.13414115,0.09564975
1761618056628,0.20985020,0.16170914,0.48780756,-0.12846059,0.11588924,-0.00662851,0.98485809,0.05559669,-0.13349797,0.09561297
1761618056639,-0.14905613,0.48643368,0.21789078,-0.14828154,0.09906270,-0.01513876,0.98498788,0.05476631,-0.13294322,0.09552819
1761618056651,-0.04751646,0.06842370,0.15585398,-0.12179328,0.10208947,-0.02245858,0.98511474,0.05408427,-0.13237152,0.09540242
1761618056662,-0.09191529,0.02936927,0.22082129,-0.11908152,0.10609569,-0.02498788,0.98524316,0.05342337,-0.13178269,0.09526374
1761618056673,-0.15093458,0.12795575,0.19544093,-0.11494064,0.08976054,-0.04491095,0.98536811,0.05278545,-0.13128451,0.09501448
1761618056684,-0.20977446,0.27766734,0.30020128,-0.09897835,0.08385638,-0.06579003,0.98549555,0.05223117,-0.13081492,0.09464606
1761618056695,-0.20050318,0.03911583,0.48659815,-0.09187971,0.08044468,-0.04795212,0.98560713,0.05172123,-0.13036845,0.09437992
1761618056706,-0.08707764,0.02926776,0.24768751,-0.05997624,0.06573793,-0.05112917,0.98569986,0.05138837,-0.13000361,0.09409616
1761618056718,0.10445059,0.12775720,0.12566605,-0.06885416,0.07017254,-0.04374859,0.98579499,0.05100278,-0.12961064,0.09385116
1761618056729,-0.18279394,0.25254027,0.10734392,-0.10079924,0.04907515,-0.05485421,0.98588848,0.05044335,-0.12933827,0.09354672
1761618056740,0.01161035,-0.12505317,0.11416846,-0.08679328,0.03547833,-0.05096208,0.98596561,0.04996164,-0.12914137,0.09326388
1761618056751,-0.13254951,0.12691389,0.09407402,-0.08416266,0.02300460,-0.04552373,0.98603033,0.04949033,-0.12901254,0.09300895
1761618056762,-0.18747609,0.52550881,0.27467467,-0.07852134,0.02127676,-0.06031405,0.98609906,0.04905454,-0.12889446,0.09267421
1761618056773,-0.06060316,0.14732523,-0.03896425,-0.01607172,0.02180579,-0.04010208,0.98613983,0.04896615,-0.12877452,0.09245365
1761618056784,-0.18232497,0.13205256,-0.01917937,0.02348914,0.00259647,-0.05202254,0.98616246,0.04909768,-0.12875998,0.09216232
1761618056795,-0.62094651,0.26813953,0.38112017,0.02550976,0.00110639,-0.05077284,0.98618249,0.04923926,-0.12875384,0.09188053
1761618056807,-0.13725835,-0.02412423,-0.05650606,0.02609619,-0.02745141,-0.05016804,0.98618124,0.04938540,-0.12890757,0.09159959
1761618056818,0.13075468,0.21591238,0.12861229,0.04646297,-0.03730811,-0.04684689,0.98616532,0.04964327,-0.12911463,0.09133959
1761618056829,0.52633596,0.21866163,-0.11803858,0.10400050,-0.04637464,-0.03102983,0.98611830,0.05022047,-0.12937201,0.09116737
1761618056840,0.01780797,0.21671786,-0.24426028,0.15429469,-0.05937001,-0.00550180,0.98603309,0.05108452,-0.12970448,0.09113656
1761618056851,-0.04181448,0.60583484,0.17105925,0.16448638,-0.06903906,0.00421536,0.98593181,0.05200565,-0.13009110,0.09116017
1761618056862,0.05131777,-0.13613465,-0.19576781,0.22634520,-0.07461355,0.04758753,0.98578423,0.05327318,-0.13050894,0.09142666
1761618056874,-0.15140106,0.23066288,0.08562635,0.21813436,-0.07474242,0.05284701,0.98563580,0.05448383,-0.13092376,0.09171996
1761618056885,-0.15256544,-0.12214036,0.40370095,0.20665867,-0.06243542,0.06045919,0.98549051,0.05566178,-0.13127964,0.09206458
1761618056896,-0.81949929,-0.84616536,0.40715323,0.26042213,-0.07585857,0.08241800,0.98531208,0.05708108,-0.13169307,0.09251376
1761618056907,0.11773678,-0.01745769,0.03506184,0.22480741,-0.06600816,0.07319351,0.98515174,0.05832876,-0.13205941,0.09291998
1761618056918,0.10004656,0.06901345,-0.38293794,0.19565336,-0.06991040,0.05721294,0.98499942,0.05945377,-0.13246140,0.09324896
1761618056929,0.42662862,0.74598214,0.01260329,0.18925928,-0.06694790,0.05727849,0.98486049,0.06046631,-0.13281957,0.09355540
1761618056940,0.01213224,-0.43166704,-0.36505074,0.18628601,-0.06524622,0.05877474,0.98471521,0.06150951,-0.13318495,0.09388453
1761618056952,0.05679856,-0.11510169,0.04836296,0.14421813,-0.04850507,0.04669889,0.98460167,0.06232434,-0.13345900,0.09414838
1761618056963,0.02669632,-0.21344636,0.06301797,0.12948608,-0.04488986,0.05316964,0.98449483,0.06303652,-0.13370590,0.09444082
1761618056974,-0.04445358,-0.10979479,-0.29919525,0.13927286,-0.05294487,0.05167451,0.98437752,0.06380948,-0.13399974,0.09472761
1761618056987,0.17510136,-0.28885722,-0.45568172,0.12811719,-0.02825352,0.03913856,0.98427445,0.06463584,-0.13418198,0.09498005
1761618056997,-1.07317643,-0.24302864,0.89928914,0.15204081,-0.02547129,0.04145794,0.98417980,0.06545686,-0.13431952,0.09520393
1761618057007,-0.75571370,0.16501881,1.02983731,0.11173371,-0.00782541,0.03495642,0.98412380,0.06598200,-0.13435630,0.09536822
1761618057018,0.95131360,-0.53877813,-1.18855650,0.08912691,0.00040588,0.03622894,0.98406989,0.06649003,-0.13435399,0.09557473
1761618057029,0.45775855,-0.24750656,-0.39833797,0.09367530,-0.00141869,0.02049206,0.98402207,0.06701461,-0.13436193,0.09568948
1761618057040,0.09052244,-0.19156628,0.10088872,0.06035030,0.00369371,0.02340060,0.98399025,0.06734050,-0.13434199,0.09581585
1761618057052,0.20068904,0.11066922,-0.27414937,0.01209528,-0.00217867,0.01454996,0.98397486,0.06741368,-0.13435517,0.09590387
1761618057064,0.09915328,-0.19533607,-0.06052001,0.03522075,0.00701342,0.01749726,0.98395666,0.06761620,-0.13431484,0.09600448
1761618057074,-0.44357830,0.17551698,0.64417216,0.01026350,-0.00841945,0.03312389,0.98393147,0.06766700,-0.13435652,0.09616844
1761618057085,0.39414202,-0.11300841,-0.58821425,0.02622757,-0.00779383,0.00995242,0.98390975,0.06781519,-0.13440055,0.09622468
1761618057096,-0.89158051,-0.51917245,1.22953052,-0.00719920,-0.00879047,0.00366407,0.98390391,0.06777559,-0.13444890,0.09624483
1761618057107,0.22564543,-0.12486186,-0.15610646,-0.00025773,-0.00828562,0.02251824,0.98388549,0.06777416,-0.13449488,0.09636980
1761618057118,0.04287611,0.12436042,-0.08352623,-0.02323139,-0.01898793,0.00194883,0.98387883,0.06764406,-0.13460122,0.09638072
1761618057130,0.85956375,0.41002241,-0.91034403,-0.03201199,-0.02734517,-0.00396333,0.98387229,0.06746320,-0.13475572,0.09635833
1761618057141,0.08502370,-0.02848799,0.06643566,-0.01764798,-0.03899586,0.01116911,0.98384353,0.06736613,-0.13497019,0.09641976
1761618057152,0.15924061,-0.00414689,0.13667461,-0.04229147,-0.04318122,0.01089632,0.98382053,0.06712930,-0.13521201,0.09648077
1761618057164,0.16005150,-0.17101433,-0.51244687,-0.03314121,-0.04861659,0.01292965,0.98378605,0.06692880,-0.13550614,0.09655900
1761618057175,-0.24287104,-0.09063993,0.65225125,-0.03770368,-0.04472110,0.00852711,0.98376228,0.06672708,-0.13574540,0.09660462
1761618057185,-0.13589561,0.31376849,0.29416428,-0.05097012,-0.05005728,0.01114596,0.98373835,0.06645949,-0.13600820,0.09666314
1761618057196,-0.35195953,-0.03013163,0.01962702,0.00758357,-0.03755916,0.00027459,0.98370652,0.06650158,-0.13621665,0.09666466
1761618057209,0.35553995,0.11808939,-0.32285978,-0.00823898,-0.03217258,-0.00129289,0.98368255,0.06644926,-0.13642095,0.09665645
1761618057219,-0.47949245,-0.29950686,1.01844743,-0.01190589,-0.04833417,-0.01246704,0.98365961,0.06639092,-0.13665778,0.09659536
1761618057229,0.65276272,0.15997338,-0.75154481,-0.03874525,-0.05441792,-0.02230819,0.98364466,0.06618170,-0.13695164,0.09647490
1761618057241,0.20891526,-0.05354923,-0.24051880,-0.01577524,-0.05596283,-0.02912877,0.98362271,0.06609257,-0.13726783,0.09631032
1761618057252,0.06015063,-0.06541482,-0.01251718,-0.01782967,-0.05511491,-0.01739013,0.98359534,0.06599094,-0.13758199,0.09621120
1761618057263,-0.07123861,0.18732041,0.25047053,-0.03881657,-0.05590863,-0.03331668,0.98358459,0.06577939,-0.13788669,0.09602962
1761618057274,-0.08272223,-0.06101506,-0.43282698,-0.01302382,-0.06273934,-0.03148261,0.98355735,0.06570645,-0.13823803,0.09585332
1761618057285,-0.11458312,0.29928404,0.61123666,-0.00823669,-0.04372460,-0.03703119,0.98354627,0.06566074,-0.13848070,0.09564779
1761618057296,-0.44893361,-0.23123951,0.40249220,0.06217342,-0.05670090,-0.04641473,0.98350383,0.06600580,-0.13879539,0.09539019
1761618057308,0.04063623,0.30283668,0.01548047,0.07339134,-0.04789272,-0.01610240,0.98344752,0.06641312,-0.13906119,0.09530082
1761618057319,0.18885985,0.24666068,-0.66227383,0.07597839,-0.02607857,-0.00442091,0.98339959,0.06684620,-0.13920984,0.09527562
1761618057330,0.16357789,0.27025180,-0.77633818,0.08468907,-0.03262067,0.00627061,0.98333906,0.06731199,-0.13938926,0.09531011
1761618057341,-0.00190126,0.16622306,-0.11497647,0.06687226,-0.02027349,0.01532341,0.98328804,0.06769316,-0.13950481,0.09539746
1761618057352,-0.24432978,0.02625041,-0.15669877,0.09436721,-0.02241848,0.01538733,0.98322645,0.06821218,-0.13962812,0.09548209
1761618057363,0.08732392,0.16668991,-0.19475486,0.10000206,-0.01631979,0.01605583,0.98316627,0.06876719,-0.13971869,0.09557120
1761618057375,-0.02902588,0.12384376,-0.19737598,0.12575168,-0.00632149,0.01105190,0.98310625,0.06946512,-0.13975377,0.09563253
1761618057386,-0.25260585,0.08183575,-0.08334967,0.12625790,-0.01675045,0.01155414,0.98303577,0.07017847,-0.13984841,0.09569782
1761618057397,-0.43946381,-0.35421848,0.52410979,0.13792879,-0.00326563,0.01768864,0.98296868,0.07094398,-0.13986654,0.09579599
1761618057408,0.02837758,0.06087217,-0.13206423,0.11344225,-0.00739438,0.02974241,0.98289988,0.07158493,-0.13990832,0.09596403
1761618057419,0.04158768,-0.10721251,-0.26262139,0.10566378,0.00518914,0.04517216,0.98283715,0.07216608,-0.13987978,0.09621248
1761618057430,0.30867669,0.13190688,-0.86278401,0.08210501,0.00202098,0.04309284,0.98278074,0.07262997,-0.13986836,0.09645595
1761618057442,0.08394387,-0.32366425,-0.13375879,0.07812036,0.01087774,0.04186199,0.98273436,0.07306354,-0.13980799,0.09668829
1761618057453,-0.11609393,0.08199133,0.12475659,0.04994325,-0.00427523,0.02724606,0.98269580,0.07333823,-0.13983150,0.09683814
1761618057464,0.06825091,-0.06838482,-0.19915443,0.05111402,-0.00505911,0.01455042,0.98266233,0.07362447,-0.13985983,0.09691962
1761618057475,0.10073489,-0.11594016,-0.24138361,0.03107970,-0.01885021,0.01520601,0.98262584,0.07379851,-0.13996539,0.09700478
1761618057486,-0.01710592,-0.16678277,0.42954878,0.03001503,-0.01244749,0.00497172,0.98260052,0.07396660,-0.14003510,0.09703262
1761618057497,0.14091889,-0.28067226,0.82102407,0.00241543,-0.01018442,0.00684381,0.98258782,0.07397988,-0.14009111,0.09707026
1761618057509,0.15810021,-0.18810038,-0.18294700,-0.00449362,-0.01300273,0.01719535,0.98256981,0.07395472,-0.14016393,0.09716655
1761618057520,0.00251734,-0.13660537,-0.54851371,0.00119510,-0.01642624,0.01533153,0.98254749,0.07396147,-0.14025674,0.09725318
1761618057531,-0.23843602,0.27594121,-0.69849861,-0.01585103,-0.02595734,0.00827522,0.98252915,0.07387429,-0.14039950,0.09729869
1761618057542,0.18792327,-0.32016589,-0.28299074,0.01696253,-0.04467511,0.02442524,0.98247267,0.07396928,-0.14064968,0.09743547
1761618057553,0.08600645,-0.13079355,-0.10523609,0.01656467,-0.04124036,0.03341647,0.98241454,0.07406121,-0.14087857,0.09762093
1761618057565,0.19271536,-0.15768963,0.03077572,-0.00313093,-0.02769761,0.04419128,0.98236735,0.07404305,-0.14103921,0.09787724
1761618057575,-0.19554561,-0.20673141,0.05041382,-0.04469281,-0.02763036,0.04723544,0.98233916,0.07380618,-0.14118565,0.09812759
1761618057586,0.10940543,-0.09927252,0.13910396,-0.05471268,-0.02825087,0.03326076,0.98232060,0.07349705,-0.14134527,0.09831551
1761618057598,-0.16295046,0.25477901,0.46595636,-0.06645782,-0.02933635,0.02888389,0.98230874,0.07313154,-0.14150662,0.09847437
1761618057609,0.03162004,0.17341347,-0.24065790,-0.05376668,-0.03347421,0.04091553,0.98228109,0.07283044,-0.14169408,0.09870350
1761618057620,0.32121126,0.10548654,-0.49036985,-0.03439756,-0.01454760,0.03643491,0.98226307,0.07263782,-0.14177554,0.09890754
1761618057631,0.20190264,-0.48617701,-0.33887715,0.01705642,0.00518051,0.05389828,0.98223005,0.07273248,-0.14174679,0.09920667
1761618057642,0.18576563,0.49247243,-0.39281691,-0.00644666,0.00744833,0.04016838,0.98221612,0.07269670,-0.14170545,0.09942961
1761618057653,0.23220704,0.13110023,-0.05031153,0.00787365,0.02289385,0.01370580,0.98222351,0.07274040,-0.14157839,0.09950567
1761618057664,0.12501537,0.13253667,-0.07647153,0.02962840,-0.00467607,0.00671751,0.98220362,0.07290632,-0.14160458,0.09954329
1761618057676,0.22807900,0.08909336,-0.00380132,0.01656238,-0.00590093,0.00343985,0.98219001,0.07299907,-0.14163762,0.09956256
1761618057687,0.17295991,-0.17818672,0.99594496,0.00823619,-0.01482254,-0.01833554,0.98218501,0.07304519,-0.14172063,0.09945988
1761618057698,0.16431741,-0.22153382,0.77056772,-0.00946939,-0.02556967,-0.02079170,0.98218015,0.07299311,-0.14186126,0.09934552
1761618057709,0.20544389,-0.06942154,0.09848866,-0.05504358,-0.03145256,-0.01971177,0.98218872,0.07268486,-0.14203740,0.09923514
1761618057731,0.06212177,0.14900693,-0.64745588,-0.02050819,-0.01721551,-0.01012006,0.98218922,0.07245825,-0.14222763,0.09912331
1761618057742,0.47420521,-0.49263397,-0.40638068,-0.05420838,-0.07503333,-0.05450325,0.98218182,0.07217094,-0.14262531,0.09883444
1761618057751,0.25398252,0.08873251,-0.09457989,-0.02012176,-0.07048312,-0.04649543,0.98216237,0.07207537,-0.14296010,0.09861359
1761618057763,0.01646346,0.05211061,0.10083411,-0.05548905,-0.08003948,-0.05414391,0.98214962,0.07175076,-0.14342833,0.09829685
1761618057789,-0.13215909,0.12143354,0.01487565,-0.02939226,-0.03748039,-0.02561067,0.98213937,0.07136572,-0.14391932,0.09796135
1761618057792,20.86650065,-19.98703267,7.42783073,-0.43171477,-0.63757514,-0.35994495,0.98210203,0.07076132,-0.14481193,0.09745742
1761618057822,-2.04273634,1.84580891,-0.59583977,-0.01627454,-0.03192161,-0.01313030,0.98206850,0.07051801,-0.14528916,0.09726113
1761618057824,34.47426761,-59.85197816,43.37274812,-0.64065394,-0.95897987,-0.43096250,0.98201727,0.06990939,-0.14620019,0.09685171
1761618057835,-4.90329831,9.84678555,-7.53861109,-0.05426025,-0.08825733,-0.05464478,0.98199529,0.06960553,-0.14669443,0.09654570
1761618057844,0.16362407,-0.05996226,0.04449945,-0.06786349,-0.09954159,-0.05946082,0.98197549,0.06928997,-0.14715730,0.09626921
1761618057855,-0.02169831,0.03528257,0.03855956,-0.07761829,-0.08834400,-0.05338286,0.98196185,0.06887859,-0.14762552,0.09598628
1761618057867,-0.07270693,0.16924077,-0.00262895,-0.06493425,-0.08944597,-0.05341484,0.98194011,0.06849873,-0.14814878,0.09567380
1761618057878,-0.12543586,0.22153237,0.01410806,-0.02637306,-0.06647588,-0.02200218,0.98190434,0.06834312,-0.14854099,0.09554399
1761618057890,-0.04940172,-0.02443887,0.39854953,-0.00779625,-0.08562836,-0.03795921,0.98185319,0.06829752,-0.14904191,0.09532193
1761618057902,-0.06618384,0.02525436,0.73847233,-0.00638918,-0.06083074,-0.03677003,0.98182257,0.06826014,-0.14939777,0.09510682
1761618057913,-0.01393344,-0.01741680,-0.01393344,-0.02295072,-0.06361839,-0.01278191,0.98178243,0.06812588,-0.14976994,0.09503205
1761618058030,-0.07370217,0.02712791,-0.12404822,-0.00288165,-0.00488577,-0.00319367,0.98176863,0.06795845,-0.15005380,0.09484650
1761618058084,0.16139849,0.03805058,0.25275816,-0.03647396,-0.11959272,-0.03392479,0.98142483,0.06697183,-0.15328879,0.09392883
1761618058087,42.74193920,19.67851461,29.84875940,-0.05447288,-1.12555964,0.13537265,0.98112704,0.06688468,-0.15508968,0.09414543
1761618058173,-1.60572810,-0.71290443,-1.17293524,0.01663929,-0.03672032,0.01322719,0.98076985,0.06760516,-0.15667967,0.09471817
1761618058178,20.41701974,9.65876201,10.49072457,0.07544830,-0.73959970,0.24769845,0.98042196,0.06778246,-0.15841773,0.09530026
1761618058241,-1.55229799,-0.78102596,-0.80648642,-0.00698736,-0.06144195,0.01935978,0.98006699,0.06756481,-0.16033165,0.09590331
1761618058264,0.75020701,0.03760722,0.05593575,-0.04654661,-0.16563165,0.06139375,0.97971483,0.06702021,-0.16226954,0.09662162
1761618058312,-0.23360517,-0.01351035,-0.13014022,-0.02053784,-0.08554916,0.01746901,0.97936103,0.06652217,-0.16434411,0.09704524
1761618058326,5.77012902,-0.00749294,2.53029911,-0.05818235,-0.48472332,-0.00324122,0.97885089,0.06614107,-0.16751904,0.09702401
1761618058364,-1.68968988,0.02344955,-0.81449142,-0.00349633,-0.15927621,0.00214387,0.97832584,0.06607429,-0.17056122,0.09706496
1761618058387,0.81214494,-0.06682500,0.15758557,-0.06235610,-0.27917560,0.01245673,0.97778531,0.06534473,-0.17382757,0.09721071
1761618058395,6.14626380,0.27494233,1.82045622,-0.14554608,-0.64613275,-0.02157981,0.97735392,0.06474071,-0.17650902,0.09712115
1761618058440,-1.73750156,-0.12457354,-0.37360149,-0.02110107,-0.12082012,-0.00235056,0.97690081,0.06427121,-0.17919727,0.09706885
1761618058444,59.45222955,-3.47766081,14.43422447,-0.52554070,-1.41103815,-0.02308421,0.97648611,0.06329896,-0.18180769,0.09702614
1761618058496,-4.24483724,0.30027822,-1.08251390,-0.03393745,-0.08320825,0.00423029,0.97612602,0.06241489,-0.18397527,0.09713634
1761618058512,3.95775807,-0.42516373,1.22182550,-0.13730028,-0.39928772,-0.00426272,0.97559161,0.06131649,-0.18716957,0.09710224
1761618058528,-1.35990705,0.42857999,-0.08365041,-0.05830061,-0.29204309,-0.02367915,0.97519361,0.06085591,-0.18947671,0.09691518
1761618058553,-1.12116067,-0.00160217,-0.61649487,-0.01897068,-0.11150460,-0.00895513,0.97493976,0.06061119,-0.19091512,0.09679966
1761618058566,1.68053714,-0.57460728,0.43791818,-0.06349497,-0.14541271,-0.01344178,0.97479662,0.06022070,-0.19180941,0.09671699
1761618058580,-0.95081276,-0.04093991,-0.40304029,-0.07310874,-0.11894877,-0.00921168,0.97466667,0.05969432,-0.19266584,0.09665066
1761618058602,-0.83437110,0.33717363,0.14467904,-0.03872698,-0.05456037,-0.01912330,0.97459533,0.05927219,-0.19326055,0.09644222
1761618058618,0.23159147,-0.04157979,0.58613519,-0.02202427,-0.04959999,-0.00411272,0.97452849,0.05909049,-0.19366975,0.09640829
1761618058621,35.07271388,2.07490168,30.39948377,-0.19607294,-0.19338631,-0.12264049,0.97450895,0.05882579,-0.19393082,0.09624273
1761618058653,-3.22346505,-0.16278013,-3.05307798,-0.00979200,-0.01978463,-0.00215460,0.97445828,0.05866765,-0.19425034,0.09620793
1761618058666,2.60461860,-0.15109331,0.63987236,-0.06563366,-0.05387782,-0.05256654,0.97444809,0.05825744,-0.19458708,0.09587939
1761618058679,-0.58170637,-0.31435692,-0.27137969,-0.05503377,-0.03148893,-0.04333806,0.97445613,0.05790247,-0.19479018,0.09559986
1761618058686,2.31555644,0.02888186,1.73337736,-0.13117476,-0.02367604,-0.07577643,0.97449220,0.05744992,-0.19487186,0.09533843
1761618058704,-1.46313857,0.22092523,-0.30495940,-0.02525522,-0.02664653,-0.04259066,0.97449503,0.05722136,-0.19511301,0.09495298
1761618058721,-0.09399230,0.07258980,-0.08844869,-0.01453908,-0.03390908,-0.03397136,0.97447275,0.05709851,-0.19539954,0.09466593
1761618058722,182.46607755,-15.74356896,81.26414213,-0.20934216,-0.45393834,-0.32825822,0.97443985,0.05695197,-0.19571730,0.09443614
1761618058742,-13.25205236,1.23108049,-5.90197834,-0.02127289,-0.03035745,-0.01936082,0.97440984,0.05673817,-0.19602239,0.09424157
1761618058756,0.54749347,-0.05521407,0.14207389,-0.01646088,-0.03354771,-0.02585684,0.97438775,0.05662789,-0.19624716,0.09406833
1761618058769,0.06046010,-0.09055347,-0.07649037,-0.00768294,-0.04681790,-0.02041148,0.97434035,0.05657603,-0.19656318,0.09393055
1761618058771,79.55700452,-2.18379139,42.55185801,-0.12915061,-0.39640009,-0.18281486,0.97428815,0.05645333,-0.19693976,0.09375688
1761618058794,-6.95229766,0.22951136,-3.57680557,-0.00679233,-0.02531132,-0.01772153,0.97425308,0.05637454,-0.19723338,0.09355131
1761618058810,0.61248322,-0.15204400,0.75508080,-0.01094987,-0.07273498,-0.03227266,0.97416824,0.05629023,-0.19779343,0.09330281
1761618058811,82.85989035,-21.67592815,109.86703549,0.04003671,-0.69802347,-0.36169920,0.97408051,0.05632226,-0.19835185,0.09301345
1761618058832,-7.02183336,1.67782033,-8.72270631,-0.00432761,-0.04270951,-0.01678860,0.97400990,0.05627768,-0.19879176,0.09284052
1761618058844,1.04586503,-0.11937285,-0.25083655,0.00804263,-0.06148325,-0.01795731,0.97394032,0.05632714,-0.19916988,0.09273009
1761618058846,41.64555664,-5.39582631,23.20307938,-0.11559028,-0.31069627,-0.10284836,0.97388848,0.05620000,-0.19951165,0.09261695
1761618058858,-7.90398147,0.90085431,-4.42125475,0.00418622,-0.05093613,-0.03505740,0.97384545,0.05622448,-0.19980963,0.09241187
1761618058869,0.02506048,0.19407631,0.00215363,-0.02870884,-0.06917339,-0.02411970,0.97379054,0.05607089,-0.20017970,0.09228283
1761618058884,-0.33258369,0.00232190,-0.08200150,-0.03184986,-0.03439475,-0.00673812,0.97375645,0.05583520,-0.20043422,0.09223297
1761618058889,4.21804377,-0.56770196,1.01891058,-0.00158037,-0.08969129,-0.05860905,0.97372115,0.05583086,-0.20068088,0.09207179
1761618058908,-1.15806751,0.14099223,-0.13974410,0.01940582,-0.00465549,-0.01143537,0.97371157,0.05601812,-0.20072580,0.09196144
1761618058921,0.54941485,-0.11163651,0.53590427,-0.01730921,-0.00624740,-0.02744011,0.97372615,0.05590821,-0.20076547,0.09178719
1761618058922,140.39034566,-36.63128299,69.42221850,0.11475174,-0.10725631,-0.31014106,0.97372649,0.05598854,-0.20084055,0.09157010
1761618058934,-17.74612003,4.19563260,-9.67633039,0.01106038,-0.01283256,-0.05090784,0.97373509,0.05605213,-0.20091434,0.09127738
1761618058946,-0.08034340,0.41174687,0.20477441,-0.03353820,-0.00628172,-0.08703138,0.97378681,0.05585426,-0.20095140,0.09076389
1761618058959,0.05395761,0.04841645,-0.01620914,-0.05006491,-0.01290513,-0.05204088,0.97381933,0.05553134,-0.20103464,0.09042823
1761618058976,-0.32698850,-0.06439394,-0.19968955,-0.01521080,0.00396076,-0.01931092,0.97385026,0.05539596,-0.20099939,0.09025636
1761618058978,76.24448934,-24.63570805,17.66859044,-0.15316056,0.04754783,-0.35538242,0.97388367,0.05529641,-0.20096848,0.09002536
1761618058984,-13.63275784,4.50158249,-3.14840078,-0.05385199,0.02441847,-0.03536078,0.97392229,0.05511331,-0.20088546,0.08990513
1761618059011,-0.51849669,0.11798619,0.04882997,-0.01898481,0.00356278,-0.01243856,0.97396098,0.05486461,-0.20083879,0.08974219
1761618059012,37.96720233,-48.50538061,102.99002915,-0.40212625,-0.04179719,-0.49740659,0.97400278,0.05458312,-0.20086804,0.08939401
1761618059021,-5.60904689,7.13566822,-15.53934257,-0.06758836,-0.02579095,-0.06712875,0.97402306,0.05428573,-0.20098153,0.08909864
1761618059035,0.03841016,0.22008948,-0.72313300,-0.04445605,-0.02069173,-0.03006796,0.97402997,0.05396121,-0.20113257,0.08887914
1761618059048,0.26560993,-0.17913154,0.06203370,-0.06018834,-0.02344513,-0.05345189,0.97405122,0.05357901,-0.20128145,0.08853972
1761618059051,13.82938032,-9.21255533,2.25589911,-0.13631287,-0.02282337,-0.18446638,0.97407951,0.05338136,-0.20131455,0.08827225
1761618059062,-3.39740729,2.07694987,-0.66361698,-0.03753605,-0.00953571,-0.04019143,0.97410053,0.05316928,-0.20136842,0.08804517
1761618059074,-0.10375135,0.00120330,-0.07784648,-0.03842120,-0.01887827,-0.01992729,0.97410046,0.05293875,-0.20148169,0.08792560
1761618059086,0.12417634,-0.06291601,0.16060140,-0.05769197,-0.02106632,-0.01763262,0.97410260,0.05259260,-0.20160809,0.08781981
1761618059107,-0.09650276,0.18187188,0.16813646,-0.03236769,-0.01527058,-0.01687146,0.97410365,0.05225274,-0.20176843,0.08764266
1761618059109,116.08335707,-71.57004069,61.43630497,-0.49668302,-0.20725466,-0.06861052,0.97409598,0.05188022,-0.20192387,0.08759120
1761618059131,-7.98550338,4.92910239,-4.23835901,-0.04125378,-0.01268875,-0.01297809,0.97410400,0.05142231,-0.20206472,0.08744714
1761618059141,0.87482793,-1.00906389,-0.22499970,-0.04511487,-0.03734273,-0.00343046,0.97407968,0.05120576,-0.20224396,0.08743067
1761618059152,-0.59173829,0.58021555,-0.06335528,-0.03868991,-0.01638554,0.01549701,0.97406420,0.05098909,-0.20233572,0.08751746
1761618059154,28.48676273,-25.45969827,4.41287245,-0.35072697,-0.11461115,-0.22183064,0.97407859,0.05063837,-0.20245033,0.08729563
1761618059174,-2.96180418,2.58972462,-0.45216154,-0.02774689,-0.00793529,-0.01683395,0.97409193,0.05035257,-0.20253207,0.08712224
1761618059185,0.68468582,-0.58996307,0.13151952,-0.06715879,-0.02613419,-0.02598479,0.97409383,0.04998320,-0.20267580,0.08697932
1761618059187,19.62738808,-45.05749905,30.83546956,-0.12900296,-0.04496783,-0.14564044,0.97410152,0.04988645,-0.20270953,0.08687009
1761618059198,-3.57923503,5.85249553,-3.31272804,-0.03886007,-0.01525842,-0.03341364,0.97411162,0.04966689,-0.20279574,0.08668130
1761618059209,0.07054703,-0.16134468,0.07459896,-0.05228749,-0.00926525,-0.01892635,0.97412464,0.04938454,-0.20284577,0.08657910
1761618059231,-0.06119064,0.35405261,-0.31850106,-0.02810451,-0.00735534,-0.00871027,0.97413206,0.04906977,-0.20292815,0.08648155
1761618059243,0.76526348,-0.49605277,-0.02435653,-0.09244568,-0.01853099,-0.02824986,0.97415057,0.04854745,-0.20303285,0.08632193
1761618059254,-0.34873857,0.40327356,-0.06695354,-0.06676984,-0.02549211,-0.02247585,0.97415051,0.04816018,-0.20318071,0.08619157
1761618059265,0.07352891,0.00676616,0.01706851,-0.03326716,0.00015027,-0.01268860,0.97416476,0.04799052,-0.20317994,0.08612686
1761618059328,-0.09478701,0.11217150,-0.05316458,-0.00391936,-0.00217043,-0.00399626,0.97416770,0.04786686,-0.20324842,0.08600078
1761618059338,5.17188000,-4.44413518,7.43744927,-0.22733426,-0.02671303,-0.13970771,0.97425818,0.04670746,-0.20338465,0.08528827
1761618059376,-1.34952214,1.08027534,-1.82349692,-0.01595787,-0.00936910,0.00279733,0.97423069,0.04640266,-0.20356360,0.08534170
1761618059432,-0.07466358,0.03317170,0.04582427,-0.01561004,-0.01025901,0.00913346,0.97416858,0.04596324,-0.20385239,0.08559881
1761618059467,0.02179987,-0.03485075,0.12483016,-0.03824609,-0.03108349,0.00834127,0.97407366,0.04529776,-0.20439325,0.08574395
1761618059489,0.07212370,0.08307457,0.31968412,0.00326514,-0.03516321,0.02699931,0.97396505,0.04533351,-0.20477828,0.08603959
1761618059522,-0.01235225,0.11510305,0.12234600,0.02123134,-0.01871116,0.00975753,0.97386919,0.04568489,-0.20508795,0.08620108
1761618059554,-0.03485595,-0.07340441,-0.22043981,-0.00217000,-0.00926856,0.00390059,0.97383460,0.04565071,-0.20523393,0.08626251
1761618059566,-0.39586254,0.08402318,2.83411150,0.03180566,-0.05334597,0.00711345,0.97375032,0.04585109,-0.20557001,0.08630732
