UnixTime(ms),Ax,Ay,Az,Gx,Gy,Gz,QuatW,QuatX,QuatY,QuatZ
1761620099955,0.00000000,0.00000000,0.00000000,0.00000000,0.00000000,0.00000000,0.99887814,0.00632639,0.03596380,0.03015033
1761620099961,-2.78725676,3.69994819,0.86501072,0.33245573,0.12908682,-0.02210323,0.99885833,0.00737362,0.03637043,0.03008071
1761620099972,0.80811902,-0.60434460,-0.39685360,0.22900749,0.02817001,0.01810722,0.99884012,0.00859881,0.03652114,0.03017758
1761620099983,0.11656707,-0.01140095,0.02795516,0.14818247,-0.00856096,0.00932473,0.99883273,0.00943604,0.03647277,0.03023027
1761620099994,-0.01493734,-0.36812368,0.11576437,0.11521818,-0.01864598,-0.02432858,0.99883436,0.01008703,0.03636742,0.03009281
1761620100006,0.15273876,-0.53881436,0.38308076,0.05666726,0.01537707,-0.03059336,0.99883309,0.01041003,0.03645507,0.02991843
1761620100017,0.15765461,-0.41980061,0.29656939,-0.00168332,0.03215475,0.05323221,0.99881763,0.01040060,0.03663513,0.03021653
1761620100028,-0.00345546,-0.28826597,0.12463851,-0.05048478,0.04136869,0.08214755,0.99879816,0.01012041,0.03686473,0.03067245
1761620100039,-0.09783283,-0.15065810,0.03364265,-0.03863775,0.04369049,0.03995074,0.99878425,0.00990211,0.03711158,0.03089817
1761620100051,-0.04481201,0.07276117,-0.02240601,-0.01617563,0.05556963,0.00716226,0.99877219,0.00981072,0.03742555,0.03093864
1761620100062,-0.13343343,0.13148659,-0.18946451,0.01167029,0.05516409,-0.00219670,0.99876041,0.00987549,0.03773171,0.03092644
1761620100073,-0.03096094,-0.05932164,-0.29025880,0.01277741,0.05229034,0.00759872,0.99874739,0.00994640,0.03802192,0.03096862
1761620100084,0.07186071,0.01126766,-0.12252654,0.00326931,0.06076554,0.00263708,0.99873361,0.00996487,0.03836525,0.03098352
1761620100096,-0.06164574,-0.11866337,-0.06933551,0.01218625,0.06076569,0.00605866,0.99871835,0.01003494,0.03871465,0.03101835
1761620100107,-0.10274414,0.02301677,0.23152331,-0.01560376,0.06950809,-0.00195399,0.99870477,0.00994990,0.03909347,0.03100770
1761620100118,-0.07030692,0.03260109,0.05918197,-0.04789417,0.06389375,0.00288819,0.99869284,0.00968170,0.03945127,0.03102388
1761620100129,-0.06082107,-0.02518372,0.00380132,-0.02971242,0.07516010,0.00057652,0.99867762,0.00951531,0.03987217,0.03102711
1761620100140,0.03040117,-0.05461482,-0.08897585,-0.00437058,0.07372717,0.00604967,0.99865992,0.00949039,0.04029241,0.03106159
1761620100151,-0.13786529,0.15121427,0.01228677,-0.02213088,0.08204698,0.00792626,0.99864157,0.00936978,0.04073957,0.03110479
1761620100162,0.07281788,-0.03461345,-0.02402851,0.00346070,0.08677656,0.01436557,0.99861894,0.00938916,0.04122552,0.03118523
1761620100174,-0.04561580,0.53747053,-0.08743028,-0.00839198,0.08151495,0.01263659,0.99859822,0.00934217,0.04168200,0.03125600
1761620100185,-0.06082107,0.04971409,0.00000000,-0.02545374,0.07481510,0.01926355,0.99857858,0.00919962,0.04210097,0.03136388
1761620100196,0.05238480,-0.19576434,-0.02639973,-0.01672813,0.07316844,0.00819945,0.99856080,0.00910678,0.04250705,0.03140938
1761620100207,0.19136718,-0.47216430,0.06797850,-0.02524475,0.07439443,0.02070624,0.99854060,0.00896541,0.04292366,0.03152534
1761620100218,-0.06082107,-0.02405521,-0.05701975,-0.01610853,0.06300542,0.00716262,0.99852491,0.00887520,0.04327649,0.03156545
1761620100230,0.11216340,0.09254773,0.04801287,-0.01791792,0.05981514,-0.00426763,0.99851186,0.00877397,0.04361445,0.03154134
1761620100241,0.07365465,0.03034342,0.02667889,0.00072426,0.04838287,0.01478003,0.99849760,0.00877795,0.04388055,0.03162263
1761620100252,0.16421688,0.09534069,0.01658756,-0.00324495,0.03729570,0.01503636,0.99848589,0.00875978,0.04408941,0.03170683
1761620100263,0.09123160,0.07941188,0.04941712,0.00997734,0.03084563,0.01172685,0.99847567,0.00881565,0.04426214,0.03177250
1761620100274,-0.07602633,-0.10905027,-0.61961461,0.00423215,0.01577901,0.03040950,0.99846610,0.00883935,0.04435051,0.03194279
1761620100285,0.10643687,0.06652304,0.12164213,-0.03521480,0.00633300,0.02440997,0.99846187,0.00864215,0.04438597,0.03207949
1761620100296,0.13455027,-0.04066592,-0.08036423,0.01445299,0.00860411,0.02046155,0.99845545,0.00872164,0.04443329,0.03219203
1761620100308,0.17195774,0.13669513,0.42865029,0.01126740,-0.01784383,0.01316048,0.99845696,0.00878474,0.04433337,0.03226573
1761620100319,0.06082107,-0.02963839,-0.13304608,0.00925245,-0.01448561,-0.00209116,0.99846048,0.00883655,0.04425225,0.03225402
1761620100330,0.14728844,0.03555881,0.03806699,0.00769720,-0.03673054,0.00023297,0.99846931,0.00888043,0.04404288,0.03225534
1761620100341,0.16205688,-0.00928163,0.03394621,0.02347322,-0.05256506,-0.00249060,0.99848130,0.00900953,0.04375378,0.03224165
1761620100352,0.04063953,0.08690220,0.00013823,0.00961117,-0.04782778,0.00406029,0.99849178,0.00906335,0.04348594,0.03226438
1761620100364,0.04267116,0.00612066,-0.03452259,0.01115522,-0.03682732,0.00614975,0.99849938,0.00912861,0.04327050,0.03230036
1761620100374,0.24296436,0.41765623,-0.38942877,-0.00173164,-0.06363414,0.00535620,0.99851285,0.00911961,0.04293960,0.03232821
1761620100386,0.10181386,-0.07567196,-0.10192549,0.00418162,-0.05733292,0.00326440,0.99852568,0.00914281,0.04262141,0.03234633
1761620100397,-0.00317328,-0.06354931,0.06078818,-0.02213532,-0.05217007,0.00249439,0.99853902,0.00901664,0.04232404,0.03236055
1761620100408,-0.13978175,-0.48291310,0.24295082,-0.03003877,-0.06398509,0.00285273,0.99855513,0.00884843,0.04196572,0.03237652
1761620100419,-0.04561580,-0.17004952,0.15585398,-0.01769761,-0.05781034,-0.00428875,0.99857033,0.00874932,0.04164198,0.03235250
1761620100430,0.04081546,0.07919980,0.01885956,-0.01840987,-0.06124647,-0.00650841,0.99858636,0.00864806,0.04130513,0.03231671
1761620100441,0.03152642,-0.00757373,0.01576321,-0.01528920,-0.06306220,0.00293041,0.99860085,0.00856397,0.04095828,0.03233283
1761620100452,0.03750745,0.06541855,0.04805186,-0.01095304,-0.06385352,0.00237394,0.99861516,0.00850428,0.04061028,0.03234576
1761620100464,-0.05560885,0.09517851,-0.02352941,-0.00159974,-0.05455909,-0.00812957,0.99862933,0.00849516,0.04029930,0.03229943
1761620100475,-0.02682511,-0.23193483,0.09499409,0.00675162,-0.05528044,-0.00498228,0.99864213,0.00853230,0.03999525,0.03227202
1761620100486,-0.14410910,-0.16502917,-0.00482006,0.00000570,-0.04706622,-0.00203920,0.99865292,0.00853233,0.03973404,0.03226071
1761620100497,0.07814206,-0.08900374,0.04512010,-0.01445217,-0.03665165,-0.00686827,0.99866317,0.00844995,0.03952512,0.03222156
1761620100508,-0.08296207,0.13439759,-0.22547810,-0.02235678,-0.04966898,-0.01150534,0.99867727,0.00832475,0.03924698,0.03215713
1761620100519,0.01075029,0.08831086,-0.00627100,-0.02713245,-0.03054538,-0.01002222,0.99868678,0.00817688,0.03908050,0.03210251
1761620100531,-0.08839067,0.10637018,0.01048354,-0.01102346,-0.03211295,-0.00404926,0.99869511,0.00811460,0.03889907,0.03207963
1761620100542,-0.01000066,0.12385981,-0.05555160,-0.00429118,-0.03061876,-0.00853681,0.99870342,0.00809078,0.03872913,0.03203225
1761620100553,-0.09473771,0.09702436,-0.15455434,0.01141122,-0.01084506,-0.00145269,0.99870554,0.00815525,0.03866786,0.03202404
1761620100565,-0.13246452,-0.06987149,0.03195581,-0.00452136,-0.01484441,0.00257257,0.99870860,0.00812903,0.03858176,0.03203896
1761620100575,0.14496387,0.02896749,-0.31375281,-0.01137861,-0.00654506,-0.00048740,0.99871050,0.00806929,0.03854740,0.03203640
1761620100587,-0.08897106,-0.12041317,0.07294186,-0.02468801,0.00199125,-0.00140687,0.99871152,0.00791746,0.03855964,0.03202775
1761620100598,0.09820074,-0.09109470,-0.00535848,-0.05436110,0.01280664,-0.00955698,0.99871270,0.00764294,0.03862432,0.03197949
1761620100608,-0.15963867,-0.05537732,0.29746060,-0.03273083,0.00536432,-0.00675803,0.99871409,0.00746619,0.03865328,0.03194299
1761620100620,-0.06033643,0.10769403,0.00591134,-0.01264265,0.00004213,-0.00667325,0.99871583,0.00739413,0.03865352,0.03190496
1761620100631,0.04562665,0.10952337,-0.02423916,0.00029880,0.01045957,-0.01002737,0.99871534,0.00739579,0.03871158,0.03184930
1761620100642,-0.10836329,-0.00846588,-0.07740235,0.00935753,0.00831289,0.00155157,0.99871289,0.00744772,0.03875771,0.03185792
1761620100653,0.10725877,-0.02867522,0.07092366,0.00203272,0.00971823,0.00681840,0.99870948,0.00745910,0.03881213,0.03189610
1761620100664,-0.04494538,-0.01916608,0.02050550,-0.00844493,0.01647802,0.00147735,0.99870594,0.00741139,0.03890523,0.03190445
1761620100676,0.03041296,-0.10448514,0.16686028,-0.01089430,0.00952057,-0.00545240,0.99870530,0.00735093,0.03895807,0.03187418
1761620100687,0.07602633,-0.02892564,0.00780811,-0.00632051,0.00499728,-0.00426740,0.99870523,0.00731553,0.03898606,0.03185029
1761620100698,0.07809344,0.02942812,-0.00787845,0.00306492,0.00004310,-0.01649117,0.99870801,0.00733254,0.03898630,0.03175876
1761620100709,-0.13821724,0.28907611,0.00020548,-0.00082408,-0.00071325,-0.01009165,0.99870999,0.00732793,0.03898230,0.03170225
1761620100720,0.10850150,-0.02506560,-0.03890850,0.00354148,0.00303362,0.00399353,0.99870849,0.00734758,0.03899914,0.03172441
1761620100731,-0.12165183,0.04670757,-0.06240712,0.01136858,-0.00323863,-0.00492128,0.99870961,0.00741182,0.03898084,0.03169661
1761620100743,-0.02987468,-0.03226698,-0.04854635,0.02786776,0.00495357,-0.00256701,0.99870780,0.00756927,0.03900883,0.03168210
1761620100754,-0.08140541,0.04344474,-0.02258894,0.01720894,0.00317699,-0.00123797,0.99870662,0.00766306,0.03902614,0.03167536
1761620100765,0.07895579,0.13720922,-0.08600043,0.01030748,0.00946171,-0.00889855,0.99870568,0.00772078,0.03907913,0.03162552
1761620100776,0.00026674,0.21076066,-0.39710645,0.03747659,0.01313416,-0.01250903,0.99870335,0.00793252,0.03915334,0.03155485
1761620100787,-0.08140541,0.00216821,0.03850064,0.02090300,0.00532079,-0.00626933,0.99870238,0.00804644,0.03918234,0.03152068
1761620100798,0.01813472,-0.20186375,0.08188524,0.00381086,0.00050601,-0.02965762,0.99870733,0.00806778,0.03918517,0.03135460
1761620100809,-0.04561580,-0.18941248,0.24708558,-0.00381871,0.00908382,-0.01662789,0.99870842,0.00804640,0.03923604,0.03126148
1761620100820,-0.03220491,-0.16403294,-0.01447839,0.00102050,-0.00514388,0.00306578,0.99870896,0.00805206,0.03920749,0.03127850
1761620100832,0.04712263,0.04431177,0.12838861,-0.01735482,0.01204354,-0.00676656,0.99870828,0.00795488,0.03927493,0.03124060
1761620100843,-0.01658622,-0.09526439,-0.03279233,-0.01243856,-0.00159004,0.00810120,0.99870776,0.00788584,0.03926611,0.03128557
1761620100854,-0.01251507,0.08099731,-0.04444194,-0.01204081,0.00034872,0.01617284,0.99870536,0.00781781,0.03926808,0.03137694
1761620100865,-0.00134560,-0.11067130,0.00891459,-0.00165586,0.00001505,0.00573887,0.99870441,0.00780854,0.03926816,0.03140908
1761620100876,0.18438345,-0.29128248,-0.23466042,-0.01150776,-0.00523498,0.00199465,0.99870571,0.00774467,0.03923911,0.03142015
1761620100888,0.12136816,-0.15642867,-0.04493088,-0.02860739,-0.00525792,0.00242748,0.99870766,0.00758447,0.03920967,0.03143374
1761620100899,-0.12083239,0.04923716,0.08322231,-0.04793015,-0.01177806,0.00361027,0.99871165,0.00731366,0.03914312,0.03145414
1761620100910,-0.11301996,0.20179560,0.19442038,-0.01988826,0.00603708,0.00180349,0.99871085,0.00720627,0.03917572,0.03146388
1761620100921,-0.01333040,0.14539312,0.06170687,-0.00459343,-0.00156259,0.01049660,0.99870953,0.00718077,0.03916705,0.03152214
1761620100932,-0.04479389,0.20060614,0.02852700,-0.00473716,0.00176703,0.00307551,0.99870879,0.00715425,0.03917694,0.03153936
1761620100943,0.06094967,0.07026988,-0.08425592,0.02052684,0.00089626,0.00251372,0.99870731,0.00727022,0.03918201,0.03155356
1761620100954,-0.05100269,0.13692211,-0.03832305,0.03292823,0.00089177,0.00506470,0.99870492,0.00744968,0.03918687,0.03158116
1761620100965,0.04919729,0.14006431,0.08177850,0.01442318,0.00256818,0.00055730,0.99870364,0.00753117,0.03920138,0.03158431
1761620100977,0.01493734,-0.10975442,-0.15310771,0.03087177,0.00062280,-0.00023970,0.99870222,0.00770560,0.03920490,0.03158296
1761620100988,-0.00167397,-0.04618455,0.08401234,0.01850861,-0.00005954,0.00346186,0.99870084,0.00780739,0.03920457,0.03160200
1761620100999,-0.06135895,0.00355787,0.06850108,0.00522397,-0.00224454,-0.01547369,0.99870381,0.00783639,0.03919211,0.03151612
1761620101010,0.10753274,-0.00081334,0.08948505,0.01129510,-0.00631177,-0.02273164,0.99870871,0.00789964,0.03915677,0.03138882
1761620101021,0.09429779,0.09391074,-0.10112382,0.03669797,-0.02052043,-0.02018038,0.99871499,0.00810148,0.03904390,0.03127783
1761620101033,0.05603727,0.07878574,0.06330878,0.04249645,-0.01969548,-0.01620388,0.99872027,0.00834371,0.03893164,0.03118547
1761620101043,0.08106877,0.01671852,-0.00091661,0.02450129,-0.02469584,-0.01314942,0.99872673,0.00847969,0.03879458,0.03111249
1761620101055,0.07410855,-0.12253200,-0.03643785,0.01938234,-0.03589575,-0.00092361,0.99873376,0.00858823,0.03859356,0.03110732
1761620101074,-0.05089110,-0.11489770,-0.03351365,0.00636367,-0.01923475,-0.00283529,0.99874135,0.00865060,0.03840506,0.03107953
1761620101077,6.47510427,-2.89619840,3.56792929,-0.02917304,-0.21230591,-0.03150348,0.99875352,0.00861267,0.03812906,0.03103858
1761620101086,-1.55413592,0.72664034,-0.91065482,0.00007381,-0.06243289,-0.02195838,0.99876727,0.00861300,0.03784811,0.03093976
1761620101105,-0.04065833,-0.00493886,-0.07903161,0.01382580,-0.03326242,-0.00637784,0.99877821,0.00872637,0.03757536,0.03088747
1761620101109,0.69211406,0.53066195,-0.32303403,0.05094670,-0.10436705,-0.02751976,0.99879328,0.00890469,0.03721008,0.03079115
1761620101122,-0.20914392,-0.10977535,0.00282969,0.01377720,-0.04337558,-0.01600873,0.99880585,0.00899217,0.03693464,0.03068949
1761620101153,-0.14965358,-0.04165450,0.01110368,0.00062925,-0.02139407,-0.00170245,0.99881878,0.00900193,0.03660303,0.03066310
1761620101156,23.36138108,-6.35855943,-0.60978677,-0.12666762,-0.50032979,-0.22617793,0.99885676,0.00881826,0.03587756,0.03033515
1761620101168,-5.30134058,1.56331520,0.25868841,-0.01368663,-0.05906014,-0.03302644,0.99887550,0.00873888,0.03553501,0.03014359
1761620101179,-0.07087354,0.20198958,0.01063103,0.02867398,-0.05836631,-0.02545176,0.99889046,0.00890519,0.03519648,0.02999597
1761620101191,-0.10995833,0.18470652,-0.06606789,0.03015558,-0.05966483,-0.04138304,0.99890865,0.00908461,0.03484148,0.02974974
1761620101203,0.15505533,-0.14460131,0.02754045,0.00652933,-0.03915229,-0.03694330,0.99892280,0.00912313,0.03461048,0.02953178
1761620101215,-0.00000000,-0.10814151,0.01712285,-0.02181908,-0.05105322,-0.03429789,0.99894032,0.00899440,0.03430926,0.02932942
1761620101226,0.08218969,-0.12424769,0.05821769,-0.00920381,-0.04788507,-0.04655385,0.99895850,0.00894010,0.03402674,0.02905475
1761620101238,0.11796192,0.04832701,-0.01290024,0.00664957,-0.05263068,-0.04240487,0.99897577,0.00897900,0.03371885,0.02880668
1761620101250,0.02180724,0.11375780,0.05409408,0.00672219,-0.06891483,-0.03918098,0.99899536,0.00901799,0.03331915,0.02857943
1761620101261,0.08914615,-0.02587672,-0.01167708,0.02686431,-0.06913628,-0.03541733,0.99901233,0.00916708,0.03293544,0.02838287
1761620101273,0.03911396,-0.26920575,-0.12963484,0.01865889,-0.06333478,-0.02991922,0.99902938,0.00928277,0.03254277,0.02819737
1761620101285,0.11829408,-0.06668582,-0.09203327,0.02868174,-0.06399862,-0.02183986,0.99904305,0.00944482,0.03218117,0.02807397
1761620101296,-0.12256495,-0.00548465,0.03393964,0.01914973,-0.06586571,-0.02981604,0.99905921,0.00955685,0.03179586,0.02789955
1761620101309,-0.23045834,0.26404879,0.09568391,0.00398604,-0.05143249,-0.03135322,0.99907534,0.00958296,0.03145898,0.02769419
1761620101322,0.06524311,-0.05644854,0.10892001,0.00965323,-0.05320221,-0.02823973,0.99908993,0.00964281,0.03112912,0.02751910
1761620101330,0.48975266,0.21648301,0.22582779,0.01602499,-0.07457194,-0.05537658,0.99910482,0.00970771,0.03082711,0.02729482
1761620101342,-0.40689758,-0.00371606,-0.10583993,0.02344055,-0.05593863,-0.04159716,0.99912040,0.00984718,0.03049427,0.02704732
1761620101445,-0.07454477,-0.01854187,-0.02220887,0.00191064,-0.00527762,-0.00207286,0.99913064,0.00994625,0.03022063,0.02693984
1761620101492,0.33452378,0.11495574,0.12953514,0.04865692,-0.06345580,-0.03886415,0.99918611,0.01107509,0.02874845,0.02603820
1761620101535,-0.30888333,-0.06177290,-0.07880510,0.01675962,-0.00602862,-0.01446798,0.99919379,0.01143374,0.02861944,0.02572858
1761620101582,-0.00813218,-0.03474897,0.01613166,0.01736782,-0.00900934,0.00736045,0.99919056,0.01184796,0.02840457,0.02590413
1761620101604,0.15556745,-0.25317358,0.21862130,-0.02417790,-0.03911363,0.02414791,0.99919868,0.01158926,0.02798605,0.02616251
1761620101637,-0.06082379,0.21722456,-0.11919748,0.04246607,-0.01658876,0.04067468,0.99918002,0.01229420,0.02771068,0.02683771
1761620101666,-0.04962409,-0.03956836,-0.05150884,0.00137845,-0.01193111,0.00266938,0.99918357,0.01231453,0.02753469,0.02687708
1761620101697,-0.06028668,-0.12374185,-0.09993471,-0.02854430,-0.00020197,0.00431813,0.99918718,0.01187637,0.02753159,0.02694337
1761620101709,0.29438907,-0.00030626,0.14623842,-0.00936816,0.03456054,0.03526638,0.99917692,0.01182298,0.02772859,0.02714439
1761620101745,-0.08299838,0.06833324,-0.05375498,0.01574531,0.00856002,-0.00027063,0.99916921,0.01211269,0.02788609,0.02713941
1761620101762,0.05127186,-0.05164144,-0.15763528,0.05070420,0.02775875,-0.01274890,0.99916032,0.01253860,0.02811927,0.02703231
1761620101770,-0.43082699,-0.12893030,-1.25277772,-0.04269550,0.10664366,-0.04616471,0.99915571,0.01238063,0.02851385,0.02686151
1761620101805,-0.02815259,0.12271669,0.23681422,0.01496355,0.00882336,0.00209899,0.99914703,0.01264249,0.02866826,0.02689824
1761620101806,-12.67354441,46.28683696,-76.50372545,0.69341178,0.12211558,0.11699025,0.99913373,0.01323189,0.02877206,0.02699768
1761620101835,0.79510735,-2.67481216,4.28286643,0.04687434,0.01201842,-0.00105103,0.99911997,0.01390688,0.02894512,0.02698254
1761620101869,-0.02233452,-0.11288995,0.11346868,0.00486294,0.01239660,-0.00513592,0.99911509,0.01398882,0.02915400,0.02689600
1761620101899,-0.06189501,-0.09453348,-0.26804314,0.00314089,0.01307760,0.02268551,0.99909936,0.01403625,0.02935147,0.02723856
1761620101932,-0.02397514,0.12754993,-0.12862863,0.04828796,0.02920449,0.03212429,0.99905923,0.01482817,0.02983043,0.02776539
1761620101957,0.03385982,-0.29821083,-0.36466745,-0.03019916,0.04931788,0.02187707,0.99903803,0.01444163,0.03046170,0.02804542
1761620101959,-6.34127193,-12.65402211,-183.77850453,-1.77845365,0.10788695,0.24592863,0.99904875,0.01310779,0.03054261,0.02822987
1761620101996,0.40203073,0.52809214,7.88204353,-0.01954818,0.02182099,0.02811563,0.99902624,0.01274712,0.03094521,0.02874860
1761620102008,0.43284841,0.01004639,-1.39309950,0.09917418,0.07015451,0.03543751,0.99899852,0.01335704,0.03137666,0.02896654
1761620102040,-0.06276758,0.06567880,0.63450269,-0.02151110,0.02072349,0.00463314,0.99899046,0.01301394,0.03170720,0.02904044
1761620102062,0.13406073,-0.10466412,0.07729634,-0.02517147,0.00100255,-0.03630632,0.99900501,0.01274083,0.03171808,0.02864652
1761620102065,23.65387668,-0.51893672,-21.25003441,0.01218653,-0.04254238,-0.13900300,0.99901327,0.01276033,0.03165001,0.02842411
1761620102097,-2.42594040,0.30471933,2.10912642,0.01946812,-0.00966241,-0.00282357,0.99901540,0.01306987,0.03149638,0.02837922
1761620102110,1.41501264,0.73207905,-1.41052037,0.12168273,-0.12373851,-0.03059974,0.99903570,0.01387298,0.03067970,0.02817726
1761620102130,-0.35733938,-0.47771632,0.67576625,0.01290724,-0.15155411,-0.02543120,0.99908718,0.01400399,0.02914143,0.02791913
1761620102140,0.41431944,1.55651209,-1.19947189,0.03378759,-0.28053726,0.00455011,0.99912337,0.01416955,0.02776680,0.02794143
1761620102155,-0.40365504,-0.81356133,0.15468593,0.09806883,-0.21399247,0.01310051,0.99915379,0.01491977,0.02612975,0.02804165
1761620102197,-0.32063223,-0.14383524,0.43142220,0.01697778,-0.05239075,0.00333502,0.99917446,0.01527376,0.02503741,0.02811118
1761620102199,63.73421875,1.92640928,-144.14927994,0.29453307,-2.07369754,0.53757731,0.99920720,0.01559774,0.02275634,0.02870252
1761620102230,-4.47328744,-0.24729993,9.83560358,-0.01188888,-0.09743841,-0.02026607,0.99925257,0.01541228,0.02123630,0.02838637
1761620102252,-0.08745551,0.14180753,-0.40610480,-0.02417962,-0.13049075,-0.02677000,0.99929443,0.01514630,0.01980090,0.02809190
1761620102264,-0.07818534,0.35703800,-1.13015170,0.03684539,-0.10868962,0.02220204,0.99929974,0.01535632,0.01918137,0.02821845
1761620102286,0.03519226,-0.15650527,0.50941305,0.03807665,-0.02288764,0.04238931,0.99928454,0.01578088,0.01892617,0.02869109
1761620102296,0.41616808,-0.80821523,-1.05086069,-0.03194296,0.02024260,0.10379806,0.99926965,0.01561637,0.01903042,0.02922565
1761620102309,-0.50048166,0.30150429,0.88270445,-0.08279301,0.03348189,-0.01743521,0.99927655,0.01511547,0.01923299,0.02912016
1761620102321,0.26054896,0.01903229,0.39082343,-0.08562646,0.03431921,0.01028388,0.99927842,0.01459743,0.01944062,0.02918238
1761620102341,-0.11241777,0.19257443,0.47897310,-0.04657021,0.02043976,-0.01551644,0.99928571,0.01412707,0.01964706,0.02902567
1761620102353,0.36958105,-0.31815596,-2.07194395,-0.06451911,0.06078663,-0.04532966,0.99929159,0.01374964,0.02000266,0.02876049
1761620102375,-0.07388200,0.08102127,1.00204493,-0.01191231,0.02492747,-0.02473731,0.99929572,0.01361622,0.02028185,0.02848343
1761620102413,-0.01700033,0.02214836,0.04176169,-0.00197939,0.01025388,-0.04528651,0.99931663,0.01357821,0.02047873,0.02761393
1761620102442,0.12071362,0.63569058,-1.58437548,0.21746743,0.03469201,-0.04593621,0.99927734,0.01667712,0.02097309,0.02695934
1761620102464,0.35651340,-0.33760797,-0.30711779,0.25800882,0.09075657,-0.00270621,0.99920285,0.01960552,0.02200317,0.02692862
1761620102485,0.24904306,-0.69742360,0.96742113,0.02567240,-0.00108991,0.03907830,0.99918663,0.01987509,0.02199173,0.02733894
1761620102507,0.34875839,-0.17918456,0.10600285,-0.06949399,-0.06200844,0.07865940,0.99919212,0.01913497,0.02133134,0.02817667
1761620102518,1.30020478,-1.04782481,-1.12564827,-0.10858580,-0.18288207,0.08353679,0.99921112,0.01854318,0.02033463,0.02863194
1761620102541,-0.53583574,0.41025180,1.23854627,-0.11285117,-0.13692557,0.04997740,0.99924868,0.01723975,0.01875314,0.02920918
1761620102551,2.24430963,-1.48129399,-0.21428675,-0.21926562,-0.23551782,0.11251089,0.99927288,0.01608861,0.01751667,0.02979986
1761620102563,-0.19908168,0.50252867,0.61348729,-0.23590383,-0.23747414,0.10940743,0.99929844,0.01469677,0.01611558,0.03044537
1761620102575,-0.03128905,1.13066589,-0.14067850,-0.18819678,-0.25685470,0.05196944,0.99932735,0.01361464,0.01463866,0.03074419
1761620102585,-0.30436222,0.07754204,0.43970272,-0.11308056,-0.28466499,-0.01208155,0.99935854,0.01300966,0.01311570,0.03067956
1761620102596,0.51627130,-0.46244967,0.20221001,-0.09898133,-0.32432569,-0.03056376,0.99939215,0.01247021,0.01134813,0.03051298
1761620102607,0.10168822,-0.23124561,0.69839641,-0.09733953,-0.33030657,-0.00772698,0.99941919,0.01192998,0.00951493,0.03047010
1761620102618,0.17028516,-0.15800963,0.73145218,-0.11785220,-0.33548820,0.04141056,0.99943574,0.01127590,0.00765297,0.03069993
1761620102629,0.13932422,0.62327030,0.17028516,-0.14821189,-0.37070860,0.07430146,0.99944557,0.01045332,0.00559554,0.03111230
1761620102640,0.60283050,0.95848572,-0.07568528,-0.11481719,-0.37700496,0.09247719,0.99944551,0.00983331,0.00355971,0.03161168
1761620102651,-0.79348965,0.39887647,-0.30903296,0.01709826,-0.37333792,0.07555544,0.99943636,0.00992906,0.00146902,0.03203479
1761620102663,0.16725793,-0.71239049,0.65762778,0.08429602,-0.36000142,0.04404924,0.99942455,0.01040112,-0.00054699,0.03228146
1761620102674,2.75441780,-0.67659186,-0.06523912,-0.00656532,-0.37862373,0.06374233,0.99941008,0.01036468,-0.00264835,0.03263523
1761620102685,3.19564824,0.02941682,-0.25760179,-0.14146304,-0.36249120,0.06301962,0.99939883,0.00956541,-0.00469643,0.03299129
1761620102697,-0.95332267,0.26815909,-0.24723913,-0.13483016,-0.31657520,0.02398358,0.99939075,0.00875643,-0.00659588,0.03313520
1761620102708,-1.87931665,0.75293804,0.58540604,-0.03472918,-0.30010940,0.02134984,0.99937567,0.00855848,-0.00830650,0.03325689
1761620102720,-3.54339797,1.70260020,0.98484302,0.04806068,-0.29801794,-0.03683111,0.99936502,0.00882521,-0.00996050,0.03305248
1761620102730,-0.26230865,-0.37481850,0.00303923,0.18394024,-0.32475444,-0.04786911,0.99934586,0.00979090,-0.01166546,0.03280116
1761620102741,-0.10605726,-1.48381422,0.21515139,0.21063414,-0.31156675,-0.06457098,0.99932439,0.01092832,-0.01334792,0.03245248
1761620102752,-0.19049578,-0.27774643,1.44806891,0.00661581,-0.29740557,-0.01370535,0.99930305,0.01096504,-0.01499853,0.03237642
1761620102764,-0.13138081,0.17302743,0.47737414,-0.12624539,-0.27641661,-0.01801474,0.99928830,0.01020757,-0.01665702,0.03226833
1761620102775,2.03493771,1.12625409,-0.61523887,-0.16635827,-0.33096452,-0.01725378,0.99926929,0.00933419,-0.01839459,0.03217775
1761620102786,2.36166420,0.88440097,-2.74210396,-0.03109669,-0.33204553,-0.00482409,0.99923549,0.00915849,-0.02027065,0.03215049
1761620102796,0.39599100,0.72818894,-0.86300049,0.09253324,-0.32324277,0.03066762,0.99918941,0.00964892,-0.02198383,0.03231303
1761620102809,-2.97291814,-0.55537695,0.63755543,0.19472500,-0.25525694,-0.00889077,0.99914273,0.01085621,-0.02356643,0.03225790
1761620102811,54.85165504,26.12023344,60.66983746,1.30027936,-1.37037098,0.05362626,0.99909276,0.01215649,-0.02493680,0.03231153
1761620102832,-7.24110579,-3.31552561,-4.93038628,0.07014414,-0.11771756,-0.01298352,0.99905577,0.01290353,-0.02619049,0.03217326
1761620102834,54.70643021,19.74794751,93.63581877,-0.01413178,-1.35424950,-0.25945645,0.99902786,0.01288940,-0.02754474,0.03191380
1761620102855,-5.32346503,-1.72824161,-8.84436169,-0.00873567,-0.12384262,-0.00463281,0.99899356,0.01279680,-0.02885747,0.03186469
1761620102889,-0.12999075,-0.01207920,-0.25046083,0.02259075,-0.07255155,-0.00585623,0.99895603,0.01317406,-0.03006908,0.03176689
1761620102898,15.25386095,2.57556367,0.29617473,0.39233183,-0.42218466,0.19866120,0.99883298,0.01509649,-0.03213779,0.03274033
1761620102933,-4.31761450,-0.76564512,-0.00795192,0.02910583,-0.04872749,-0.02755965,0.99881305,0.01560584,-0.03299052,0.03225804
1761620102966,-0.15606984,-0.03351741,0.05982309,-0.02395262,-0.02164639,-0.01935447,0.99881744,0.01522020,-0.03333902,0.03194643
1761620102988,-0.13508549,-0.34147478,0.48631587,0.04263456,0.18125067,0.00638924,0.99887393,0.01570197,-0.03129089,0.03201863
1761620103011,-0.18327285,-0.56678803,-0.78366525,-0.05814452,0.16367084,-0.05221568,0.99896011,0.01503622,-0.02941686,0.03142076
1761620103032,0.09909617,-0.42344530,0.96725792,-0.16880217,0.16524732,-0.07172981,0.99905594,0.01330600,-0.02772307,0.03068553
1761620103072,0.14118582,0.51719811,-0.38653092,-0.06810842,0.09556905,-0.03648603,0.99914760,0.01192680,-0.02578780,0.02994669
1761620103101,0.18391385,-0.29656504,0.72966377,-0.07240843,0.23579441,-0.09770775,0.99928254,0.01088412,-0.02239236,0.02853970
1761620103122,0.44980177,0.15974384,1.44578067,-0.08150853,0.23218912,-0.15531209,0.99939080,0.01000790,-0.01989633,0.02687009
1761620103159,-0.13828510,0.44460948,-1.21211546,0.05897955,0.06202947,-0.02448008,0.99941337,0.01109018,-0.01875809,0.02642088
1761620103193,0.21000144,0.18497107,0.16028569,0.22767985,0.05814371,-0.06842772,0.99941116,0.01492658,-0.01777837,0.02526788
1761620103225,0.14889970,-0.26650523,0.20997015,0.08384598,0.05817936,-0.05804349,0.99942924,0.01625554,-0.01685622,0.02434789
1761620103259,0.04541411,-0.19069427,0.02553824,0.02605413,0.05080817,-0.12914115,0.99948704,0.01669716,-0.01599503,0.02215894
1761620103269,6.15630753,-0.93239475,5.97609967,-0.09160987,0.06902418,-0.20895540,0.99952511,0.01620705,-0.01562575,0.02104103
1761620103289,-2.58419431,0.15463317,-3.05435892,0.02103668,-0.04576340,-0.08353205,0.99953147,0.01641110,-0.01606965,0.02023077
1761620103329,-0.30284794,0.30489703,-0.36881065,0.00080421,-0.07842942,-0.06709045,0.99953098,0.01642739,-0.01765785,0.01887219
1761620103337,3.56329499,0.03996669,3.20288565,0.02408290,-0.14917859,-0.08746867,0.99952507,0.01652613,-0.01826948,0.01851357
1761620103371,-1.27104673,-0.12629097,-1.12884636,0.00705154,-0.02668928,-0.00799044,0.99951717,0.01664636,-0.01872453,0.01837733
1761620103379,12.65370667,1.88691268,10.85507486,0.04065872,-0.20371470,-0.09065923,0.99950605,0.01680086,-0.01949865,0.01803283
1761620103400,-4.32504881,-0.51108501,-3.59992196,0.04744555,-0.04214645,-0.02980798,0.99949459,0.01729192,-0.01993486,0.01772431
1761620103416,0.10800555,0.12885874,0.11617285,0.05979530,-0.03268550,-0.01840864,0.99948313,0.01778822,-0.02020615,0.01757152
1761620103429,0.79765650,-0.20934331,0.92294977,0.06058117,-0.03432691,-0.02255941,0.99947394,0.01818806,-0.02043271,0.01742263
1761620103436,1.33791426,-0.08914111,2.90753531,0.04460333,-0.07319467,-0.03383868,0.99946831,0.01833302,-0.02067059,0.01731265
1761620103472,-0.90151455,-0.04660342,-1.16373128,0.00439829,-0.00383593,0.00205146,0.99946473,0.01841329,-0.02074060,0.01735009
1761620103479,15.73818576,3.54524152,13.79482010,0.28301816,-0.14302454,0.02847685,0.99943510,0.01936140,-0.02121973,0.01744549
1761620103518,-2.71490956,-0.61215177,-2.43111584,0.03053124,-0.00812431,-0.01853521,0.99942639,0.01994760,-0.02137572,0.01708961
1761620103535,1.59587200,0.03897733,1.53547938,-0.02157633,-0.07551450,-0.07866481,0.99942734,0.01975449,-0.02205157,0.01638556
1761620103551,-0.15921915,-0.00934440,-0.28257076,-0.00320074,-0.07620321,-0.04154484,0.99942005,0.01973033,-0.02262691,0.01607190
1761620103563,-0.45845679,-0.01541523,-0.76149720,0.02640133,-0.06673829,-0.01574664,0.99940864,0.01989797,-0.02305069,0.01597191
1761620103576,-0.30406197,0.30200889,-0.11794245,0.01381795,-0.08460990,-0.01043131,0.99939573,0.01998365,-0.02357528,0.01590724
1761620103588,-0.39695081,-0.09017645,-0.34112960,0.03784680,-0.08310552,-0.02916702,0.99938158,0.02021830,-0.02409053,0.01572640
1761620103615,-0.42947708,-0.08940546,-0.33621405,0.01299800,-0.03722245,-0.01030600,0.99936775,0.02039637,-0.02460048,0.01558521
1761620103624,5.22429300,0.08777086,3.77222813,0.06465027,-0.24959621,-0.03752064,0.99933934,0.02065820,-0.02561134,0.01543325
1761620103639,-2.10751334,-0.24379451,-1.63193639,0.01230690,-0.07725693,0.00472424,0.99932174,0.02075112,-0.02619463,0.01546892
1761620103673,-0.36402916,0.03644768,-0.19866817,0.00582133,-0.03752001,-0.00025116,0.99930243,0.02085212,-0.02684560,0.01546456
1761620103706,0.53142434,0.05301473,0.30023013,0.01544431,-0.12506766,-0.01245824,0.99924436,0.02110000,-0.02885294,0.01526460
1761620103718,1.61007356,-0.06439898,1.47651934,-0.01240025,-0.24448583,-0.01389131,0.99920272,0.02102374,-0.03035653,0.01517917
1761620103741,-1.26951380,-0.00983220,-0.94723998,0.01118770,-0.06920360,-0.00768981,0.99917685,0.02115240,-0.03115237,0.01509074
1761620103758,-0.07968441,-0.13331167,0.36261990,-0.00695279,-0.10072794,-0.02293222,0.99915424,0.02109399,-0.03199848,0.01489811
1761620103784,-0.31942915,0.04104872,-0.37043855,-0.00247117,-0.03912561,0.00448886,0.99913711,0.02106088,-0.03252277,0.01495826
1761620103805,0.01311627,0.02394425,0.06141275,-0.01093674,-0.03854552,0.00750618,0.99912554,0.02095042,-0.03291208,0.01503407
1761620103815,0.22000706,-0.04834189,1.11171637,-0.03933233,-0.09482772,0.07184913,0.99910741,0.02074196,-0.03341466,0.01541487
1761620103845,-0.19122967,0.07440862,-0.48474280,0.03070291,-0.03057326,-0.00279891,0.99908270,0.02120711,-0.03387785,0.01537247
1761620103856,0.03406791,1.10626937,1.26908245,0.18454626,-0.09173672,-0.01178599,0.99904475,0.02221288,-0.03437781,0.01530824
1761620103904,-0.00995275,-0.20558895,-0.34499051,0.03829480,-0.01075630,0.00332492,0.99901381,0.02313004,-0.03463543,0.01538787
1761620103941,0.01915575,0.13739245,0.22152551,0.06709939,-0.04429682,0.00266668,0.99895560,0.02435461,-0.03544384,0.01543653
1761620103974,-0.18517794,-0.18798277,0.06900678,0.02413500,-0.03424444,0.03645910,0.99891649,0.02474922,-0.03600374,0.01603264
1761620104017,0.06834642,-0.01323755,-0.12376095,0.03095620,-0.03135064,0.03049334,0.99886330,0.02543025,-0.03669346,0.01670349
1761620104052,-0.02678687,0.10883274,-0.01829647,0.07770578,-0.02304007,0.05326424,0.99879780,0.02677068,-0.03709090,0.01762230
1761620104094,0.01992753,-0.05376416,-0.05570255,0.00713365,0.02624018,0.04160513,0.99879829,0.02692120,-0.03653723,0.01850017
1761620104140,-0.00333726,0.14955146,-0.11805447,0.07054074,0.02769935,-0.03496731,0.99879088,0.02855069,-0.03589737,0.01769243
1761620104170,-0.34284770,0.07533928,0.02140403,0.07515418,0.04335361,0.01719866,0.99877662,0.02967424,-0.03524924,0.01794955
1761620104202,0.05658089,-0.17000408,-0.10131330,0.13280724,0.01436805,0.02240660,0.99871384,0.03176596,-0.03502294,0.01830245
1761620104246,-0.02378610,0.12777256,-0.12337935,0.15949422,0.02479721,0.03672929,0.99859827,0.03532268,-0.03446996,0.01912151
1761620104269,-0.44491633,-0.07960131,-0.59929462,0.17261561,-0.01257847,0.04174698,0.99851446,0.03724734,-0.03461021,0.01958699
1761620104299,0.15770244,-0.33242826,0.10880531,0.08505433,-0.01588997,0.03624848,0.99844512,0.03855718,-0.03485492,0.02014522
1761620104334,0.22533828,-0.00501238,0.14095152,0.05986056,-0.00910961,0.04625481,0.99838260,0.03959277,-0.03501251,0.02094543
1761620104347,-1.55646612,-0.50178242,-1.70062261,0.04311007,-0.01660576,0.07462530,0.99835776,0.03986867,-0.03511879,0.02142303
1761620104379,0.73526880,0.15208232,0.62237896,0.00151945,0.03673809,0.06014356,0.99835621,0.03989268,-0.03453833,0.02237330
1761620104381,-6.66175364,8.40116631,-74.10411448,0.17354117,0.73566590,0.87897021,0.99835308,0.04014431,-0.03347161,0.02364780
1761620104427,0.50625985,-0.45844324,4.72981619,0.03510024,0.06644064,0.02346691,0.99835737,0.04093758,-0.03197006,0.02417816
1761620104461,0.11037033,-0.09821267,-0.52540010,0.04794370,0.15478221,-0.00802224,0.99840757,0.04175022,-0.02934650,0.02404218
1761620104480,0.52168382,-0.39551402,-1.18254519,-0.06497596,0.11195090,-0.04469540,0.99847643,0.04111021,-0.02824378,0.02360193
1761620104501,-0.00483001,-0.00005000,0.68714014,0.02724610,0.05636043,0.01000242,0.99847869,0.04139629,-0.02765200,0.02370695
1761620104523,0.65391174,-0.46096965,0.49232282,-0.01831589,0.07185221,0.09386555,0.99848353,0.04119574,-0.02686521,0.02473478
1761620104534,1.62304819,-0.74492880,0.38335917,-0.17310691,0.14217099,0.09807020,0.99852835,0.04026961,-0.02610460,0.02525946
1761620104557,-0.89438892,0.78856230,0.42522280,-0.10499276,0.07173006,-0.01237198,0.99860300,0.03903070,-0.02525818,0.02511347
1761620104568,0.77510624,1.72468276,-2.28368143,-0.06349069,0.10013584,-0.17899001,0.99865092,0.03870690,-0.02474749,0.02420062
1761620104579,-0.01553975,-0.90216869,0.03604358,0.08926168,0.09298338,-0.13975211,0.99866305,0.03921569,-0.02421749,0.02340403
1761620104591,-0.39775174,-0.07276875,0.71323946,0.10816962,0.10603399,-0.20032012,0.99867936,0.03983766,-0.02360779,0.02225219
1761620104602,-0.01974326,-0.57223601,0.03662895,0.06593727,0.07465861,-0.12753269,0.99869011,0.04021021,-0.02318597,0.02153163
1761620104613,0.55195408,0.15754353,0.25922936,-0.00643118,0.09697311,-0.07298828,0.99871255,0.04017452,-0.02264777,0.02112655
1761620104624,0.05530852,-0.10760918,-0.09406486,0.00189297,0.08003939,-0.05803905,0.99872915,0.04018521,-0.02219555,0.02079863
1761620104635,0.23640245,-0.21608717,-0.00607344,-0.00496372,0.05646028,-0.05047453,0.99874272,0.04015816,-0.02188784,0.02052354
1761620104646,0.24528580,-0.06859425,-0.29251305,-0.02760528,0.03672929,-0.08045019,0.99876151,0.04001185,-0.02169317,0.02009715
1761620104657,0.32361397,0.04564270,-0.03134293,-0.02168755,0.00883482,-0.09104828,0.99877758,0.03989040,-0.02164370,0.01958728
1761620104668,-0.58926284,0.42240945,-0.00189840,-0.00835933,-0.03155454,-0.06781983,0.99878316,0.03984192,-0.02182671,0.01919393
1761620104679,0.45569994,-1.01450720,-0.25338614,0.03532231,-0.05077654,-0.04910414,0.99877473,0.04002912,-0.02209583,0.01893368
1761620104691,-0.24904990,-0.21057562,0.87596312,-0.04311125,-0.03931406,-0.03090705,0.99878324,0.03977261,-0.02232975,0.01874978
1761620104702,0.01639108,-0.07506381,0.10455821,-0.08335228,-0.08627077,-0.06250856,0.99879719,0.03931001,-0.02280855,0.01840286
1761620104713,-0.32373503,-0.15822618,0.48305108,-0.11793315,-0.08622649,-0.02007769,0.99881316,0.03867907,-0.02326986,0.01829544
1761620104724,-0.33253026,0.35913412,0.14759346,-0.14681775,-0.05727822,0.02165329,0.99883509,0.03784955,-0.02359349,0.01841778
1761620104735,0.16792208,0.37372488,0.31892664,-0.16685009,-0.02733486,0.03111719,0.99886197,0.03695690,-0.02373973,0.01858426
1761620104746,-0.15662344,-0.39399583,-0.27099090,-0.06653158,-0.01274990,0.02921477,0.99887117,0.03657434,-0.02381304,0.01875224
1761620104757,0.35685847,-0.10449212,0.01921597,-0.07727359,-0.03008178,0.02097692,0.99888059,0.03614547,-0.02397999,0.01886867
1761620104769,-0.23065402,0.52614007,0.57855269,-0.11198567,-0.02756573,0.02140254,0.99889724,0.03551275,-0.02413574,0.01898959
1761620104779,0.08083640,-0.18875641,0.10923631,-0.08183949,-0.01425439,0.05609819,0.99890497,0.03508310,-0.02421057,0.01928411
1761620104791,-0.45121183,0.79827783,-0.11348973,-0.05791455,0.00907042,-0.00382680,0.99891830,0.03475009,-0.02415842,0.01926210
1761620104802,-0.02412039,0.39335969,-0.05366468,-0.04321772,0.02337159,0.00973453,0.99892898,0.03450375,-0.02402520,0.01931759
1761620104812,0.36467031,0.00998924,0.59344288,0.01187502,0.03258940,0.00186170,0.99893074,0.03456609,-0.02385411,0.01932736
1761620104815,25.00580392,-21.55649010,-6.23795126,0.09608968,0.08844075,-0.21546163,0.99893496,0.03470542,-0.02372587,0.01901494
1761620104836,-4.18844155,3.04648875,1.27123019,-0.05807015,0.02469901,-0.04798527,0.99897154,0.03409568,-0.02346653,0.01851110
1761620104846,2.74429719,1.24242173,0.11235002,-0.09519506,0.07438779,-0.02910728,0.99899794,0.03363875,-0.02310947,0.01837138
1761620104858,-0.89740063,-0.27909232,-1.01801198,0.11427537,0.04122442,-0.10314438,0.99899167,0.03430726,-0.02286830,0.01776799
1761620104869,-0.59366342,0.59745361,-0.39456275,0.18635526,0.01913651,-0.18983465,0.99897592,0.03536017,-0.02276018,0.01669542
1761620104879,1.24430467,-0.68200386,-0.07570072,0.25537402,0.03034490,-0.14892579,0.99894521,0.03664980,-0.02260694,0.01594335
1761620104891,-0.64312690,-0.81996805,1.06026106,0.11247567,-0.00233938,-0.04140078,0.99892384,0.03732466,-0.02262098,0.01569494
1761620104902,0.78877532,-2.58351751,1.15684149,0.03789960,0.01893168,0.01233934,0.99891737,0.03753121,-0.02251780,0.01576219
1761620104914,-0.24764103,0.53806618,1.42770071,-0.19679863,0.03296966,0.07089449,0.99895901,0.03634058,-0.02231833,0.01619110
1761620104916,137.83352434,-27.76651452,129.72422758,-2.69553977,0.11750010,-0.09942762,0.99903368,0.03431892,-0.02223021,0.01611653
1761620104937,-10.58082620,3.31181255,-10.03114286,-0.10396392,0.00379174,-0.06925095,0.99908362,0.03321171,-0.02218983,0.01537901
1761620104976,-0.12670497,0.10246156,-0.23505757,0.00632251,-0.00081251,-0.04316968,0.99909179,0.03333531,-0.02220571,0.01453504
1761620105005,1.52849604,-0.27609967,0.63884935,0.24106600,-0.00337906,-0.10107408,0.99898819,0.03683077,-0.02225471,0.01306947
1761620105025,0.00164427,0.64983579,0.85407290,-0.05617604,-0.15200964,-0.17606929,0.99899521,0.03626901,-0.02377480,0.01130878
1761620105047,-0.67815489,-1.14876798,-0.96473615,0.13145350,-0.14982584,0.05186027,0.99889258,0.03774129,-0.02545285,0.01188961
1761620105069,-0.23951654,0.63624003,-0.00441658,-0.01212415,-0.18612791,0.03230301,0.99883955,0.03760914,-0.02748165,0.01224171
1761620105080,1.44204208,-0.03652002,-1.98529150,0.25329757,-0.29666916,0.04790304,0.99873950,0.03896428,-0.02906883,0.01249800
1761620105092,-0.48437705,-1.66300167,-0.13025513,0.26874036,-0.27931344,0.07485679,0.99861630,0.04061703,-0.03078660,0.01295836
1761620105103,-0.15955217,-1.71157591,1.15346871,0.10042381,-0.26451073,0.13330368,0.99854016,0.04115430,-0.03220174,0.01367154
1761620105114,-0.82336838,-0.80833125,0.35005022,-0.15116040,-0.18101405,0.19114407,0.99852612,0.04030024,-0.03322447,0.01475150
1761620105124,-0.40406809,1.74221528,0.24062900,-0.31972915,-0.15023290,0.07121709,0.99855907,0.03868561,-0.03398314,0.01511115
1761620105136,-0.78901679,1.95085580,-0.57357158,-0.25504859,-0.12203064,-0.02399560,0.99859220,0.03724459,-0.03467262,0.01497557
1761620105147,0.62293449,-0.17112451,-0.58141388,-0.12420742,-0.13853534,-0.01779178,0.99859213,0.03652418,-0.03547612,0.01487238
1761620105158,0.10055842,0.15099900,-0.54124890,-0.02003861,-0.14722354,-0.00615432,0.99856756,0.03641397,-0.03628585,0.01483853
1761620105169,0.82890877,-1.21571106,-0.70059679,0.05879202,-0.20910983,0.00393285,0.99851244,0.03674027,-0.03744641,0.01486036
1761620105181,-0.15866409,-1.41020768,0.63039227,-0.03534594,-0.20454907,-0.02015442,0.99847713,0.03653879,-0.03861234,0.01474548
1761620105192,0.22979482,-1.08656318,0.92563418,-0.23602790,-0.19567942,0.04442824,0.99847796,0.03526424,-0.03966901,0.01498539
1761620105203,0.09676857,-0.05542175,0.81472892,-0.38209937,-0.16477666,0.08953663,0.99850581,0.03318180,-0.04056704,0.01547337
1761620105214,-0.58420064,0.11152363,-0.30042549,-0.33897824,-0.12183097,0.06466780,0.99853369,0.03126657,-0.04125539,0.01583874
1761620105226,-0.18365394,1.22798023,-0.41694900,-0.28177847,-0.11565824,0.01279920,0.99855473,0.02960408,-0.04193777,0.01591426
1761620105236,0.57750461,0.12758106,-0.60748676,-0.18399644,-0.12731592,-0.02236011,0.99855647,0.02863810,-0.04260618,0.01579687
1761620105247,0.18548339,1.23332258,-0.20171903,-0.07605089,-0.13102466,-0.01188324,0.99853874,0.02822743,-0.04331371,0.01573270
1761620105259,-0.11030640,-1.22273649,0.31379269,0.00434314,-0.06186170,0.07651054,0.99851511,0.02825283,-0.04367560,0.01618028
1761620105269,0.01958693,-0.62756145,0.67067082,-0.14735244,-0.05660700,0.07241909,0.99851744,0.02747187,-0.04397562,0.01656410
1761620105281,-0.91686140,1.45415736,0.05254438,-0.20429029,-0.01268959,-0.02674233,0.99854812,0.02630741,-0.04404795,0.01641167
1761620105292,-0.17863405,0.46438518,-0.26937433,-0.17117218,-0.00369038,0.00651928,0.99857202,0.02532317,-0.04406917,0.01644916
1761620105303,0.16380033,0.05046209,-0.44411136,-0.10383073,0.05032760,-0.03749829,0.99860189,0.02475210,-0.04379237,0.01624292
1761620105314,0.01219000,0.39579990,-0.45348290,-0.05933997,0.06321937,-0.05480240,0.99862946,0.02443167,-0.04345098,0.01594699
1761620105325,-0.10303997,0.00976535,0.21641851,-0.01778243,0.05778474,-0.03868199,0.99864953,0.02433120,-0.04312450,0.01572843
1761620105337,-0.15709029,-0.09051486,0.17037638,0.00953851,0.04712868,-0.04061690,0.99866375,0.02438700,-0.04284880,0.01549082
1761620105348,-0.12115840,0.33411670,0.55925647,0.00474402,0.04323233,-0.02170577,0.99867544,0.02441380,-0.04260453,0.01536819
1761620105359,0.10598331,-0.54150902,-0.02784548,0.00706505,0.04718554,0.09637210,0.99867722,0.02445230,-0.04234737,0.01589341
1761620105370,0.19028536,0.79760684,0.34736631,-0.06002934,0.09248180,0.08503798,0.99869854,0.02413115,-0.04185260,0.01634837
1761620105381,-0.38487905,0.20755905,-0.08024029,-0.03974027,0.05966725,0.08923939,0.99870973,0.02390463,-0.04151249,0.01685703
1761620105384,36.77052902,-6.83187330,4.67301364,-0.06719031,0.34658640,0.36812906,0.99872083,0.02382736,-0.04111392,0.01728038
1761620105404,-4.49847610,0.74684090,-0.58877232,0.00108517,0.03551048,0.04904034,0.99872660,0.02383837,-0.04075349,0.01777814
1761620105414,1.67918261,-0.45018157,0.82114775,-0.00188144,0.06588337,0.06584759,0.99873453,0.02382868,-0.04041419,0.01811725
1761620105426,-0.09768312,-0.29255388,-0.03020723,-0.03868312,0.02216874,0.03598075,0.99874141,0.02359852,-0.04028228,0.01833134
1761620105428,61.33943639,-22.18905534,32.11988322,-0.47582079,0.00230531,0.01802932,0.99875284,0.02309891,-0.04027986,0.01835027
1761620105449,-6.69103198,2.66056882,-3.36927341,-0.05209625,0.00790431,0.01073017,0.99876635,0.02256232,-0.04019845,0.01846079
1761620105450,182.59519641,-52.36493088,58.19985267,-0.08584683,-0.16112902,-0.12955420,0.99876472,0.02249793,-0.04031929,0.01836363
1761620105474,-11.75550740,3.31997961,-3.85384008,0.01023586,-0.01887064,-0.04021219,0.99876161,0.02261820,-0.04054102,0.01789113
1761620105493,0.47858966,-0.26466126,0.24957901,0.01104755,-0.04253905,-0.03699985,0.99874844,0.02272757,-0.04096216,0.01752483
1761620105504,6.23642617,-2.07046816,3.33821753,-0.11067360,-0.19581600,-0.14842628,0.99873282,0.02216867,-0.04195103,0.01677528
1761620105515,-4.56397957,2.08334033,-2.02591064,-0.08228900,-0.10894824,-0.06954255,0.99872368,0.02171197,-0.04255569,0.01638932
1761620105527,-0.24601146,0.24254154,-0.49287475,-0.02857508,-0.07967038,-0.06776014,0.99871324,0.02153623,-0.04304567,0.01597259
1761620105538,0.08901360,0.49778623,0.35977416,-0.02700311,-0.09836430,-0.06047265,0.99869837,0.02138906,-0.04358175,0.01564302
1761620105548,0.10742491,-0.55261730,0.06794949,0.00038195,-0.11429213,-0.05193763,0.99867641,0.02139105,-0.04417607,0.01537294
1761620105559,-0.07032818,0.03501370,-0.17885183,-0.00090335,-0.09471150,-0.03447800,0.99865624,0.02138608,-0.04469699,0.01518331
1761620105571,-0.43481232,-0.05728066,0.21115964,0.00901234,-0.09513556,-0.00479401,0.99863136,0.02143700,-0.04523450,0.01515623
1761620105582,-0.09459560,-0.01990488,-0.06341134,-0.00808633,-0.08196215,0.02139363,0.99860960,0.02139172,-0.04569349,0.01527603
1761620105585,22.69766162,-1.14544361,15.16060106,-0.00910436,-0.27192612,0.18039495,0.99858546,0.02137715,-0.04612857,0.01556466
1761620105624,-2.48776779,0.21642050,-1.62067971,0.00334193,-0.01494222,0.01407709,0.99856614,0.02144265,-0.04642144,0.01584058
1761620105673,0.22527101,-0.09228965,0.08575144,0.03986557,-0.01242193,0.04764106,0.99851141,0.02241737,-0.04672515,0.01700540
1761620105684,7.81958904,-3.18062406,5.94909581,0.07740121,0.17569674,0.34045906,0.99851291,0.02281985,-0.04581153,0.01877579
1761620105715,-2.42286634,0.81814588,-1.65002613,-0.02860589,0.06630149,0.03926150,0.99855907,0.02236502,-0.04475734,0.01940004
1761620105748,-0.19648094,0.19526887,-0.20991955,-0.00517965,0.03118897,0.00860584,0.99858122,0.02227929,-0.04424116,0.01954247
1761620105760,0.95085744,-0.74778577,0.99839112,0.00720616,0.00640739,0.01452935,0.99858031,0.02231965,-0.04420528,0.01962384
1761620105782,-0.48276721,0.22194640,-0.27654578,0.02226076,-0.00512492,-0.00128789,0.99857245,0.02256897,-0.04426268,0.01960941
1761620105793,0.71921536,0.14248273,0.99479778,-0.01658250,-0.00666180,0.00786124,0.99857204,0.02247942,-0.04429865,0.01965186
1761620105805,-0.31563102,0.33072055,-0.60599319,-0.00932302,-0.03563746,0.02099516,0.99856094,0.02242162,-0.04451960,0.01978203
1761620105816,0.19886677,0.12631518,0.13161077,-0.03293749,-0.05544807,0.04671236,0.99854649,0.02224376,-0.04481902,0.02003428
1761620105827,-0.00000000,-0.03200224,0.00817622,-0.05202779,-0.01023358,0.05117269,0.99854465,0.02196281,-0.04487429,0.02031061
1761620105838,-0.17888542,-0.67811208,0.35852337,-0.02248035,-0.01235574,0.06171189,0.99853727,0.02183804,-0.04494286,0.02065311
1761620105849,-0.45585505,0.24615318,0.00901769,-0.02829817,-0.02858747,0.03324636,0.99852978,0.02168240,-0.04510009,0.02083597
1761620105860,0.18679091,-0.03352751,-0.05590385,-0.01825058,-0.00558939,0.05025129,0.99852457,0.02157837,-0.04513195,0.02112240
1761620105871,0.29168777,0.33610402,0.13006118,-0.01928386,-0.02370872,0.07155926,0.99851289,0.02147521,-0.04525879,0.02150524
1761620105883,-0.35575890,-0.03858915,-0.21997515,0.04284857,-0.01515245,0.06314247,0.99849482,0.02173444,-0.04535046,0.02188725
1761620105894,-0.10174437,-0.13121083,-0.06305285,0.06529948,0.02299207,0.07254212,0.99848384,0.02209359,-0.04522401,0.02228623
1761620105906,0.20125658,-0.44203620,0.02950015,0.05398881,0.03736894,0.08002795,0.99847626,0.02240402,-0.04500914,0.02274640
1761620105916,-0.30914278,0.77758374,0.68170038,-0.01808931,0.05508082,0.06051223,0.99848424,0.02230724,-0.04471445,0.02307014
1761620105926,-0.27032977,-0.67126195,-0.13468434,-0.01569043,0.04682274,0.05212201,0.99849045,0.02222801,-0.04447800,0.02333335
1761620105938,-0.02538369,0.10268206,-0.30398352,-0.04742934,0.03326147,0.03126153,0.99850095,0.02195055,-0.04428342,0.02351623
1761620105950,0.38683584,0.63360581,-0.14238887,-0.04905685,0.03669111,0.00691845,0.99851613,0.02165621,-0.04406327,0.02355774
1761620105960,-0.13828532,0.29856223,-0.35698738,0.02410867,0.02828059,-0.02562035,0.99852295,0.02178037,-0.04391763,0.02342580
1761620105990,-0.25262290,-0.08317516,-0.43184961,0.02837389,0.01715213,0.01350758,0.99852014,0.02219888,-0.04366463,0.02362503
1761620106018,0.38847344,-0.27925082,0.47079774,0.05320944,0.03518831,-0.00438246,0.99852609,0.02293317,-0.04317904,0.02356456
1761620106028,2.65975996,-0.73949245,3.41854873,-0.13914267,0.02736774,-0.02705073,0.99855288,0.02218180,-0.04303125,0.02341848
1761620106050,-1.19889831,0.65709814,-1.82379253,0.02355287,-0.01510602,-0.02970181,0.99854765,0.02243499,-0.04319364,0.02309919
1761620106061,0.15071056,-0.89494835,0.69923499,0.09914363,-0.10422472,-0.04954594,0.99851741,0.02296541,-0.04375124,0.02283412
1761620106083,-0.28610976,0.12805211,-0.28477557,-0.01894033,-0.02682226,0.01507645,0.99850491,0.02274854,-0.04405836,0.02300674
1761620106094,0.41741533,0.37133082,0.80341888,-0.07890349,-0.00544861,0.02757093,0.99850970,0.02233036,-0.04408723,0.02315287
1761620106106,-0.62153774,0.19714068,-0.98909972,-0.04532921,0.01832879,-0.01806071,0.99852310,0.02205838,-0.04397726,0.02304450
1761620106117,-0.31920504,0.66113640,-0.14679491,-0.03619255,0.02623146,-0.08785657,0.99854485,0.02185932,-0.04383299,0.02256129
1761620106127,0.17538322,-0.59692066,-0.01490918,-0.00345190,0.02046028,-0.05248389,0.99855604,0.02184137,-0.04372659,0.02228838
1761620106138,-0.57566037,-0.27090415,0.21113610,0.01914081,0.01196442,-0.01591519,0.99855856,0.02194665,-0.04366079,0.02220084
1761620106150,0.29326172,0.05426839,0.18505642,0.01984621,0.02858889,0.01944591,0.99856071,0.02205977,-0.04349783,0.02231169
1761620106161,-0.17782009,-0.38739238,-0.08538406,0.05679523,0.06063524,0.07207128,0.99855930,0.02237214,-0.04316434,0.02270808
1761620106172,0.18771593,0.05259964,0.17762516,0.03993939,0.09385015,0.05603697,0.99856966,0.02259580,-0.04263878,0.02302188
1761620106184,-0.46060470,0.26226341,-0.17232927,0.03456874,0.10164119,0.05980979,0.99858225,0.02279976,-0.04203910,0.02337476
1761620106194,0.66551005,0.16624072,0.39574080,0.05818780,0.13127733,0.02471035,0.99860026,0.02309361,-0.04137615,0.02349955
1761620106205,-0.74210416,0.00610875,-0.70831931,0.08613091,0.09850991,-0.01834420,0.99861434,0.02358455,-0.04081464,0.02339499
1761620106216,0.16150378,-0.09922873,-0.46072826,0.06894724,0.10274774,-0.02739656,0.99863177,0.02396376,-0.04024953,0.02324431
1761620106228,-0.01990508,-0.30843797,0.03642352,0.04168661,0.08576692,0.00556094,0.99864466,0.02419721,-0.03976923,0.02327545
1761620106239,0.00221150,-0.01184576,0.19271111,-0.00560492,0.08788710,0.02116481,0.99866197,0.02416610,-0.03928146,0.02339291
1761620106250,-0.05158245,-0.11044151,0.19119287,0.01546107,0.08041422,0.01754820,0.99867553,0.02425500,-0.03881908,0.02349381
1761620106261,0.14065826,-0.23977310,0.12561460,-0.01732424,0.07483484,-0.00270230,0.99869326,0.02416405,-0.03842619,0.02347963
1761620106272,-0.05971474,0.03461278,-0.02707068,-0.07350599,0.04935513,0.00802375,0.99871354,0.02373404,-0.03813747,0.02352657
1761620106284,0.19192748,-0.13842698,0.04625612,-0.06280953,0.05496040,-0.02374160,0.99873728,0.02337289,-0.03782144,0.02339005
1761620106295,0.02596523,-0.16502503,0.05681639,-0.04239724,0.00634383,-0.03808034,0.99874881,0.02314182,-0.03778687,0.02318251
1761620106306,0.11121770,-0.05378429,-0.20466212,-0.06765513,-0.01747890,-0.03865570,0.99875898,0.02275619,-0.03788650,0.02296218
1761620106317,0.08160073,-0.29948111,-0.54603994,-0.07069762,-0.02873948,-0.02761640,0.99876502,0.02238149,-0.03803882,0.02281581
1761620106328,0.61391777,0.72999438,0.26189117,-0.11176475,-0.07600667,-0.00575376,0.99876324,0.02174443,-0.03847206,0.02278301
1761620106339,-0.84085969,0.21390632,-0.33737666,-0.10852860,-0.06713276,-0.00560192,0.99876249,0.02115838,-0.03883457,0.02275276
1761620106351,0.09216305,-0.24545505,0.69546313,-0.05660374,-0.03608279,-0.02033916,0.99876395,0.02082158,-0.03904927,0.02263175
1761620106362,0.25380096,0.76518275,-0.21889670,0.02405423,-0.01829868,0.01079762,0.99875589,0.02095388,-0.03914991,0.02269113
1761620106372,0.08425939,0.02189915,-0.10956807,0.00721053,-0.08345838,0.00910588,0.99873656,0.02099210,-0.03959224,0.02273939
1761620106384,0.07085023,-0.18102433,-0.07775123,-0.01130043,-0.09618182,-0.02351527,0.99871860,0.02092599,-0.04015490,0.02260183
1761620106395,0.09682457,-0.03803568,-0.09949437,0.02613376,-0.12066383,-0.00190512,0.99868973,0.02106581,-0.04080045,0.02259164
1761620106407,-0.04674865,0.13389725,-0.40364655,0.11042833,-0.10142959,0.00528535,0.99865077,0.02171181,-0.04139382,0.02262256
1761620106417,-0.26014338,0.15944074,-0.36126995,0.10122272,-0.11304687,0.01448215,0.99861221,0.02224829,-0.04199297,0.02269931
1761620106419,15.14182901,-7.10040331,0.49033255,0.05258915,-0.52186702,0.06874758,0.99858739,0.02230088,-0.04251483,0.02276806
1761620106439,-1.78836850,0.51533182,-0.07585212,-0.00665670,-0.03710951,0.00023253,0.99857266,0.02223298,-0.04289335,0.02277043
1761620106441,10.24587365,-24.25566438,6.40172856,-0.28692311,-0.28513501,0.09695443,0.99856492,0.02196041,-0.04316423,0.02286254
1761620106461,-1.07648705,2.32705063,-0.56096908,-0.00400267,0.00798653,0.01532669,0.99856572,0.02192078,-0.04308516,0.02301427
1761620106464,-3.36001618,-4.28449024,-0.98604144,0.14660016,0.02131551,0.09301556,0.99856014,0.02210403,-0.04305852,0.02313054
1761620106485,0.28303389,0.69758265,0.05572505,0.02087439,0.01940867,-0.00023206,0.99856405,0.02232112,-0.04285667,0.02312813
1761620106486,-25.96520970,21.46696942,-7.59679028,0.17301389,0.32492674,-0.02886212,0.99857207,0.02245088,-0.04261297,0.02310648
1761620106497,2.83908996,-2.55085769,0.61516935,0.05715901,0.04524643,0.00664770,0.99857477,0.02277383,-0.04235733,0.02314404
1761620106508,-0.52384162,-0.01041472,-0.55122455,0.05285411,0.06123335,0.02041813,0.99857980,0.02306982,-0.04201442,0.02325838
1761620106519,-0.16498117,-0.19356912,0.04049277,0.03339712,0.06968265,0.06906148,0.99858265,0.02325183,-0.04163465,0.02363477
1761620106531,0.06933044,-0.43039884,0.22288270,0.01801255,0.05105344,0.08394651,0.99858094,0.02335270,-0.04134875,0.02410487
1761620106541,0.12140665,0.10078848,0.71414201,-0.04990944,0.05184471,0.07172813,0.99858941,0.02308069,-0.04106620,0.02449579
1761620106553,0.12512958,-0.35830079,-0.08300123,0.01495794,0.06393147,0.11435633,0.99858621,0.02316446,-0.04070818,0.02513618
1761620106564,0.01520527,0.15181508,0.06082107,-0.04921732,0.06171137,0.11220986,0.99859058,0.02288884,-0.04036260,0.02576456
1761620106575,0.06450176,0.20138268,-0.06951857,-0.01063960,0.06022797,0.10941696,0.99858956,0.02283085,-0.04003436,0.02636088
1761620106586,-0.09318457,0.08216097,-0.17182649,0.01581717,0.05622588,0.09361016,0.99858613,0.02291943,-0.03971949,0.02688510
1761620106597,0.21287373,-0.19719330,-0.14445003,-0.01504500,0.06187676,0.06024581,0.99859264,0.02283518,-0.03937298,0.02722247
1761620106608,0.19809208,-0.46161873,-0.19275277,-0.03387150,0.06449890,0.02311723,0.99860720,0.02265058,-0.03902146,0.02734846
1761620106619,-0.14117052,-0.04098851,-0.03135150,-0.02461961,0.06301412,0.03279723,0.99861889,0.02251394,-0.03867173,0.02753049
1761620106630,0.06876616,0.09382681,0.13883367,-0.04217456,0.09052028,0.06194383,0.99863407,0.02227776,-0.03816482,0.02787737
1761620106642,-0.12723411,0.05196497,0.15757557,-0.00342634,0.10303063,0.05717835,0.99864751,0.02225840,-0.03758270,0.02820043
1761620106653,0.06821425,-0.11176634,-0.04913798,-0.00960078,0.10903863,0.06225972,0.99866134,0.02220560,-0.03698299,0.02854286
1761620106664,0.14271947,-0.08001819,0.08144244,-0.05453890,0.10465097,0.02637211,0.99868560,0.02189746,-0.03639171,0.02869186
1761620106675,0.02995536,-0.20081088,-0.07651640,-0.04746057,0.08488204,0.02363372,0.99870411,0.02164117,-0.03593334,0.02881948
1761620106686,0.26862638,0.07393649,0.10136844,-0.07592705,0.06192438,0.03306975,0.99872028,0.02121598,-0.03558657,0.02900467
1761620106715,0.11438489,0.23818463,0.05483979,-0.02826747,0.02601776,0.00145420,0.99874137,0.02081175,-0.03521451,0.02902547
1761620106742,-0.07168544,-0.12896501,-0.08803788,-0.04004940,0.02313771,0.01273133,0.99875845,0.02027108,-0.03490215,0.02919734
1761620106763,0.16569813,-0.21017550,-0.09781251,-0.05618554,0.01514559,0.00799142,0.99877348,0.01967552,-0.03474161,0.02928205
1761620106773,0.48547435,0.15523529,-0.79350064,-0.02877358,-0.01337581,0.00997670,0.99877249,0.01952877,-0.03480983,0.02933293
1761620106785,-0.15175546,0.74260399,0.35850550,-0.01140176,-0.00513234,0.01172449,0.99877071,0.01946150,-0.03484011,0.02940211
1761620106796,-0.13727335,0.39204673,-0.15186460,-0.01205948,-0.00942168,-0.00603380,0.99877116,0.01939578,-0.03489146,0.02936922
1761620106806,0.16487460,-0.14897516,-0.69677898,0.00075467,0.00630272,0.00728012,0.99877112,0.01939985,-0.03485742,0.02940853
1761620106817,-0.21046807,0.11333799,-0.07472930,0.02695462,-0.01447871,-0.00686520,0.99876655,0.01954810,-0.03493706,0.02937077
1761620106828,-0.00084439,0.05666643,0.02008943,0.04095857,-0.00505268,-0.01401002,0.99876338,0.01977542,-0.03496510,0.02929302
1761620106841,-0.15390956,0.16170753,0.70030475,0.03189792,-0.00891701,-0.01170129,0.99875957,0.01997638,-0.03502128,0.02921930
1761620106852,0.03527957,0.09052607,0.00118850,0.05677965,-0.00862122,0.00372412,0.99875102,0.02028867,-0.03506869,0.02923978
1761620106863,-0.01307536,0.00835556,0.11067361,0.03066955,0.00475276,0.01815387,0.99874537,0.02046349,-0.03504160,0.02934326
1761620106875,-0.08213396,-0.05878313,-0.03455860,0.02497171,0.00329635,-0.00756447,0.99874434,0.02060957,-0.03502232,0.02929901
1761620106886,-0.04755795,-0.12611055,-0.16705798,0.03741307,0.01270020,-0.00803498,0.99874383,0.02080973,-0.03495437,0.02925602
1761620106897,-0.05229475,-0.16975255,-0.04398159,0.03925819,0.02243165,-0.00358267,0.99874420,0.02102958,-0.03482875,0.02923596
1761620106908,-0.22518874,-0.13281957,-0.19774386,0.05397940,0.02461195,-0.00419014,0.99874329,0.02132646,-0.03469339,0.02921291
1761620106919,-0.12037056,-0.33688806,-0.44637415,0.05005938,0.03617791,-0.00948952,0.99874570,0.02159178,-0.03450165,0.02916262
1761620106929,0.04602510,0.06189850,0.01281195,0.01699469,0.03789790,0.00496043,0.99874986,0.02168100,-0.03430268,0.02918866
1761620106941,0.06743141,0.19393254,0.37745229,0.00689620,0.04151785,0.02076048,0.99875361,0.02171996,-0.03406811,0.02930596
1761620106952,0.13611413,0.10410635,0.18754657,0.02838077,0.03941185,0.02029992,0.99875431,0.02188173,-0.03384346,0.02942167
1761620106963,-0.04369452,0.01016204,-0.22331217,0.02815167,0.04604190,-0.01426923,0.99876177,0.02203657,-0.03359023,0.02934319
1761620106974,0.02748495,-0.13449779,0.04302862,-0.00131065,0.05539612,-0.00322796,0.99877304,0.02202910,-0.03327447,0.02932479
1761620106986,0.05577043,-0.06843042,0.06117319,-0.01696700,0.03688015,-0.00151165,0.99878289,0.02192729,-0.03305319,0.02931572
1761620106998,0.07559844,-0.00860264,-0.11587823,0.00190910,0.02375468,-0.01411226,0.99878960,0.02193837,-0.03291541,0.02923387
1761620107020,-0.03973698,-0.04184163,-0.09630457,0.00535496,0.00878390,-0.04992143,0.99880716,0.02199647,-0.03282011,0.02869222
1761620107030,0.05152628,0.00251021,-0.42461790,0.00425139,0.01855987,-0.01886271,0.99881250,0.02201794,-0.03272638,0.02859696
1761620107041,-0.04338785,0.27422416,0.16118274,-0.01600861,-0.00314768,0.00471745,0.99881313,0.02192989,-0.03274369,0.02862291
1761620107052,0.11349420,-0.10605001,0.10871250,-0.01427580,0.00679545,0.01032618,0.99881453,0.02184638,-0.03270394,0.02868332
1761620107063,0.04825023,-0.25206701,-0.06150368,-0.05934800,-0.00185158,0.03077324,0.99881629,0.02154074,-0.03271347,0.02884180
1761620107074,-0.06672602,-0.16876531,0.35865238,-0.11880052,-0.02534207,0.05764872,0.99881638,0.02087545,-0.03285539,0.02916463
1761620107086,-0.05968537,-0.03804675,0.17526461,-0.08383190,-0.03755660,-0.00257432,0.99881973,0.02038084,-0.03307697,0.02914944
1761620107097,-0.00476171,0.11656682,-0.01149613,-0.05852172,-0.03366820,-0.00057130,0.99882018,0.02006190,-0.03326046,0.02914633
1761620107108,-0.06421509,0.20713128,-0.26087379,-0.04089669,-0.03675830,0.03407435,0.99881251,0.01983901,-0.03346080,0.02933203
1761620107119,-0.13841019,0.03537821,-0.32286576,-0.00254512,-0.01837713,0.03654106,0.99880322,0.01982463,-0.03356463,0.02953849
1761620107130,0.06626129,0.13454802,-0.15941071,0.02756488,0.00185842,0.02177413,0.99879700,0.01997624,-0.03355441,0.02965825
1761620107141,0.02512189,-0.02752321,0.09542922,0.00429498,-0.00965282,0.03299984,0.99878912,0.02000051,-0.03360895,0.02984470
1761620107143,-4.46391840,-4.14702488,-31.58309455,-0.08769332,0.01246276,0.14663931,0.99878668,0.01990404,-0.03359524,0.03000600
1761620107164,0.59247627,0.36188616,3.96080600,-0.01509425,-0.00010135,-0.00509237,0.99879130,0.01974857,-0.03359628,0.02995355
1761620107174,-0.07805821,-0.37887161,-0.86011520,-0.00834857,0.00555955,0.00740708,0.99879196,0.01970641,-0.03356820,0.02999096
1761620107186,0.01476117,0.12167133,0.23055705,-0.03951609,-0.00396856,-0.00339064,0.99879631,0.01947524,-0.03359142,0.02997112
1761620107197,-0.03702417,0.19414499,-0.14203238,-0.03847357,0.01187911,-0.00581278,0.99880376,0.01925787,-0.03352430,0.02993828
1761620107208,-0.03380045,0.13989101,-0.33278417,-0.00092136,0.01606493,-0.00449969,0.99880742,0.01925299,-0.03343916,0.02991443
1761620107210,-7.66613198,3.35251721,-32.86221491,-0.17617652,0.02942941,-0.18969454,0.99881945,0.01904157,-0.03340384,0.02968680
1761620107230,0.94184963,-0.31323375,4.29045737,-0.03214625,0.00544023,-0.02133354,0.99883395,0.01871368,-0.03334835,0.02946919
1761620107232,-4.10249339,-5.51753108,-52.55477921,-0.22473710,-0.09834744,-0.05489137,0.99883634,0.01850018,-0.03344178,0.02941705
1761620107254,0.47352250,0.41319619,4.84606724,-0.02392726,-0.00612916,-0.00769325,0.99884122,0.01824655,-0.03350675,0.02933550
1761620107263,0.06081460,0.08723647,-1.03124258,-0.03696674,-0.02373677,-0.00365863,0.99884113,0.01806726,-0.03362188,0.02931775
1761620107274,0.04349412,0.05751210,0.09153995,0.00538554,-0.02997907,0.00560634,0.99883426,0.01809635,-0.03378376,0.02934803
1761620107286,0.12937265,0.13965132,0.12176250,-0.00447949,-0.03990987,-0.00757053,0.99882805,0.01806992,-0.03401923,0.02930336
1761620107298,-0.02115451,-0.14102633,-0.10000315,0.03302753,-0.05800113,-0.02000712,0.99881575,0.01827304,-0.03437594,0.02918032
1761620107308,0.05349880,-0.02800510,-0.42333836,-0.00508403,-0.07894016,-0.00081902,0.99880267,0.01824762,-0.03477064,0.02917622
1761620107319,0.09082613,-0.26703489,-0.12975161,0.03448230,-0.06937903,0.02226949,0.99878318,0.01842865,-0.03513488,0.02929314
1761620107330,-0.00283494,-0.12240793,0.23226271,0.00487026,-0.08929470,0.01276940,0.99876213,0.01845690,-0.03565279,0.02936720
1761620107342,0.06452568,0.14233259,0.25962096,0.00843512,-0.08672402,-0.00320174,0.99874401,0.01850498,-0.03614712,0.02934895
1761620107353,0.05744069,0.13307348,0.09868799,0.00509899,-0.09906259,0.02469324,0.99871940,0.01853328,-0.03669691,0.02948600
1761620107364,0.00426033,0.18760086,-0.00106508,-0.00587485,-0.09163320,-0.00837679,0.99870271,0.01850096,-0.03720090,0.02943993
1761620107375,0.01363052,0.00687856,-0.09503500,0.02087742,-0.11342247,-0.00220204,0.99867819,0.01861266,-0.03780771,0.02942815
1761620107386,-0.09704016,0.02665994,0.12104416,0.02894962,-0.08678539,-0.00447887,0.99865626,0.01878346,-0.03831974,0.02940172
1761620107398,-0.01931121,-0.05085378,0.00880004,-0.00107639,-0.09187939,-0.01099697,0.99863782,0.01877727,-0.03884805,0.02933849
1761620107399,15.47801796,0.38300939,-46.39531578,-0.03679487,-0.53675291,0.00166645,0.99862051,0.01874600,-0.03930429,0.02933990
1761620107420,-1.32414426,-0.04239860,4.18800170,-0.00326389,-0.05233754,-0.00446742,0.99860094,0.01871205,-0.03984860,0.02929344
1761620107427,0.98435869,-0.02613321,-1.84040972,-0.00406882,-0.11264420,0.01219388,0.99858511,0.01869862,-0.04022032,0.02933368
1761620107466,-0.21904892,-0.01542816,0.39676153,0.00222256,-0.01451997,0.00395504,0.99857055,0.01874208,-0.04050419,0.02941100
1761620107477,-0.60763884,0.23535351,-3.61347790,0.02119917,-0.14216228,0.00995009,0.99853603,0.01885443,-0.04125765,0.02946374
1761620107499,0.10862385,-0.05695688,1.33513796,0.01155084,-0.02432319,0.00206744,0.99852167,0.01898322,-0.04152885,0.02948679
1761620107510,-0.08807882,-0.41727888,-0.10970631,0.01052342,-0.02867075,0.04476631,0.99850710,0.01903952,-0.04168224,0.02972629
1761620107531,0.08778647,0.05674230,0.30510436,-0.00253983,-0.01311316,0.01446349,0.99849699,0.01901197,-0.04182452,0.02988322
1761620107542,-0.43480019,0.23560620,-0.33295603,0.04514261,-0.00162044,0.01261580,0.99849024,0.01924445,-0.04183286,0.02994819
1761620107554,-0.13723088,0.23375791,0.09362688,0.04032509,0.00360539,0.00559195,0.99848541,0.01948842,-0.04181105,0.02998202
1761620107565,0.10618554,-0.20212902,-0.05981576,0.02742943,0.00237357,0.01478938,0.99848047,0.01964202,-0.04179776,0.03006484
1761620107576,-0.00243673,-0.17923707,0.13244362,-0.00693593,0.00400292,0.03242190,0.99847679,0.01960422,-0.04177594,0.03024154
1761620107586,0.02523609,-0.11604238,0.16093961,-0.01851039,0.00905414,0.05575808,0.99847177,0.01950704,-0.04172841,0.03053427
1761620107598,-0.04738754,-0.00820375,-0.00206033,0.00610692,0.01687651,0.02400725,0.99847090,0.01954216,-0.04163137,0.03067231
1761620107609,-0.02884459,0.08326622,0.19470099,0.00932470,0.01406640,0.03182067,0.99846758,0.01959577,-0.04155049,0.03085528
1761620107620,-0.08074355,0.07655680,0.03435660,0.01354997,0.01672282,0.04299985,0.99846279,0.01966759,-0.04146186,0.03108318
1761620107631,0.06895152,0.13886900,-0.12322662,0.03070039,0.01020582,0.04042672,0.99845454,0.01984258,-0.04140368,0.03131361
1761620107642,-0.04131143,0.26128940,-0.21086041,0.05400314,0.02278246,0.01195110,0.99845177,0.02013420,-0.04128066,0.03137815
1761620107653,0.13775545,-0.13425019,-0.07143643,0.03559762,0.01184708,0.01240752,0.99844825,0.02033532,-0.04121372,0.03144825
1761620107665,-0.05113275,-0.03874957,0.12641901,-0.02536181,0.00948332,0.00796163,0.99845192,0.02019330,-0.04116061,0.03149284
1761620107676,0.09703646,-0.15048572,0.01822544,-0.01282390,-0.00205817,-0.00027890,0.99845299,0.02011828,-0.04117265,0.03149121
1761620107687,-0.17987684,-0.20563144,0.08333455,-0.01438639,-0.01018825,-0.01376198,0.99845462,0.02004059,-0.04122767,0.03141689
1761620107698,0.13290529,-0.05496180,0.08686712,-0.03295289,-0.01415072,-0.01125708,0.99845702,0.01985606,-0.04130692,0.03135385
1761620107709,-0.05197015,-0.05000458,-0.01551502,-0.01965980,-0.00481134,0.01290764,0.99845582,0.01974694,-0.04133362,0.03142549
1761620107720,-0.00610647,0.15948714,-0.10263839,-0.00986852,-0.01506325,0.01936506,0.99845010,0.01969267,-0.04141647,0.03153200
1761620107732,0.06232944,0.09668319,-0.03418613,0.00429228,-0.01609317,0.03045632,0.99844040,0.01971692,-0.04150739,0.03170408
1761620107742,0.04281390,0.11841980,0.07834192,0.01596692,-0.00132742,0.01938094,0.99843517,0.01980154,-0.04151443,0.03180679
1761620107783,0.11883917,-0.01291739,0.11027808,-0.00202691,-0.00419861,0.00263965,0.99843070,0.01976019,-0.04160008,0.03186064
1761620107802,-0.57359799,-0.61409410,-0.20002245,-0.07578861,-0.02314557,0.00160591,0.99843502,0.01904020,-0.04181996,0.03187590
1761620107821,0.38569654,0.35851533,0.15982631,-0.00846035,-0.00580356,-0.01206959,0.99843789,0.01895983,-0.04187510,0.03176124
1761620107843,0.11777322,0.11516646,-0.10293852,0.00372779,-0.01277853,-0.00847550,0.99843415,0.01900102,-0.04201630,0.03166758
1761620107854,0.20392318,-0.53437611,-0.05099863,0.01062099,-0.00750517,-0.03906648,0.99843809,0.01905944,-0.04205758,0.03145272
1761620107897,0.00092763,0.08330534,0.09605255,-0.02666907,-0.01354596,-0.01600173,0.99844730,0.01848872,-0.04234746,0.03111028
1761620107923,0.04337748,-0.20915734,-0.01957230,-0.07930077,-0.01846182,0.00160116,0.99845511,0.01744195,-0.04259116,0.03113142
1761620107944,0.12457998,0.14232283,-0.29191922,0.00628839,-0.04992169,-0.04663159,0.99844685,0.01750609,-0.04310036,0.03065577
1761620107967,-0.05778280,0.25896805,0.19668178,0.00050906,-0.03746163,-0.03347645,0.99843968,0.01751205,-0.04353866,0.03026410
1761620107989,0.01483680,0.05219159,0.04180816,-0.00660858,-0.02164815,-0.01328485,0.99843498,0.01743968,-0.04377571,0.03011863
1761620107999,-0.02762483,0.13109776,-0.09411276,0.00229345,-0.00633496,0.01037346,0.99843176,0.01745138,-0.04380801,0.03017154
1761620108021,-0.10745787,-0.24056197,-0.02328055,0.01097952,-0.00769928,-0.00967366,0.99842917,0.01757051,-0.04389155,0.03006658
1761620108032,0.00784788,-0.08954745,-0.07124403,0.00885146,0.00340622,-0.00039565,0.99842920,0.01762007,-0.04387248,0.03006436
1761620108043,-0.07468669,0.68253661,-0.07165254,0.02492034,0.01142479,-0.00862993,0.99843101,0.01776087,-0.04380793,0.03001560
1761620108055,0.15343474,-0.02267326,0.13172099,0.02003841,0.02273104,-0.00397649,0.99843522,0.01787209,-0.04368177,0.02999353
1761620108065,0.00300172,-0.09995097,0.10952510,0.00156417,0.01525151,0.01057954,0.99843693,0.01788046,-0.04360017,0.03005013
1761620108076,-0.00150035,-0.10313224,-0.04471050,-0.00364840,0.00591756,-0.01207462,0.99844067,0.01786057,-0.04356792,0.02998433
1761620108088,0.02275369,-0.04137314,0.11584569,-0.00902447,0.01306727,-0.01341302,0.99844730,0.01780778,-0.04349148,0.02990586
1761620108099,0.12940085,0.00095280,-0.00188544,-0.01728887,-0.00214294,-0.01227506,0.99845053,0.01771183,-0.04350337,0.02983773
1761620108110,-0.05987623,-0.24151503,0.31102375,-0.00996004,-0.00281656,-0.01806740,0.99845376,0.01765754,-0.04351872,0.02973927
1761620108122,0.09126012,-0.00339942,0.11905739,-0.01506027,-0.01806477,-0.02761088,0.99845554,0.01756718,-0.04362711,0.02957360
1761620108133,0.01655555,-0.00065375,-0.03245759,-0.02010479,-0.05356039,-0.01707461,0.99844712,0.01745359,-0.04392973,0.02947713
1761620108144,0.35948652,0.07805350,-0.15375447,-0.01635844,-0.04351178,-0.01546005,0.99844087,0.01736689,-0.04416034,0.02939519
1761620108155,0.03621600,0.20306407,-0.02754952,-0.00816455,-0.04391170,-0.02025376,0.99843403,0.01732076,-0.04440844,0.02928076
1761620108167,0.00363371,-0.13322675,0.05324564,-0.01786640,-0.06596273,-0.00372078,0.99841886,0.01721356,-0.04480422,0.02925843
1761620108178,0.09320891,-0.05334984,0.02003174,-0.03442940,-0.05459862,-0.04611276,0.99841604,0.01702764,-0.04509905,0.02900942
1761620108189,-0.03270488,-0.17808829,0.16352440,-0.03651534,-0.05625490,-0.04017985,0.99841190,0.01683046,-0.04540283,0.02879245
1761620108200,-0.19622928,0.12465542,-0.08585031,-0.04143956,-0.05762284,-0.03893857,0.99840749,0.01660669,-0.04571399,0.02858218
1761620108210,0.08854227,0.20087986,0.05260090,-0.00955864,-0.03134545,-0.02677364,0.99840473,0.01655555,-0.04588169,0.02843894
1761620108221,-0.19697741,0.28062231,-0.32296757,0.01836968,-0.02171097,-0.00608831,0.99839834,0.01665934,-0.04600436,0.02840455
1761620108233,-0.00327304,0.10545328,-0.06133920,0.04847440,-0.01036053,0.00635663,0.99838964,0.01694534,-0.04606548,0.02844205
1761620108244,0.16648173,-0.04699403,-0.08099919,0.06760493,0.02122307,0.01143712,0.99838700,0.01729688,-0.04595512,0.02850152
1761620108255,-0.15793526,-0.28877690,0.21704730,-0.00697199,-0.00446509,-0.02721823,0.99839080,0.01725854,-0.04597968,0.02835182
1761620108266,-0.00327779,-0.20156132,0.18470372,-0.03505278,-0.00472155,-0.00556634,0.99839392,0.01705698,-0.04600683,0.02831982
1761620108277,-0.02118707,-0.01127396,0.09075604,-0.04322474,0.01866505,0.00596738,0.99840161,0.01682357,-0.04590604,0.02835204
1761620108288,-0.02928422,0.08407223,-0.12248687,-0.00835543,0.02739722,0.01070765,0.99840773,0.01677678,-0.04575261,0.02841200
1761620108291,7.52040318,2.78153058,1.45367214,0.10071404,0.19867400,0.07341368,0.99841434,0.01690267,-0.04550427,0.02850377
1761620108312,-1.02905402,-0.19665744,-0.37494924,0.03780463,0.02382210,0.01105510,0.99841560,0.01730151,-0.04525295,0.02862040
1761620108323,0.23459164,0.38584944,-0.16373753,0.03211156,0.06105551,0.01053883,0.99842583,0.01747491,-0.04492325,0.02867731
1761620108334,-0.03405264,0.00825208,-0.18658845,0.06180168,0.03196943,0.00712463,0.99842663,0.01783027,-0.04473942,0.02871828
1761620108345,0.21862889,-0.06567246,0.10246088,0.03224283,0.02403124,-0.03046695,0.99843416,0.01800761,-0.04460725,0.02855071
1761620108355,0.09899733,-0.15390536,0.10674713,-0.02574633,0.02306423,-0.01945706,0.99844460,0.01787630,-0.04448963,0.02845148
1761620108367,-0.00848370,-0.15272599,0.11739325,-0.05438410,0.02199762,-0.00818230,0.99845712,0.01756359,-0.04436314,0.02840443
1761620108378,0.02741428,-0.02264355,0.06596561,-0.04384486,0.01487293,0.00380357,0.99846437,0.01732245,-0.04428134,0.02842535
1761620108389,0.16465590,-0.11246374,-0.02592979,-0.01359728,0.01039131,0.02452668,0.99846435,0.01724698,-0.04422367,0.02856147
1761620108429,-0.15707771,-0.00990182,0.01655476,0.00364474,0.00328629,-0.00396965,0.99846831,0.01732079,-0.04415712,0.02848109
1761620108457,0.25882041,0.02711069,-0.32012976,0.01572186,-0.04185002,-0.03755225,0.99845341,0.01753853,-0.04473674,0.02796099
1761620108467,0.26358594,-0.67406075,-0.38174516,0.02049026,-0.00367177,-0.00845484,0.99845196,0.01764099,-0.04475510,0.02791871
1761620108490,-0.37858996,0.03354402,0.32088349,-0.01179032,0.00966547,-0.01060563,0.99846259,0.01750717,-0.04464540,0.02779834
1761620108512,-0.08544148,-0.26121539,0.06182112,-0.06867910,0.00320312,-0.03782342,0.99848850,0.01675513,-0.04461032,0.02738417
1761620108522,-0.51070689,-1.13690532,-0.35483087,0.02325752,-0.00067646,-0.11891163,0.99850294,0.01687491,-0.04461381,0.02677178
1761620108545,0.06992677,0.66514651,0.14526814,0.01527536,0.00804653,-0.01261691,0.99850792,0.01704904,-0.04452208,0.02662795
1761620108556,-0.22482322,0.00481121,-0.25566336,-0.00998881,0.02593052,-0.02730248,0.99851910,0.01699461,-0.04438076,0.02647915
1761620108568,0.03089226,0.11945964,0.18940044,-0.03747514,0.05233181,0.02665841,0.99853244,0.01677163,-0.04406938,0.02663777
1761620108578,-0.21213714,-0.30117213,-0.05630801,-0.03696060,0.02249846,-0.00156281,0.99854086,0.01658313,-0.04395464,0.02662980
1761620108590,0.17262233,0.13172965,0.29298055,-0.06195102,0.02245366,-0.00671213,0.99855417,0.01620523,-0.04381767,0.02658885
1761620108602,-0.03229974,-0.16875082,0.03282258,-0.05138149,0.01284611,-0.01988840,0.99856530,0.01590722,-0.04374316,0.02647350
1761620108612,-0.19616428,-0.53743662,0.04138470,-0.05119324,0.00578933,-0.01963081,0.99857328,0.01564869,-0.04371393,0.02637436
1761620108622,0.05030846,0.35479349,0.08218422,-0.04159630,0.01062940,-0.01051209,0.99858072,0.01542615,-0.04365706,0.02631812
1761620108633,0.03034787,0.19558537,0.02684902,-0.02247285,0.00392222,0.00761568,0.99858246,0.01530255,-0.04363549,0.02636001
1761620108645,0.05927620,0.27309099,-0.05591389,-0.03283667,0.00921294,0.02005564,0.99858465,0.01510881,-0.04358113,0.02647834
1761620108656,-0.03206077,0.26768864,0.13091481,-0.05907206,0.00663816,0.00715267,0.99859006,0.01478392,-0.04354462,0.02651768
1761620108667,0.04378301,-0.04247408,0.07205954,-0.05073681,0.03049153,0.00533832,0.99860058,0.01450740,-0.04337844,0.02654677
1761620108678,-0.04338499,0.09291816,-0.07140446,-0.02306907,0.01705246,0.00359416,0.99860596,0.01438052,-0.04328466,0.02656654
1761620108689,-0.02043207,0.09000117,0.05199233,-0.01329970,0.01899117,-0.01223415,0.99861325,0.01430804,-0.04318115,0.02649986
1761620108702,-0.03802608,0.12421574,-0.08784576,0.01360095,0.01578078,-0.01964572,0.99861959,0.01439372,-0.04308173,0.02637610
1761620108712,-0.01427556,0.28212592,0.28880010,0.00845096,0.03729952,0.01294169,0.99862553,0.01443767,-0.04288778,0.02644339
1761620108723,0.00440258,0.12612458,0.04544092,0.02974132,0.02274845,-0.01268593,0.99863027,0.01459827,-0.04276494,0.02637489
1761620108734,0.06139342,-0.03686359,0.06486416,0.03525410,0.02761370,0.00554022,0.99863303,0.01478688,-0.04261720,0.02640453
1761620108745,-0.07393079,-0.02279824,-0.27165109,0.02449205,0.02519540,0.00918487,0.99863568,0.01492649,-0.04247359,0.02645688
1761620108747,-7.35472517,4.41408095,1.26790582,0.14666704,0.08019738,0.19997400,0.99863074,0.01510249,-0.04237735,0.02669685
1761620108768,1.01839297,-0.62890967,-0.14695425,0.00133441,0.00594320,0.01235171,0.99862971,0.01511636,-0.04231554,0.02682531
1761620108770,-14.33364347,5.78680068,2.32916612,0.14033413,0.13386870,0.12837563,0.99862977,0.01522161,-0.04221514,0.02692159
1761620108790,1.06979506,-0.48659444,-0.16361662,-0.00920295,0.00568425,0.01359267,0.99862990,0.01512820,-0.04215745,0.02705956
1761620108792,-10.22263701,5.17486865,2.49517375,-0.04145734,0.04121784,0.09488236,0.99862969,0.01508675,-0.04211623,0.02715444
1761620108803,1.76989302,-1.08832883,-0.71008595,0.02965521,0.00965987,-0.00106052,0.99862960,0.01525282,-0.04206213,0.02714850
1761620108824,0.05460823,0.00729721,0.01245974,0.02953310,-0.00431080,-0.00011699,0.99862304,0.01555848,-0.04210675,0.02714729
1761620108825,-17.35963683,-11.12581643,-15.47993093,0.41593088,-0.14209673,-0.02359647,0.99861411,0.01587043,-0.04221332,0.02712959
1761620108836,2.30004998,1.51420498,2.23644128,-0.01935177,-0.00978718,0.03186174,0.99860865,0.01576206,-0.04226813,0.02730802
1761620108848,0.06012504,0.00315986,0.22028570,-0.00527655,-0.01395592,0.01307936,0.99860384,0.01573278,-0.04234559,0.02738061
1761620108859,0.09330117,-0.04290394,-0.02982229,0.00590415,-0.00155037,0.01568863,0.99860060,0.01576525,-0.04235411,0.02746689
1761620108870,0.00082938,0.05759697,-0.09019488,-0.02037594,-0.02007329,0.01254280,0.99859569,0.01565114,-0.04246652,0.02753713
1761620108890,0.01594310,-0.01802060,0.02026276,-0.01015206,-0.01001155,-0.00072771,0.99859318,0.01554861,-0.04256764,0.02752978
1761620108892,0.62774426,-7.51787102,5.61177215,-0.13360112,-0.19679360,-0.07614421,0.99858916,0.01542169,-0.04275459,0.02745745
1761620108903,-0.01467643,0.69758899,-0.79252713,-0.03118479,-0.02545124,-0.02050803,0.99858887,0.01524393,-0.04289967,0.02734055
1761620108914,-0.07674830,-0.26486083,0.02767163,-0.04834850,-0.03199548,-0.02091710,0.99858847,0.01498043,-0.04307404,0.02722655
1761620108925,0.03041053,0.27762635,0.09911323,-0.07546337,-0.01746155,0.01220369,0.99858863,0.01455784,-0.04317183,0.02729489
1761620108937,0.03872345,0.35944474,-0.10143859,0.00370174,0.00004027,0.00487781,0.99858753,0.01457987,-0.04317159,0.02732392
1761620108974,-0.02481971,0.07656586,-0.09054440,0.01975849,-0.00392412,0.00103870,0.99857858,0.01494046,-0.04324320,0.02734287
1761620109002,0.00373258,0.03532439,-0.06876113,0.02333817,-0.00321446,-0.00626669,0.99857408,0.01526719,-0.04328820,0.02725514
1761620109013,0.38529052,-0.24997523,0.28405143,-0.01051828,0.01300905,-0.02717475,0.99858206,0.01520987,-0.04321730,0.02710704
1761620109025,0.14544076,0.09370781,0.30728530,-0.03679447,0.00388690,-0.01065469,0.99858809,0.01499094,-0.04319418,0.02704364
1761620109046,-0.17972805,0.06967416,-0.19282233,-0.00488937,-0.00773739,-0.01134471,0.99858858,0.01493765,-0.04327851,0.02691998
1761620109058,-0.04282584,0.10964777,-0.11281889,0.00521542,-0.01267184,-0.01060245,0.99858666,0.01496685,-0.04334948,0.02686061
1761620109070,0.01533194,-0.11907687,-0.06390217,0.00378787,-0.01704590,0.00734490,0.99858059,0.01498996,-0.04345346,0.02690541
1761620109092,-0.03115833,-0.03348243,0.04620781,-0.00748510,-0.01046538,0.00970902,0.99857380,0.01490613,-0.04357067,0.02701416
1761620109103,0.19678994,-0.06131418,-0.08244633,-0.00730826,-0.01720034,0.02708259,0.99856657,0.01486776,-0.04366097,0.02715634
1761620109115,-0.38974368,-0.02374339,0.54841474,-0.00060309,-0.00648360,0.03129654,0.99855963,0.01486405,-0.04370084,0.02734881
1761620109135,0.07542154,0.06320265,-0.09010284,-0.00482218,0.00181770,0.01250277,0.99855770,0.01481559,-0.04368258,0.02747447
1761620109146,0.30094887,0.08652827,-0.02107305,0.00899542,-0.00308626,-0.01246150,0.99855810,0.01486371,-0.04369909,0.02740780
1761620109159,0.08788032,-0.02689772,-0.30200546,-0.00562559,0.00222650,-0.00818965,0.99856077,0.01482658,-0.04368439,0.02735375
1761620109171,0.00103775,-0.08111829,0.02552861,-0.01824809,0.01665949,0.00060331,0.99856656,0.01471892,-0.04358610,0.02735730
1761620109180,0.08596904,-0.10397966,-0.14650558,-0.01744410,0.02143751,-0.02323164,0.99857524,0.01463606,-0.04348427,0.02724695
1761620109192,-0.04998449,-0.06441303,0.10851112,-0.00731434,0.01068332,-0.00300670,0.99857903,0.01459364,-0.04342231,0.02722952
1761620109203,0.05977243,-0.18196858,-0.14287707,0.00420562,0.01718945,-0.04053009,0.99858903,0.01461719,-0.04332605,0.02700255
1761620109214,0.25631334,-0.30129420,-0.18725550,-0.02489968,0.01657912,-0.05005623,0.99860287,0.01447526,-0.04323155,0.02671723
1761620109226,0.05051522,0.04068954,-0.01079559,-0.01563560,0.02247829,-0.00492029,0.99861025,0.01438848,-0.04310679,0.02668992
1761620109237,-0.00866267,0.03492470,-0.05893453,-0.03821511,0.00727197,0.00281619,0.99861456,0.01417830,-0.04306680,0.02670541
1761620109238,14.80633563,-3.65552048,-6.99338588,-0.05762911,0.17743217,-0.10164475,0.99862350,0.01413219,-0.04292485,0.02662409
1761620109258,-1.47962556,0.59994691,0.75243186,-0.03341445,0.01455500,-0.00016577,0.99863435,0.01380139,-0.04278076,0.02662245
1761620109268,0.12771660,-0.25436758,-0.24879800,-0.02307551,0.01397851,0.00203847,0.99863883,0.01368140,-0.04270807,0.02663305
1761620109280,-0.03245749,0.10616101,0.07542837,-0.02698285,0.01586314,-0.00035386,0.99864485,0.01352760,-0.04261765,0.02663103
1761620109291,0.08677210,0.13808776,0.03085909,-0.02174375,0.00415613,-0.00321846,0.99864793,0.01340692,-0.04259458,0.02661317
1761620109302,0.00356994,0.13820665,-0.06673808,0.00605634,0.00422421,0.00601986,0.99864758,0.01344144,-0.04257051,0.02664748
1761620109313,0.00059563,0.07074569,-0.11078640,0.00205723,-0.00268131,-0.00528099,0.99864757,0.01345234,-0.04258472,0.02661950
1761620109316,6.94293217,0.85734414,-4.46369560,0.08888476,0.02400435,0.04733809,0.99864548,0.01358123,-0.04254991,0.02668814
1761620109336,-1.11140167,-0.22160271,0.77978605,0.00774327,0.00001553,0.00341075,0.99864355,0.01365750,-0.04254976,0.02672173
1761620109346,0.34503829,-0.07499653,-0.16968700,0.00099346,-0.01363031,-0.00207755,0.99864072,0.01366271,-0.04262132,0.02671082
1761620109358,-0.12299371,0.03812509,0.10974823,-0.01102636,-0.01126987,-0.01197301,0.99864065,0.01359656,-0.04268894,0.02663899
1761620109369,0.14488529,0.09115846,-0.13485168,0.00218710,-0.02000345,-0.01118693,0.99863745,0.01360847,-0.04279795,0.02657802
1761620109371,10.69078380,8.54708246,-9.95233517,0.11234834,-0.13763100,0.00386996,0.99862914,0.01373206,-0.04294935,0.02658227
1761620109382,-2.03068400,-1.34587174,1.82354623,0.07610537,-0.02646698,-0.00658664,0.99861758,0.01416586,-0.04310021,0.02654473
1761620109394,-0.07976096,-0.05079103,-0.03527889,0.01381309,-0.03160617,0.00782096,0.99860766,0.01424321,-0.04327721,0.02658853
1761620109405,-0.08416429,-0.37070652,0.43566984,-0.05181506,-0.03079937,-0.01175531,0.99860605,0.01395823,-0.04344660,0.02652387
1761620109425,-0.09782277,-0.02677331,0.07487564,-0.03975059,-0.01650609,-0.01630864,0.99860868,0.01355675,-0.04361331,0.02635916
1761620109427,16.36085933,5.43255564,-3.64724180,-0.11249494,-0.08003755,-0.08099917,0.99860882,0.01345550,-0.04368535,0.02628626
1761620109438,-2.47378907,0.14086739,-0.18153014,0.09330654,-0.01332943,-0.00903391,0.99859962,0.01398268,-0.04376066,0.02623522
1761620109458,-0.07992764,-0.04541570,0.10453853,0.09948003,-0.00207007,0.03248610,0.99857509,0.01500236,-0.04378188,0.02656820
1761620109461,6.96776682,17.18953938,-13.09945331,0.79298691,-0.07237793,0.09560464,0.99854792,0.01619184,-0.04389044,0.02671161
1761620109498,-0.62671968,-1.56028272,1.16529377,0.00367725,-0.00428086,-0.00891133,0.99854772,0.01625968,-0.04396943,0.02654719
1761620109516,0.00283679,0.32615373,-0.19719450,-0.06960159,0.01548715,-0.01011719,0.99856587,0.01564719,-0.04383314,0.02645816
1761620109518,-4.40860575,46.78985438,-32.71743303,1.46302161,0.19380298,0.01013113,0.99854924,0.01718336,-0.04362965,0.02646880
1761620109537,0.48590108,-5.33989562,3.69097937,0.00531140,0.00313426,0.02935875,0.99854228,0.01723355,-0.04360003,0.02674624
1761620109547,0.35380115,-0.01012822,0.07429089,-0.12975838,-0.02668210,0.00344431,0.99854688,0.01659774,-0.04373077,0.02676312
1761620109558,-0.08999865,0.18767435,-0.20239033,0.03536802,-0.04694943,0.02462056,0.99852748,0.01680464,-0.04400542,0.02690715
1761620109570,-0.24484378,0.69621307,-0.61074487,0.17792514,-0.02968596,-0.07936521,0.99851475,0.01780102,-0.04417166,0.02646270
1761620109581,-0.12848346,0.00658158,-0.44998412,0.31489906,0.02327993,-0.10261786,0.99850308,0.01950147,-0.04404595,0.02590856
1761620109592,-0.15305884,-0.80251836,0.04451952,0.06778666,0.03998401,-0.08655263,0.99851894,0.01990819,-0.04380605,0.02538925
1761620109603,-0.07288931,-1.08708260,0.19486134,-0.25588748,0.09331025,-0.02634909,0.99856923,0.01857758,-0.04332084,0.02525223
1761620109605,-10.32187236,-42.37288284,-30.19640265,-2.12462053,0.25621705,0.01443139,0.99862176,0.01624050,-0.04303900,0.02526811
1761620109626,1.14403366,4.03351946,3.32948726,-0.27395534,-0.01089977,-0.01105958,0.99866221,0.01337766,-0.04315290,0.02515253
1761620109627,-18.93659527,-12.67438082,-172.18705712,0.94500997,-0.13275090,-0.76201983,0.99866241,0.01403917,-0.04324583,0.02461912
1761620109648,0.99455655,2.85179111,9.67990300,0.25924829,0.02427761,-0.08705259,0.99865392,0.01668350,-0.04299819,0.02373118
1761620109650,-58.95535666,-130.16632997,-88.87022227,2.57098353,0.90333835,-0.99606639,0.99866816,0.01899739,-0.04218519,0.02283472
1761620109661,9.44039733,13.73234856,18.93079326,-0.26429546,0.17887712,-0.04559057,0.99874348,0.01750412,-0.04117453,0.02257714
1761620109672,-0.09000591,5.11500277,2.26079926,-1.00059880,0.11234201,-0.01227773,0.99885241,0.01195080,-0.04055104,0.02250900
1761620109683,1.16258646,-4.84762047,-4.70164649,-0.35621514,0.07413289,0.08099901,0.99888073,0.00995599,-0.04013589,0.02296259
1761620109694,-0.40664777,5.70701735,1.37424587,-0.40572459,-0.02888928,0.07952650,0.99888392,0.00774479,-0.04029334,0.02339601
1761620109705,-1.17623163,1.78810739,-1.66372439,0.07841347,-0.05821371,-0.09840884,0.99888001,0.00817999,-0.04061642,0.02284984
1761620109716,0.19301100,-1.10270609,-0.54006093,0.37231149,-0.00271474,-0.06090783,0.99886789,0.01026493,-0.04063163,0.02250876
1761620109728,0.15205267,-3.39781281,0.98834232,0.35167153,0.03569969,0.01329487,0.99885214,0.01223429,-0.04043171,0.02258321
1761620109739,0.49007005,-0.51423666,2.50589345,-0.06986902,0.07090163,0.03010818,0.99886857,0.01185351,-0.04004529,0.02274730
1761620109750,0.00962535,2.61919162,-1.14252233,-0.28932472,0.06507627,0.10461303,0.99888752,0.01023329,-0.03968087,0.02333313
1761620109761,0.05874285,-1.88798718,1.37454820,-0.22291281,0.04768300,0.11174370,0.99889522,0.00899612,-0.03941623,0.02395331
1761620109772,0.07980037,0.60920482,0.05325632,-0.07321744,0.03931790,0.04806750,0.99890106,0.00858244,-0.03919408,0.02422489
1761620109783,-0.06891174,1.06405494,-0.44733345,0.17516364,0.03545946,-0.03088883,0.99890405,0.00954584,-0.03899905,0.02405500
1761620109794,0.00253317,1.03745532,-0.40428653,0.24967187,0.02541504,-0.02175559,0.99889825,0.01093152,-0.03885800,0.02393426
1761620109805,0.03096094,0.79809076,-0.06192188,0.20837554,0.01565324,0.03006726,0.99888429,0.01208801,-0.03877112,0.02410113
1761620109816,0.24768751,0.08747070,0.14319434,0.22222701,-0.04430617,0.03823594,0.99885388,0.01332137,-0.03901702,0.02431334
1761620109827,0.00000000,-0.48494384,0.39475197,0.17224746,-0.07583779,-0.00452992,0.99882475,0.01427734,-0.03943792,0.02428820
1761620109839,0.41054220,-0.82259202,0.41954892,0.05358280,-0.04487330,0.02319196,0.99880730,0.01457740,-0.03968921,0.02441807
1761620109850,0.02336333,-0.64404695,0.30435666,0.01543936,-0.07293413,0.08766031,0.99877813,0.01466232,-0.04009035,0.02490021
1761620109861,-0.00774086,-0.41284566,0.08881258,-0.08503114,-0.06857177,0.03279940,0.99876493,0.01418614,-0.04047435,0.02508388
1761620109872,-0.13684740,0.10931755,-0.08362897,-0.02707702,-0.07211682,0.01109837,0.99874906,0.01403451,-0.04087821,0.02514603
1761620109921,-0.05931004,0.03343983,-0.11195437,0.01554542,-0.01301377,0.00366234,0.99872844,0.01441227,-0.04119444,0.02523503
1761620109948,0.09987662,0.19780567,-0.12597407,0.08594726,-0.03471094,0.03065892,0.99867997,0.01559834,-0.04167345,0.02565812
1761620109979,-0.19852446,-0.34355453,0.28756516,-0.02917723,0.00129628,0.00648850,0.99868516,0.01514755,-0.04165343,0.02575837
1761620110008,-0.11457547,0.06511475,0.09846780,-0.03339926,0.05440928,-0.01280297,0.99872960,0.01466493,-0.04086721,0.02557337
1761620110027,-0.02503570,0.07199837,-0.36693782,0.09010218,0.04108693,0.02493521,0.99872641,0.01553442,-0.04047072,0.02581399
1761620110040,0.41867473,-0.69908564,1.35617404,-0.23010127,-0.10981279,-0.01938858,0.99872274,0.01407327,-0.04116803,0.02569087
1761620110071,0.05259878,0.35122689,-0.39133319,0.02757108,-0.01764207,0.02572082,0.99869507,0.01449925,-0.04144060,0.02608826
1761620110082,0.25794703,0.71357246,0.03443080,0.13824708,-0.07510208,0.01983319,0.99866280,0.01528034,-0.04186493,0.02620032
1761620110105,-0.04035745,-0.25832210,0.01321206,0.01548643,-0.03612920,0.01194195,0.99863967,0.01545302,-0.04226777,0.02633347
1761620110115,-0.22828032,-0.22597017,0.69286783,-0.06035833,-0.05231018,0.00991935,0.99863117,0.01512406,-0.04255286,0.02638753
1761620110126,0.11237640,-0.20866768,-0.00802689,-0.00390690,-0.04454952,0.02703619,0.99861721,0.01510277,-0.04279566,0.02653488
1761620110138,0.10884615,0.25340388,-0.07633535,0.00750338,-0.03050150,0.00553132,0.99860810,0.01514629,-0.04297257,0.02656696
1761620110150,-0.04567406,0.11593896,-0.36801872,0.03894057,-0.04563760,-0.00878622,0.99859411,0.01537994,-0.04324639,0.02651424
1761620110161,0.08770590,-0.17856262,0.00219265,0.05721701,-0.02588836,0.00439776,0.99858283,0.01568319,-0.04338360,0.02653755
1761620110171,0.04308077,0.16631687,0.19479633,-0.04333620,-0.05484774,0.00940322,0.99857271,0.01546000,-0.04366606,0.02658598
1761620110182,-0.09728418,0.11394637,-0.25775141,0.04971305,-0.04615071,-0.00752661,0.99855814,0.01573840,-0.04392451,0.02654383
1761620110193,0.02840762,-0.07102190,-0.10429462,0.08699820,-0.02882161,-0.00379231,0.99854367,0.01622994,-0.04408735,0.02652240
1761620110196,3.33747649,5.31816318,17.73448516,0.11253450,-0.19864669,0.00027133,0.99853197,0.01635372,-0.04430586,0.02652270
1761620110216,-0.41248889,-0.83877624,-2.05348636,0.00800429,-0.02003482,0.00643438,0.99851979,0.01643537,-0.04451022,0.02658833
1761620110218,6.74934947,-29.75344502,38.32301081,-0.25602430,-0.12927016,0.06306839,0.99851718,0.01623055,-0.04461363,0.02663879
1761620110229,-1.04569552,3.74654890,-5.00420344,-0.10211012,0.00243191,-0.02325373,0.99853062,0.01564852,-0.04459977,0.02650624
1761620110240,-0.01520527,0.38531054,-0.19026590,-0.03167779,0.00435285,0.00141619,0.99853426,0.01547113,-0.04457540,0.02651417
1761620110251,0.11194639,0.21124215,-0.29065211,0.04268099,-0.01704503,-0.01070850,0.99852803,0.01570374,-0.04466829,0.02645581
1761620110262,0.10392590,0.31365222,-0.23411228,0.05001951,-0.01437383,-0.02498367,0.99852368,0.01598385,-0.04474878,0.02631590
1761620110274,-0.07642049,-0.06608438,0.03617636,0.06051145,-0.02921648,-0.06769598,0.99852074,0.01632574,-0.04491386,0.02593342
1761620110293,-0.02441205,-0.12133776,0.04396968,-0.01299134,0.00038193,-0.01151939,0.99852596,0.01619712,-0.04491008,0.02581938
1761620110295,0.88467005,-4.26146793,16.95453773,-0.16861019,-0.00592715,-0.04335635,0.99852971,0.01602008,-0.04491630,0.02577385
1761620110307,0.06918888,0.25691121,-3.19002654,-0.03105905,-0.00035665,-0.00192540,0.99853273,0.01584304,-0.04491833,0.02576288
1761620110318,-0.00414821,-0.07829267,-0.10764614,-0.02811263,0.00046125,0.00565867,0.99853448,0.01568843,-0.04491580,0.02579400
1761620110329,0.00000000,0.15578487,0.02364482,-0.04468685,0.00943368,0.00487985,0.99853995,0.01544265,-0.04486391,0.02582084
1761620110340,-0.30963452,0.21020795,0.47723802,0.00613486,0.01244846,-0.00775731,0.99854367,0.01547700,-0.04479420,0.02577740
1761620110351,0.13932422,0.04976972,0.06713963,-0.01223861,0.01586731,0.01192654,0.99854696,0.01540908,-0.04470614,0.02584359
1761620110362,0.04644141,0.24227539,0.02709082,0.01208684,0.00140702,0.01581193,0.99854400,0.01547616,-0.04469833,0.02593135
1761620110373,0.00000000,0.10990529,0.03483106,0.06042117,-0.00260476,0.00408195,0.99853751,0.01581150,-0.04471278,0.02595400
1761620110384,0.11999832,0.10403589,0.03554745,0.07881556,-0.00697177,0.02698583,0.99852473,0.01625287,-0.04475183,0.02610512
1761620110396,0.00276437,0.02727601,0.08797606,0.00740386,0.00499948,-0.01885680,0.99852804,0.01629396,-0.04472408,0.02600047
1761620110407,0.46441408,-0.08574729,-0.15480469,0.00454339,-0.00426956,0.01831198,0.99852391,0.01631917,-0.04474777,0.02610210
1761620110418,-0.00866267,-0.19092258,-0.11201111,-0.00283169,-0.00935215,0.00489482,0.99852116,0.01630360,-0.04479921,0.02612902
1761620110429,-0.05333725,-0.04572566,0.10326177,-0.02712931,-0.00305503,0.01372663,0.99852085,0.01615303,-0.04481617,0.02620520
1761620110440,-0.37122768,-0.01127633,0.19174389,-0.01501080,-0.02650312,0.03053261,0.99851103,0.01606897,-0.04496458,0.02637619
1761620110452,-0.03984787,0.30507447,-0.09171201,0.02902106,-0.01459542,-0.00417410,0.99850477,0.01624745,-0.04505435,0.02635051
1761620110489,-0.07249112,-0.06284733,-0.16723487,0.02680699,-0.00080524,-0.00286143,0.99849747,0.01673266,-0.04506892,0.02629872
1761620110517,0.01373265,0.10342333,0.19790892,-0.00036719,0.00587127,-0.00251153,0.99850220,0.01672750,-0.04498643,0.02626344
1761620110527,-0.51164296,-1.03253555,1.81344229,-0.06256336,0.03950636,-0.03735015,0.99852249,0.01639278,-0.04477507,0.02606361
1761620110539,0.26807664,0.11976569,-1.21271393,-0.08291113,0.02680204,0.01435238,0.99853526,0.01590361,-0.04461694,0.02614829
1761620110550,0.05441957,0.39595522,-0.31451108,0.02806111,0.01595721,-0.02945513,0.99854089,0.01605654,-0.04452997,0.02598776
1761620110561,0.09873441,0.20968883,-0.23724534,0.01297759,0.01146317,0.01925510,0.99853982,0.01612597,-0.04446864,0.02609078
1761620110573,0.02526250,-0.05527927,-0.10749584,0.01839787,-0.00257786,0.00766396,0.99853623,0.01623360,-0.04448372,0.02613561
1761620110583,0.12521123,-0.23298806,0.11646966,-0.02900893,0.00775933,0.00451705,0.99853992,0.01607985,-0.04444260,0.02615955
1761620110595,-0.00053489,-0.01593923,-0.16588419,-0.03869658,-0.00194709,0.00471582,0.99854229,0.01585541,-0.04445389,0.02618690
1761620110606,0.19377277,-0.25548665,-0.09525160,-0.06704897,-0.02161306,0.02268883,0.99853947,0.01548329,-0.04457385,0.02631283
1761620110617,0.08848273,0.01933098,-0.16017194,-0.04189520,-0.02594634,-0.00446441,0.99853718,0.01524239,-0.04472304,0.02628715
1761620110628,0.23794273,-0.07083192,-0.17693278,-0.01044461,-0.02683982,-0.02890225,0.99853571,0.01518860,-0.04486126,0.02613831
1761620110630,11.30631826,-9.66173353,-0.16666153,-0.04764643,-0.24575979,0.04882541,0.99852116,0.01512904,-0.04516846,0.02619934
1761620110641,-2.44135845,1.96166803,0.11576437,-0.07429304,-0.05153894,0.00168987,0.99851397,0.01470929,-0.04545966,0.02620889
1761620110652,0.01910197,-0.17401347,0.07919357,-0.10870710,-0.08627761,-0.02010662,0.99850397,0.01412227,-0.04592556,0.02610031
1761620110664,0.08630462,0.05720117,0.05127794,-0.07557486,-0.05253142,-0.01881853,0.99849900,0.01369527,-0.04622236,0.02599399
1761620110685,-0.23367375,0.22257476,-0.09436897,-0.01414445,-0.02697158,-0.00617879,0.99848947,0.01354534,-0.04650826,0.02592849
1761620110686,31.67292062,-13.07178757,6.82318889,-0.18975259,-0.24970659,-0.01436530,0.99848205,0.01338405,-0.04672051,0.02591628
1761620110707,-2.58627636,1.20520085,-0.57850243,0.00559952,-0.01776162,-0.01436411,0.99847645,0.01344257,-0.04690612,0.02576618
1761620110717,0.42938159,0.29493622,-0.04893855,0.03812763,-0.04592547,0.00432921,0.99846249,0.01363320,-0.04713574,0.02578782
1761620110719,24.65033616,4.28791226,5.25510848,0.12048178,-0.19560607,-0.06573514,0.99845467,0.01373561,-0.04730201,0.02573195
1761620110740,-2.22600608,-0.37970895,-0.35634227,0.00198808,-0.01200453,-0.01669850,0.99845287,0.01375689,-0.04743046,0.02555327
1761620110750,0.34421404,-0.05956809,0.18391654,-0.00832628,-0.00791525,-0.00297627,0.99845194,0.01371525,-0.04747003,0.02553839
1761620110752,12.58850098,-3.29688191,9.39369202,-0.06368435,-0.01230982,0.05201516,0.99845090,0.01365157,-0.04748234,0.02559041
1761620110764,-2.31614720,0.51487410,-1.58331482,-0.02349987,-0.01396075,-0.00792978,0.99845007,0.01351527,-0.04756332,0.02554441
1761620110775,0.01522469,0.14598364,-0.13251115,0.02465203,0.00314607,0.00072111,0.99844897,0.01364839,-0.04754633,0.02554831
1761620110796,-0.15277801,-0.00301557,-0.07363837,0.02431241,0.00524895,-0.00428696,0.99844923,0.01390610,-0.04749069,0.02550287
1761620110806,0.09163619,0.02795158,0.16292103,0.04735608,0.02767165,-0.00997036,0.99845379,0.01414525,-0.04735095,0.02545252
1761620110808,4.49454430,2.89998174,12.24078754,-0.02707473,0.12186255,-0.04455866,0.99846108,0.01411818,-0.04722908,0.02540796
1761620110819,-0.83350344,-0.72352875,-1.77810332,-0.05352886,0.01686302,-0.00488753,0.99847051,0.01381574,-0.04713381,0.02538034
1761620110840,-0.02618735,0.02029954,-0.16672344,-0.04715083,0.00827263,-0.00026368,0.99848115,0.01333244,-0.04704901,0.02537764
1761620110850,0.13502606,-0.23851583,-0.00453603,0.01530984,0.00916664,0.00092803,0.99848222,0.01341282,-0.04700089,0.02538251
1761620110853,3.78413573,-0.37284425,3.78413573,0.01139253,0.17824514,0.24135599,0.99848458,0.01342592,-0.04679591,0.02566007
1761620110873,-0.50085843,0.21043185,-0.50526706,0.00331105,0.01840286,0.01327264,0.99848951,0.01346036,-0.04660452,0.02579811
1761620110884,0.06722517,0.15354585,-0.03272500,0.05392023,0.03398595,-0.01023313,0.99849557,0.01375422,-0.04641929,0.02574234
1761620110886,3.80303152,16.12989181,5.65010716,0.35776380,0.34308653,-0.15163296,0.99850669,0.01402254,-0.04616198,0.02562861
1761620110897,-0.62935701,-2.12061929,-0.78409757,-0.00310465,0.02295747,-0.02705234,0.99851711,0.01400454,-0.04602882,0.02547171
1761620110918,0.06111466,-0.12796287,0.01100416,-0.00840960,0.01328773,0.00328811,0.99852372,0.01391834,-0.04589263,0.02550541
1761620110931,0.24895842,-0.38103436,0.21139319,-0.02446123,0.02087526,0.00621968,0.99853100,0.01376179,-0.04575902,0.02554522
1761620110942,-0.18060493,0.53338324,0.14116031,-0.00932564,0.02644457,0.02208083,0.99853521,0.01371096,-0.04561490,0.02566556
1761620110953,0.02371464,0.09631619,-0.09841574,0.05407799,0.01304998,0.03207329,0.99852971,0.01401380,-0.04554182,0.02584517
1761620111002,-0.04611561,-0.00437679,-0.05588526,0.00477722,0.00263060,0.00551494,0.99852751,0.01412988,-0.04547790,0.02597918
1761620111011,3.17182562,1.47463060,1.16953630,0.17307174,0.01003164,-0.00644334,0.99851860,0.01494332,-0.04543075,0.02594890
1761620111041,-0.78944877,-0.48721590,-0.28597649,0.00924813,0.00726312,-0.01262119,0.99852629,0.01508066,-0.04532289,0.02576147
1761620111052,0.07122636,0.36467251,0.28943008,0.05303623,0.00844724,0.01320772,0.99852207,0.01537236,-0.04527643,0.02583412
1761620111064,0.04042787,0.15883705,-0.12334733,0.07588000,-0.00830333,-0.01061412,0.99851382,0.01585799,-0.04532957,0.02576619
1761620111085,-0.23350168,-0.16588770,-0.20068947,0.05767994,-0.00781621,-0.00325996,0.99850166,0.01644056,-0.04540852,0.02573326
1761620111095,0.24748240,0.00871809,0.12487371,0.05081585,-0.01072926,-0.03232981,0.99849893,0.01671750,-0.04546699,0.02555706
1761620111107,-0.07264074,-0.39320888,-0.01352917,-0.02485326,-0.01361040,-0.03181700,0.99850241,0.01657460,-0.04554525,0.02537412
1761620111118,0.02847800,-0.26912507,-0.01783365,0.00601464,-0.02751612,-0.00343845,0.99849549,0.01660738,-0.04569521,0.02535538
1761620111129,0.08592395,0.10333844,0.13241470,0.00178690,-0.01570405,-0.00775754,0.99849237,0.01661747,-0.04578394,0.02531155
1761620111140,-0.04009884,0.30801282,0.12049837,0.00940432,-0.03637469,-0.00840824,0.99848333,0.01667014,-0.04598764,0.02526446
1761620111152,-0.00506803,0.11152886,0.08222204,0.02905887,-0.02208963,0.00296385,0.99847439,0.01683432,-0.04611245,0.02528120
1761620111153,19.98636442,4.71635875,15.50812219,0.08036274,-0.26527427,0.05271206,0.99846166,0.01690263,-0.04633793,0.02532601
1761620111165,-2.90651681,-0.76962269,-2.32623149,0.01251320,-0.02666778,0.00057434,0.99845323,0.01697458,-0.04649127,0.02532931
1761620111176,-0.03426785,-0.11187383,0.02552955,-0.00408203,-0.04968825,-0.00146017,0.99844105,0.01695213,-0.04676455,0.02532128
1761620111187,0.09457927,-0.13669660,0.18521774,-0.03281893,-0.01939823,0.00490025,0.99843841,0.01677162,-0.04687125,0.02534823
1761620111198,-0.23839923,0.07071265,-0.12609546,-0.02566075,-0.05376267,0.00926240,0.99842544,0.01662920,-0.04716963,0.02539964
1761620111209,-0.13932422,0.45498067,0.00774023,-0.01200681,-0.03818907,-0.00908547,0.99841779,0.01656257,-0.04738158,0.02534922
1761620111220,-0.00273969,0.16488532,-0.15321703,0.04877697,-0.04689687,0.01725983,0.99839827,0.01683572,-0.04764420,0.02544587
1761620111231,0.15756906,0.00013498,0.08880537,0.01863147,-0.02234900,0.00341348,0.99839011,0.01693912,-0.04776824,0.02546481
1761620111242,0.03578675,-0.24797797,-0.01515967,0.04198769,-0.03340013,-0.00391909,0.99837791,0.01717006,-0.04795194,0.02544326
1761620111254,-0.01303622,-0.02569821,0.03975369,0.00743448,-0.02515013,-0.00187708,0.99837062,0.01721206,-0.04809404,0.02543265
1761620111265,-0.03767371,-0.19169255,0.03260488,-0.00908190,-0.03533344,-0.01299946,0.99836385,0.01716166,-0.04829014,0.02536051
1761620111276,-0.10836329,-0.06845270,0.08127246,-0.03537190,-0.02536659,-0.01171837,0.99836204,0.01696534,-0.04843092,0.02529547
1761620111287,-0.00969011,-0.10742400,0.06804774,0.00381085,-0.01923786,0.00097695,0.99835646,0.01698611,-0.04853577,0.02530079
1761620111298,-0.07126069,0.22218808,-0.03186175,-0.00805356,-0.01500042,0.00203687,0.99835282,0.01694061,-0.04862052,0.02531230
1761620111309,0.08206019,-0.09999186,-0.17758016,0.04510613,-0.01027312,0.01098897,0.99834421,0.01719095,-0.04867754,0.02537329
1761620111320,-0.05992861,0.22068940,0.05968009,0.02572966,-0.00477406,0.01488945,0.99833840,0.01733246,-0.04870379,0.02545518
1761620111331,-0.11089645,0.02493477,-0.12493442,0.04794729,-0.00579432,0.01311722,0.99833032,0.01759857,-0.04873595,0.02552798
1761620111343,-0.12314896,0.24156955,0.18249744,0.00722561,0.00453456,0.00962171,0.99832946,0.01763903,-0.04871056,0.02558187
1761620111354,0.01453723,-0.24116699,0.02457325,0.02124391,0.00404082,0.00093707,0.99832831,0.01775906,-0.04868773,0.02558716
1761620111365,-0.07799576,-0.14903514,0.10399435,0.00749797,-0.00944985,0.00885421,0.99832383,0.01779992,-0.04873923,0.02563542
1761620111376,0.02963848,0.05913612,-0.02269196,0.01233465,0.00322458,0.00259500,0.99832309,0.01787085,-0.04872069,0.02565034
1761620111387,-0.11545773,0.07519194,0.08865763,0.04174016,0.00724673,0.01352099,0.99831910,0.01809416,-0.04868192,0.02572267
1761620111398,0.09464967,0.31885533,-0.06781132,0.03955288,0.00864041,0.02604914,0.99831360,0.01831763,-0.04863310,0.02586985
1761620111410,0.14174707,0.09239775,-0.14209203,0.07416573,0.01788648,0.03666556,0.99830513,0.01874779,-0.04852936,0.02608251
1761620111442,-0.03628043,-0.12935731,-0.13033451,0.03058165,0.00222361,0.00603153,0.99829492,0.01924169,-0.04849345,0.02617992
1761620111444,-1.78537133,55.68926054,78.13248568,0.82638962,-0.05655348,0.45886693,0.99827007,0.01990280,-0.04853869,0.02654702
1761620111454,0.20616158,-8.19231570,-10.70192052,0.02903953,-0.00293015,0.02596112,0.99826249,0.02005816,-0.04855437,0.02668591
1761620111466,0.03112106,-0.05063167,-0.08501449,0.03123653,-0.02099379,0.02857981,0.99824895,0.02023308,-0.04867193,0.02684595
1761620111477,0.00000000,0.27024985,0.04941712,0.04463913,-0.01434732,0.04175730,0.99823361,0.02048306,-0.04875228,0.02707979
1761620111488,0.02909078,0.02261046,-0.20245609,0.10116902,-0.00422000,0.02774886,0.99821613,0.02105973,-0.04877633,0.02723796
1761620111499,0.00258196,0.17643254,0.07207984,0.07500197,-0.00954260,-0.00621690,0.99820590,0.02146474,-0.04882786,0.02720439
1761620111510,0.17251960,-0.28344077,-0.02970198,0.05045408,-0.01319994,0.01351853,0.99819431,0.02174223,-0.04890046,0.02727874
1761620111550,-0.04144602,-0.10674676,-0.18397143,0.00923733,-0.00267701,0.00391293,0.99818544,0.02192837,-0.04895440,0.02735759
1761620111578,-0.04496405,0.30728643,0.29040863,0.09556383,0.00649173,0.01709665,0.99815349,0.02324715,-0.04886482,0.02759352
1761620111599,0.00550431,0.06982213,-0.08222274,0.10394873,0.00861968,0.00278321,0.99813153,0.02431782,-0.04877603,0.02762219
1761620111610,-0.28508538,0.32102790,0.66468581,0.09803951,0.01277112,-0.01925013,0.99812428,0.02488155,-0.04870260,0.02751150
1761620111621,-0.37497969,0.14303988,0.53362495,0.05649838,-0.00445216,0.00082569,0.99811475,0.02520641,-0.04872820,0.02751625
1761620111642,0.33562997,-0.61149394,-0.78810725,0.01369551,0.00912510,0.01097298,0.99811263,0.02534816,-0.04863375,0.02762982
1761620111652,-0.08395909,0.06475133,0.44530202,0.01037381,-0.00735772,0.00838592,0.99810827,0.02540107,-0.04867128,0.02767259
1761620111664,0.04986532,-0.18651409,-0.17238598,0.00822325,0.01664960,0.00912384,0.99811036,0.02545041,-0.04857138,0.02772733
1761620111676,0.05297817,-0.01068315,-0.07758720,-0.00048395,0.00457298,0.00956056,0.99811018,0.02544753,-0.04854417,0.02778422
1761620111687,-0.09480931,0.04096548,-0.04427416,0.01157570,0.00980811,-0.00071809,0.99811130,0.02551235,-0.04848925,0.02778020
1761620111698,0.07529559,0.04332693,0.15402859,0.02308296,0.03237344,-0.00006388,0.99811630,0.02563007,-0.04832414,0.02777987
1761620111709,-0.05687120,-0.43340623,-0.04303975,0.00982188,0.00115482,0.00645419,0.99811423,0.02568409,-0.04831779,0.02781537
1761620111720,0.04770799,-0.14678300,0.07008431,0.02367813,0.02283162,0.00435599,0.99811630,0.02581551,-0.04819107,0.02783954
1761620111721,-0.84574158,-11.82383753,40.63083515,0.13072149,0.05141139,-0.03164307,0.99811628,0.02592008,-0.04814995,0.02781423
1761620111733,0.18111522,1.85342236,-5.65261529,0.03236486,0.00090726,0.01104005,0.99811002,0.02610295,-0.04814482,0.02787661
1761620111744,0.01493619,0.39060720,0.19339117,0.00431048,0.01013756,-0.00079806,0.99811229,0.02612752,-0.04808704,0.02787206
1761620111765,-0.00096489,-0.07624392,-0.32414149,-0.00012480,-0.00578177,0.00797824,0.99810720,0.02612624,-0.04814601,0.02795343
1761620111766,3.40990816,11.31658975,37.90772905,0.17921546,-0.05010389,0.15413114,0.99809747,0.02627858,-0.04818860,0.02808445
1761620111786,-0.24857638,-0.94732309,-3.20304145,0.02112254,-0.00903719,0.01667108,0.99808259,0.02649297,-0.04828032,0.02825366
1761620111788,2.96829444,18.63640810,46.49786099,0.09925212,-0.10013875,0.07203351,0.99807449,0.02657733,-0.04836544,0.02831489
1761620111800,-0.54030649,-2.47483487,-6.33442661,0.02897010,-0.01595485,0.02170868,0.99806194,0.02674536,-0.04845798,0.02844080
1761620111811,-0.16089347,0.25217529,0.17135698,0.00060358,-0.02788971,0.00632902,0.99805340,0.02674868,-0.04861137,0.02847561
1761620111822,0.12638697,-0.02892187,0.03134134,0.02419560,-0.01889853,0.01009213,0.99804326,0.02688055,-0.04871437,0.02853061
1761620111833,0.07633535,-0.04385199,0.05965731,0.02225458,-0.01613346,0.00467567,0.99803443,0.02700962,-0.04880795,0.02855773
1761620111844,0.08063445,-0.02044496,-0.02368284,0.04212606,-0.03510161,-0.00559109,0.99801982,0.02723710,-0.04899749,0.02852754
1761620111855,0.12783559,0.10166692,0.09242067,0.04512403,-0.03379450,0.00438440,0.99800334,0.02748303,-0.04918167,0.02855143
1761620111866,-0.08146091,-0.13416646,-0.17581419,0.04618674,-0.03438713,0.00521736,0.99798552,0.02774629,-0.04937768,0.02858117
1761620111877,0.02237702,-0.21483422,0.11683388,0.03881664,-0.02575228,0.01956552,0.99796975,0.02795590,-0.04951674,0.02868682
1761620111888,-0.06532633,0.00422149,0.08700791,-0.00134994,-0.02972216,0.00929208,0.99796019,0.02794834,-0.04968319,0.02873886
1761620111899,-0.18521276,-0.19467802,-0.19260745,0.01891798,-0.02669898,0.00684134,0.99794877,0.02805334,-0.04983137,0.02877683
1761620111911,-0.15095679,0.03785799,-0.19684656,0.01427003,-0.03293070,0.01357619,0.99793510,0.02813325,-0.05001578,0.02885285
1761620111922,0.07374931,-0.02120601,-0.04475626,0.04302010,-0.02184198,0.01635853,0.99791976,0.02836986,-0.05013591,0.02894283
1761620111933,0.04827092,0.01885638,0.06494761,0.05173323,-0.02780001,0.00824299,0.99790247,0.02865698,-0.05029020,0.02898857
1761620111944,0.13821724,0.20889530,0.11643673,0.01690445,-0.02560861,0.00355527,0.99789193,0.02875165,-0.05043361,0.02900848
1761620111955,-0.04561580,-0.07780820,-0.08743028,0.04838647,-0.02143570,-0.00468927,0.99787877,0.02902261,-0.05055365,0.02898222
1761620111966,0.01433372,0.01599498,0.11764405,0.03745244,-0.03022447,0.01571862,0.99786197,0.02922673,-0.05071837,0.02906789
1761620111977,-0.05956559,-0.08256475,-0.09928760,0.03227811,-0.02077081,0.01384657,0.99784847,0.02940748,-0.05083469,0.02914543
1761620111989,-0.10362778,-0.11084065,-0.07271949,0.01764681,-0.02952300,0.01272349,0.99783492,0.02950719,-0.05100149,0.02921732
1761620112000,0.13337433,-0.13045477,0.16368668,0.00719565,-0.00992492,-0.00338158,0.99783134,0.02954856,-0.05105856,0.02919788
1761620112013,-0.17641117,-0.17203243,-0.24281453,0.02344971,-0.03922408,0.01766800,0.99781053,0.02969981,-0.05131156,0.02931183
1761620112070,0.04632146,0.02665816,-0.13197141,0.00266296,-0.00387261,0.00433135,0.99779898,0.02977557,-0.05142173,0.02943506
1761620112088,-0.64360323,0.08894716,1.62873794,0.02156674,-0.03271996,0.06391650,0.99776060,0.02997075,-0.05171785,0.03001351
1761620112133,0.20683048,0.01853450,-0.62331879,0.01493076,0.00326894,0.01444224,0.99774450,0.03030520,-0.05164462,0.03033701
1761620112144,-1.90024111,-0.17496604,2.19534392,-0.08245694,0.11675952,0.11311133,0.99777210,0.02985169,-0.05100245,0.03095912
1761620112176,0.39189713,0.08803612,-0.58552113,0.03075249,0.07981657,0.01691778,0.99781353,0.03034680,-0.04971740,0.03123150
1761620112199,0.19815698,-0.02193341,-0.07721432,-0.04310536,0.04895980,-0.00475374,0.99785751,0.02985756,-0.04916171,0.03117754
1761620112212,-0.85500807,0.55801223,0.22488895,0.01727799,0.06923388,-0.03712388,0.99788372,0.02996987,-0.04871169,0.03093624
1761620112233,0.46517094,-0.18867366,-0.37502706,0.03956784,0.02595183,-0.02749023,0.99789329,0.03038335,-0.04844049,0.03064897
1761620112243,-0.44284106,0.29302642,0.05058091,0.06754002,0.03602411,-0.00359820,0.99789219,0.03073118,-0.04825496,0.03063044
1761620112255,0.29811354,-0.19248884,-0.17590217,0.07470861,0.03593484,0.00817493,0.99788714,0.03118317,-0.04803756,0.03067989
1761620112266,-0.13692502,-0.14745843,-0.07011094,0.10245627,0.04231331,0.03108497,0.99787572,0.03172619,-0.04781330,0.03084464
1761620112277,0.01139129,-0.13165530,0.10431062,0.05663432,0.03851773,0.03860627,0.99786925,0.03204051,-0.04759952,0.03105891
1761620112288,-0.01548047,-0.21944775,0.11997364,0.00516887,0.04943361,0.01990053,0.99787793,0.03206919,-0.04732517,0.03116936
1761620112299,0.07616696,-0.34203328,0.01096750,-0.01533205,0.03633296,0.04528008,0.99788240,0.03198257,-0.04711989,0.03142519
1761620112301,-35.25940444,-18.13379193,-3.04876745,-0.21859401,0.25380818,0.20403799,0.99789303,0.03179676,-0.04690415,0.03159862
1761620112322,3.08422398,1.45706560,0.05633967,-0.03022353,0.01965515,0.03245054,0.99790184,0.03148244,-0.04669974,0.03193611
1761620112323,-46.40807453,-32.09382168,-16.68828165,-0.20329595,0.26559742,0.15075568,0.99791231,0.03132997,-0.04650054,0.03204917
1761620112345,3.29548031,2.19983261,1.20245145,-0.01628298,0.01455764,0.01018668,0.99792155,0.03115492,-0.04634404,0.03215868
1761620112355,-0.44726550,-0.37689108,-0.05948466,-0.04526027,0.03279522,0.01846577,0.99793333,0.03092636,-0.04617843,0.03225193
1761620112356,-19.31012721,-19.82816615,-4.08001480,0.00775088,0.21957350,0.05034347,0.99794077,0.03093334,-0.04598081,0.03229724
1761620112368,3.23283803,3.46793758,0.59728811,-0.02058185,0.03505415,0.00165847,0.99795295,0.03081911,-0.04578626,0.03230645
1761620112379,0.04644141,0.04257129,0.06192188,-0.03695429,0.02957642,-0.00105960,0.99796697,0.03061401,-0.04562211,0.03230057
1761620112390,0.07496878,-0.01959749,0.10908156,-0.04154854,0.03714328,0.02161767,0.99797987,0.03037718,-0.04541040,0.03242379
1761620112401,-0.02605217,-0.35299045,-0.00366139,-0.05516265,0.03909896,0.03625868,0.99799221,0.03007655,-0.04519731,0.03262140
1761620112422,0.13512240,0.13868461,0.00227341,-0.03655219,0.02698976,0.01077846,0.99801269,0.02969458,-0.04491526,0.03273403
1761620112423,-37.82189012,-72.01661882,11.78019036,-0.79257743,0.41609341,0.16127119,0.99803658,0.02917940,-0.04464480,0.03283886
1761620112434,4.07674413,8.18929208,-1.17286825,-0.08682484,0.03465436,-0.01419249,0.99806218,0.02868884,-0.04444900,0.03275867
1761620112445,0.10936600,0.23879021,0.03292140,-0.05134589,0.02233039,0.00213876,0.99807533,0.02840644,-0.04432619,0.03277043
1761620112457,-0.10033340,0.21622507,0.00693795,-0.02593104,0.01093337,-0.01804525,0.99808566,0.02825863,-0.04426387,0.03266758
1761620112468,0.05450818,-0.07511356,-0.00543771,-0.02185846,0.03041880,-0.00464260,0.99809762,0.02813513,-0.04409200,0.03264135
1761620112480,-0.10274648,-0.06091903,0.16278467,-0.08024167,0.01351563,0.03006084,0.99810791,0.02768979,-0.04401699,0.03280818
1761620112490,-0.05325409,-0.16623931,0.27550118,-0.11659608,0.02728253,0.02833941,0.99812697,0.02704851,-0.04386694,0.03296405
1761620112501,-0.18704099,0.08726844,0.06928847,-0.08690344,0.03524542,0.01175399,0.99814565,0.02658358,-0.04367837,0.03302693
1761620112512,-0.20420531,0.27701928,-0.04373290,-0.05067949,0.01846610,0.00594437,0.99815658,0.02629977,-0.04357496,0.03306022
1761620112523,-0.30372331,0.14154234,-0.15291723,-0.02874765,0.03179624,0.00124300,0.99816813,0.02614166,-0.04340008,0.03306706
1761620112534,-0.06830437,0.10332224,-0.15585754,-0.00904152,0.01342524,0.02081734,0.99816886,0.02609058,-0.04332423,0.03318468
1761620112545,0.07387576,0.12157369,-0.08225782,0.05186445,0.04534840,0.05161433,0.99816274,0.02637324,-0.04307708,0.03346597
1761620112557,-0.09884777,-0.06327664,0.01789485,0.05279105,0.04513307,0.08594479,0.99814962,0.02666623,-0.04282659,0.03394297
1761620112568,0.17521093,-0.04466903,0.14392327,0.01364584,0.07799231,0.09547433,0.99814788,0.02674333,-0.04238594,0.03448240
1761620112579,-0.06751677,-0.05861944,0.03630421,-0.01080237,0.05726983,0.10203520,0.99814325,0.02668391,-0.04207095,0.03504359
1761620112590,0.26761269,0.19875594,0.18128825,-0.03075214,0.07667055,0.09504119,0.99814702,0.02651170,-0.04164160,0.03557582
1761620112601,-0.18023689,0.03290950,-0.10998735,0.02519426,0.02332169,0.06040213,0.99813668,0.02665153,-0.04151216,0.03591105
1761620112612,0.20124610,-0.04347835,0.01548047,0.03796456,0.01747893,0.05150812,0.99812474,0.02686223,-0.04141515,0.03619692
1761620112623,0.32508986,-0.27290374,0.03870117,0.03560930,-0.00286832,0.03817659,0.99811103,0.02705987,-0.04143107,0.03640880
1761620112639,0.41994865,-0.05931506,-0.03853750,0.02293814,-0.02003161,0.00923657,0.99809730,0.02723534,-0.04158432,0.03647946
1761620112667,0.09151600,-0.00048192,-0.06846698,0.00576942,-0.00153201,0.00776716,0.99809012,0.02731727,-0.04160607,0.03658976
1761620112679,0.71786752,-0.33518358,1.95939776,0.01334140,-0.04422648,-0.06193434,0.99809038,0.02739732,-0.04187143,0.03621815
1761620112690,-0.36178928,0.35299585,-1.01185770,0.00607261,-0.03006977,-0.02531243,0.99808764,0.02742980,-0.04203230,0.03608273
1761620112701,-0.01736127,-0.12900467,-0.08250222,0.01080340,-0.08290373,-0.12765028,0.99809186,0.02748976,-0.04249242,0.03537427
1761620112703,5.05189638,4.14933573,42.58778718,-0.20052583,-0.37878898,-0.42442482,0.99809612,0.02728924,-0.04287121,0.03494985
1761620112713,-1.20263428,-0.57583736,-7.82124770,-0.03364803,-0.06676906,-0.05278576,0.99809550,0.02711763,-0.04321173,0.03468064
1761620112724,0.00910616,-0.22549481,0.09413491,-0.04849310,-0.06117281,-0.00219610,0.99808845,0.02684850,-0.04355124,0.03466845
1761620112735,0.04984583,-0.45860651,0.10931290,-0.10426471,-0.04498537,-0.01166413,0.99809511,0.02627504,-0.04379866,0.03460430
1761620112746,-0.33102745,-0.53884323,1.15859607,-0.13156128,-0.04119717,-0.02037636,0.99810780,0.02555145,-0.04402524,0.03449223
1761620112757,-0.10273500,0.90763182,-1.18752319,-0.08889523,-0.05031364,-0.03290869,0.99811442,0.02504475,-0.04431203,0.03430465
1761620112769,-0.21544886,0.19916942,-0.30223566,-0.05708172,-0.06034597,-0.03807753,0.99811464,0.02471653,-0.04465902,0.03408570
1761620112780,-0.33478313,0.14640131,-0.08971096,-0.01154442,-0.08224337,-0.03566915,0.99810299,0.02465534,-0.04509491,0.03389666
1761620112791,0.02920843,0.26303049,0.13359207,0.01914375,-0.04972983,-0.02615205,0.99809277,0.02476159,-0.04537091,0.03375151
1761620112802,-0.09288282,-1.32702696,0.00387012,0.05493347,-0.02108155,0.03593445,0.99807307,0.02506647,-0.04548791,0.03395095
1761620112813,-0.41797267,0.48987220,0.48376467,-0.02520902,-0.01889651,0.02488175,0.99806708,0.02492656,-0.04559279,0.03408904
1761620112824,0.07740235,-0.25488351,-0.05031153,-0.04570416,-0.00688904,0.04561202,0.99806296,0.02467291,-0.04563102,0.03434219
1761620112835,0.03534112,0.63390548,0.26356421,-0.10811569,-0.01211211,0.04587440,0.99806584,0.02405124,-0.04570067,0.03460597
1761620112846,0.40653588,0.12597378,0.06960452,-0.07917023,0.00397893,0.06438906,0.99806491,0.02362372,-0.04567918,0.03495367
1761620112857,-0.30387969,-0.11063211,-0.32329180,-0.02058051,-0.01031231,0.07405186,0.99805064,0.02351053,-0.04573590,0.03536095
1761620112869,-0.00583914,0.09122544,-0.02546137,0.00700014,-0.00437783,0.02522830,0.99804352,0.02355008,-0.04576063,0.03550349
1761620112879,0.17403425,0.38042522,0.16796081,-0.00722778,0.01374195,0.04015106,0.99804007,0.02351069,-0.04568574,0.03572232
1761620112891,-0.15665099,0.33633628,-0.04331691,0.01445469,0.00194944,0.01981234,0.99803473,0.02359091,-0.04567492,0.03583227
1761620112902,0.47989455,-0.35792538,0.00387012,0.04485701,0.01833754,0.00639699,0.99803219,0.02383987,-0.04557315,0.03586778
1761620112913,0.09916506,-0.79495668,-0.28807449,0.02698051,0.00265620,-0.01617244,0.99803250,0.02399366,-0.04555801,0.03577559
1761620112924,0.25580651,0.38870058,0.54092706,-0.03262464,0.01479802,-0.00914510,0.99804232,0.02381422,-0.04547662,0.03572530
1761620112935,-0.25759007,0.13818444,-0.10810756,-0.03127932,0.00428145,-0.03635933,0.99805450,0.02364375,-0.04545328,0.03552714
1761620112946,-0.18888010,0.35386193,0.62170708,-0.06499149,0.01457147,-0.06121138,0.99807892,0.02327980,-0.04537168,0.03518435
1761620112957,0.01520527,0.24423459,-0.43335010,-0.04871107,-0.00764769,-0.04063478,0.99809129,0.02300701,-0.04541451,0.03495680
1761620112968,0.30504818,0.22777271,0.36866323,-0.01287961,0.02033035,-0.02983278,0.99810385,0.02293553,-0.04530168,0.03479123
1761620112979,-0.18576563,0.35961856,-0.42571291,0.04187807,-0.01279104,-0.02740120,0.99810054,0.02316796,-0.04537267,0.03463915
1761620112991,0.04644141,0.05690282,-0.06966211,0.08905812,-0.02624724,-0.04671603,0.99809128,0.02366223,-0.04551834,0.03437988
1761620113002,0.02840218,-0.95991448,-0.29176143,0.11194352,-0.03351994,-0.01275438,0.99807048,0.02427792,-0.04570270,0.03430973
1761620113013,0.09676079,-0.08397778,0.19545679,0.05249344,-0.03087160,0.01094206,0.99805325,0.02457188,-0.04587558,0.03437100
1761620113024,-0.09481787,0.14932077,0.13061646,0.01503924,-0.00708302,0.01547391,0.99804642,0.02465535,-0.04591489,0.03445688
1761620113035,0.10836329,0.00640988,0.06192188,0.02975589,0.01366572,0.02936633,0.99804017,0.02482049,-0.04583905,0.03461987
1761620113046,0.07740235,0.73556418,0.05805176,0.03579351,0.03245528,0.03357439,0.99803699,0.02501915,-0.04565892,0.03480620
1761620113057,-0.16616206,-0.12378626,-0.70070937,0.10272323,0.05360218,0.00876065,0.99803438,0.02559440,-0.04535875,0.03485526
1761620113069,-0.01919222,0.51680193,-0.12762828,0.10839998,0.05504284,-0.02121174,0.99803690,0.02625022,-0.04502574,0.03472693
