UnixTime(ms),Ax,Ay,Az,Gx,Gy,Gz,QuatW,QuatX,QuatY,QuatZ
1761623449014,0.00000000,0.00000000,0.00000000,0.00000000,0.00000000,0.00000000,0.98583196,0.16618183,-0.01419267,0.01781877
1761623449021,-1.43639458,-0.36888790,-1.91391937,-0.03604205,0.04315645,0.02248042,0.98585678,0.16603947,-0.01402220,0.01790757
1761623449032,0.08539105,0.14003718,0.64829534,-0.01983254,0.02983546,0.00037665,0.98587705,0.16593237,-0.01386109,0.01790960
1761623449043,0.14003643,-0.06990735,0.08120527,-0.06609486,0.02636036,0.01561257,0.98593919,0.16556555,-0.01371479,0.01799625
1761623449054,-0.04427634,-0.14194463,-0.18083759,-0.05631037,-0.00648063,0.00429422,0.98599022,0.16525584,-0.01375043,0.01801987
1761623449066,0.21971610,-0.05580970,-0.30985914,-0.05713305,0.00805198,0.00294027,0.98604412,0.16493589,-0.01370534,0.01803634
1761623449077,0.09028127,0.01600711,-0.09930940,-0.02723685,0.00931828,-0.00124231,0.98607047,0.16478337,-0.01365316,0.01802938
1761623449088,-0.12971993,0.13129391,-0.12069180,-0.03725324,-0.01577368,-0.01046708,0.98610515,0.16457475,-0.01374149,0.01797076
1761623449099,0.06177070,-0.05835006,-0.09162589,-0.01161404,0.00668531,0.00448252,0.98611597,0.16451029,-0.01370439,0.01799564
1761623449110,-0.01011803,0.09929550,0.07968893,-0.04084880,-0.00564939,-0.00462974,0.98615448,0.16427950,-0.01373631,0.01796948
1761623449121,0.02952551,-0.06143337,-0.09644723,-0.03165610,-0.00526117,-0.00206893,0.98618327,0.16410539,-0.01376525,0.01795810
1761623449133,0.06681678,-0.00622034,0.04858774,-0.04970314,-0.00360291,0.00455419,0.98622880,0.16382705,-0.01378542,0.01798361
1761623449144,-0.02138241,-0.14311363,-0.12330521,-0.03849223,-0.01300665,-0.00956860,0.98626454,0.16361149,-0.01385826,0.01793002
1761623449155,-0.00675111,-0.15033500,0.11645123,-0.06101323,-0.00678750,0.00010080,0.98632011,0.16327287,-0.01389593,0.01793058
1761623449166,-0.00946476,-0.12488026,0.11029169,-0.07253627,-0.00273547,0.02586554,0.98638441,0.16286667,-0.01391125,0.01807543
1761623449177,-0.05527443,0.07291214,-0.05057284,-0.02992273,0.00387695,0.00652837,0.98641146,0.16270060,-0.01388973,0.01811166
1761623449188,-0.02322070,0.14742728,-0.18455622,-0.02130662,-0.00168593,0.00856055,0.98642995,0.16258234,-0.01389909,0.01815917
1761623449200,0.13044097,0.19198889,-0.03625206,-0.04832511,0.00739021,0.02351709,0.98647304,0.16230931,-0.01385733,0.01829205
1761623449211,-0.09740845,0.16191594,-0.07897299,-0.04084730,-0.00757553,-0.00227810,0.98650963,0.16208465,-0.01389900,0.01827952
1761623449222,0.03195046,-0.14767494,0.33092582,-0.00458900,0.01885899,0.00279862,0.98651499,0.16205918,-0.01379433,0.01829505
1761623449233,-0.10954898,0.12885308,0.06148672,-0.03017620,0.00775381,-0.01813269,0.98654522,0.16189019,-0.01375091,0.01819351
1761623449244,-0.03088570,0.00136610,-0.04561580,-0.03506504,0.02919558,-0.01582443,0.98658132,0.16169383,-0.01358742,0.01810489
1761623449255,0.02317751,0.22595859,-0.27047412,-0.03926996,0.03601499,0.01166476,0.98661856,0.16147588,-0.01338753,0.01816963
1761623449266,-0.07322882,-0.08452201,-0.12198738,-0.01846984,0.03435942,0.02475890,0.98663521,0.16137429,-0.01319856,0.01830580
1761623449277,-0.08124450,0.01130244,0.15907646,-0.05007866,0.05282486,0.02385749,0.98668246,0.16109385,-0.01290274,0.01843940
1761623449288,-0.24090844,-0.36789618,0.22950449,-0.00827407,0.05276064,0.04124711,0.98668950,0.16104752,-0.01260728,0.01867039
1761623449300,-0.12715247,-0.01056012,0.07922070,-0.00902108,0.06767829,0.03647409,0.98669847,0.16099790,-0.01223505,0.01887100
1761623449311,-0.21391045,-0.04308447,-0.10750383,0.01348311,0.07119560,0.02660126,0.98668815,0.16107341,-0.01183635,0.01901996
1761623449322,0.44427888,0.51371231,0.06961161,-0.01854006,0.08944965,0.04445318,0.98670614,0.16096958,-0.01133543,0.01926890
1761623449333,-0.17544490,-0.04917537,-0.31239660,0.01559633,0.09078318,0.03877980,0.98669357,0.16105536,-0.01083613,0.01948219
1761623449344,0.11060844,0.00807948,0.12337944,0.01471698,0.09316802,0.03320293,0.98668191,0.16113852,-0.01030973,0.01966979
1761623449355,-0.12744416,-0.02465354,0.09625418,0.02094079,0.09324091,0.05118901,0.98666249,0.16125474,-0.00979224,0.01995388
1761623449366,-0.01548047,-0.15123693,-0.02491388,0.01146719,0.10325012,0.05050992,0.98665190,0.16131838,-0.00921920,0.02023421
1761623449378,-0.15625599,0.03337976,0.04619953,-0.01194039,0.10177901,0.03811333,0.98666348,0.16125211,-0.00865433,0.02044574
1761623449389,0.13593787,-0.02439988,0.00000000,0.02013973,0.10065129,0.03619376,0.98664577,0.16136389,-0.00809571,0.02064662
1761623449400,0.19069440,0.10774516,0.26565699,-0.04198502,0.11341630,0.04848131,0.98668415,0.16112457,-0.00744924,0.02092296
1761623449411,-0.17312742,-0.02564061,-0.09900403,-0.03014569,0.07720424,0.04254020,0.98670934,0.16095877,-0.00702462,0.02115693
1761623449422,-0.04039323,0.00969807,-0.02660042,-0.01235254,0.11060447,0.05997541,0.98671743,0.16089083,-0.00641629,0.02148680
1761623449433,-0.04859196,0.08842806,0.11891595,-0.01327153,0.11731387,0.05587561,0.98672666,0.16081717,-0.00576520,0.02179691
1761623449444,-0.07770867,0.05343568,0.09698066,-0.01477060,0.09909262,0.03248960,0.98673918,0.16073446,-0.00521028,0.02197885
1761623449456,0.14540036,0.07507600,0.15561640,-0.00382533,0.07574585,0.04493409,0.98673918,0.16071304,-0.00478610,0.02223048
1761623449467,0.12050237,0.19576686,0.13290094,0.00426388,0.06218384,0.07204202,0.98672796,0.16073649,-0.00444409,0.02262671
1761623449478,0.09024671,0.06574334,0.09018624,0.03973672,0.04955705,0.08077539,0.98668242,0.16095901,-0.00416657,0.02307905
1761623449489,0.01099701,-0.11320417,0.48753544,0.03075272,0.05622168,0.06824530,0.98664690,0.16112969,-0.00385454,0.02345782
1761623449500,-0.00377135,0.03076209,0.15971523,0.02354879,0.05243613,0.07709949,0.98661609,0.16126156,-0.00356090,0.02388957
1761623449511,-0.00997846,-0.07436326,0.05084261,0.03636946,0.06304256,0.06735192,0.98657479,0.16146523,-0.00320786,0.02426674
1761623449522,-0.05844352,0.11862763,-0.27011214,0.06281329,0.07672742,0.06359355,0.98651080,0.16181071,-0.00278586,0.02461651
1761623449533,0.03506715,0.09983910,0.09731803,0.07284718,0.10082766,0.05865256,0.98643698,0.16221865,-0.00222123,0.02494496
1761623449545,-0.03131944,0.08841096,-0.02942542,0.10246478,0.11215338,0.04443049,0.98633824,0.16278733,-0.00159878,0.02519155
1761623449556,0.07047847,0.19908085,0.17337514,0.10400078,0.13078430,0.05614301,0.98623477,0.16336973,-0.00086638,0.02550595
1761623449567,-0.06337317,0.04403149,-0.13381708,0.11444192,0.12249026,0.04077946,0.98612383,0.16400489,-0.00018656,0.02573228
1761623449578,0.11826654,0.02970462,0.03207617,0.11773411,0.14431181,0.00650141,0.98601183,0.16467009,0.00062880,0.02576901
1761623449589,0.06250196,0.00955353,-0.06055513,0.11775143,0.14497176,0.01240484,0.98590286,0.16530594,0.00141165,0.02583600
1761623449600,0.09751433,0.00517401,0.05269047,0.10028017,0.12841607,-0.00503479,0.98580799,0.16586751,0.00213078,0.02580780
1761623449611,0.17900589,-0.07350955,0.02510393,0.07780876,0.13079730,-0.00210554,0.98573370,0.16629935,0.00285670,0.02579612
1761623449622,0.00435388,-0.17010375,-0.07619294,0.08748499,0.09545873,-0.02602730,0.98565375,0.16678489,0.00338650,0.02565167
1761623449634,0.22349928,-0.10225576,0.01572235,0.08185895,0.09558221,-0.00910125,0.98557612,0.16723921,0.00391698,0.02560115
1761623449645,0.08619314,0.03549795,-0.02957150,0.06326684,0.06924252,-0.01904742,0.98551708,0.16759350,0.00430474,0.02549449
1761623449656,0.21683455,-0.03838775,-0.09739219,0.07337549,0.06266006,-0.01364731,0.98544812,0.16800074,0.00465250,0.02541875
1761623449667,0.19136718,-0.15659429,-0.05980653,0.05707974,0.04227658,-0.00762966,0.98539353,0.16832038,0.00488925,0.02537602
1761623449678,0.06233653,-0.08118635,-0.04124526,0.02940921,0.01443411,-0.01843514,0.98536786,0.16848361,0.00496936,0.02527370
1761623449689,-0.04499011,-0.36261185,0.49682631,-0.00252474,0.00879040,-0.01841273,0.98537262,0.16846959,0.00501815,0.02517151
1761623449700,0.05805176,-0.08837776,-0.11247529,0.01124418,-0.02739666,-0.01319359,0.98536458,0.16853200,0.00486609,0.02509829
1761623449711,0.10836329,0.09106870,0.01862494,0.00101541,-0.03981704,-0.00067559,0.98536478,0.16853763,0.00464511,0.02509454
1761623449722,0.23897975,0.18243975,-0.46852608,0.02381157,-0.04161044,0.01372951,0.98534129,0.16866979,0.00441417,0.02517074
1761623449734,0.03148929,-0.03230450,0.02601419,-0.00135551,-0.04965815,0.01180234,0.98534210,0.16866220,0.00413609,0.02523683
1761623449745,0.02185757,-0.08217377,0.05393118,-0.02210111,-0.05405927,0.00711938,0.98536348,0.16853843,0.00383335,0.02527670
1761623449756,0.09924138,-0.14437149,0.00197480,-0.03202479,-0.05431069,0.01029657,0.98539325,0.16836229,0.00353464,0.02533333
1761623449767,-0.03427233,-0.02053467,-0.01833271,-0.02237296,-0.05682664,0.00758630,0.98541465,0.16823701,0.00321642,0.02537581
1761623449778,-0.02180828,0.00204250,-0.00897556,-0.00301586,-0.05217287,-0.00724665,0.98541945,0.16822027,0.00292686,0.02533560
1761623449789,-0.06917835,0.00876823,0.04353882,-0.01436707,-0.04462290,0.00277658,0.98543336,0.16814053,0.00267920,0.02535101
1761623449800,-0.11842300,-0.06907036,-0.03948147,-0.00891783,-0.04837025,-0.02530820,0.98544622,0.16809059,0.00240833,0.02520928
1761623449811,-0.06206765,0.09667337,0.23358934,-0.03173766,-0.04094840,-0.00825539,0.98547766,0.16791603,0.00218311,0.02516387
1761623449823,-0.18327530,-0.00814043,0.15689070,0.01482596,-0.01958968,0.01530727,0.98546155,0.16799906,0.00207341,0.02524960
1761623449834,-0.14106059,0.10957594,0.05931300,0.02302121,-0.00538592,0.00393577,0.98543927,0.16812683,0.00204352,0.02527144
1761623449845,0.01435768,-0.06764433,-0.25455123,0.01615199,0.00211277,0.01108144,0.98542221,0.16821728,0.00205535,0.02533349
1761623449856,0.07791203,-0.10384554,-0.12242702,-0.02226687,0.00220700,0.01225546,0.98544152,0.16809370,0.00206760,0.02540151
1761623449867,-0.03047717,-0.03492176,0.11948987,-0.03301929,0.02788527,0.00565254,0.98547162,0.16791044,0.00222236,0.02543288
1761623449878,-0.06917835,0.03579859,-0.01088471,-0.01372591,0.02791218,-0.00381089,0.98548478,0.16783426,0.00237727,0.02541173
1761623449889,-0.00410953,0.04972185,0.05171160,-0.00814769,0.05355371,-0.02090153,0.98549479,0.16778863,0.00267717,0.02529469
1761623449901,-0.08147979,0.11567078,-0.01565324,-0.01667476,0.03156896,-0.03061878,0.98551440,0.16769609,0.00285238,0.02512475
1761623449912,0.06697252,-0.03391942,-0.11491920,0.00109363,0.03341590,-0.00218287,0.98551311,0.16770221,0.00303951,0.02511253
1761623449923,-0.02727775,0.01197360,-0.01187959,-0.00693009,0.03245198,-0.00006947,0.98551904,0.16766410,0.00321800,0.02511214
1761623449934,-0.00813164,-0.01398355,0.04210072,-0.01176685,0.03222412,0.01133579,0.98552794,0.16759879,0.00339684,0.02517506
1761623449945,0.10449317,-0.05055341,0.05224658,-0.01240763,0.02922243,0.02600418,0.98553538,0.16752993,0.00355902,0.02531938
1761623449956,0.14653904,0.03129371,0.09943782,-0.02263765,0.01724807,0.02014631,0.98555366,0.16740316,0.00365561,0.02543220
1761623449967,0.01710454,0.00534166,0.06946774,-0.03269897,-0.00038125,0.01629669,0.98558214,0.16722168,0.00365350,0.02552265
1761623449979,0.04015247,-0.10125799,0.09941364,-0.02825696,0.00314130,0.02003517,0.98560579,0.16706485,0.00367093,0.02563384
1761623449989,0.01112659,-0.08834752,0.04015247,-0.00848608,-0.01581401,0.01067058,0.98561255,0.16701776,0.00358316,0.02569306
1761623450001,0.14512940,0.06594317,0.12650446,-0.01842742,-0.02597369,0.00110132,0.98563023,0.16691548,0.00343901,0.02569918
1761623450012,0.21954774,-0.00326255,-0.01666152,0.00492957,-0.05520550,0.00909108,0.98562521,0.16694334,0.00312710,0.02575054
1761623450023,0.23897547,0.16535226,0.17055701,-0.01506937,-0.05876699,0.01353829,0.98563839,0.16685970,0.00280094,0.02582568
1761623450034,0.06240564,0.03210988,0.04886023,-0.00304121,-0.07284112,0.00694169,0.98564130,0.16684282,0.00239667,0.02586421
1761623450045,0.01015906,-0.05397000,0.07062964,0.01292367,-0.08724300,0.01123829,0.98562858,0.16691455,0.00191247,0.02592658
1761623450056,0.01689486,-0.06757307,0.04233035,0.00817226,-0.08525629,0.00738346,0.98562069,0.16695950,0.00144357,0.02596719
1761623450067,-0.00960696,0.15661263,0.14448459,-0.02757650,-0.10000809,-0.00043728,0.98564756,0.16680507,0.00088352,0.02596474
1761623450079,0.10566803,-0.07122490,0.00746380,0.03484244,-0.08125027,0.00870542,0.98561385,0.16699844,0.00043258,0.02601305
1761623450090,-0.05625777,0.02452770,0.07765730,0.03610377,-0.08318573,-0.00535371,0.98558045,0.16720062,-0.00003326,0.02598307
1761623450101,0.04171270,0.07284108,0.07465535,0.01420592,-0.07789787,-0.02553523,0.98557078,0.16727876,-0.00046170,0.02584263
1761623450112,-0.03842970,0.02395464,-0.10536127,0.05106916,-0.10140173,-0.00962568,0.98552275,0.16756730,-0.00103462,0.02578824
1761623450123,0.13227657,0.17145242,-0.01049777,0.03006837,-0.09646908,-0.01179478,0.98549512,0.16773568,-0.00157484,0.02572219
1761623450134,0.06602024,-0.10741111,-0.04182536,0.03245609,-0.08910620,-0.01009606,0.98546554,0.16791257,-0.00206047,0.02566717
1761623450145,-0.28615370,0.10073271,0.10413951,-0.00462360,-0.09529295,-0.01082645,0.98547026,0.16788667,-0.00259411,0.02560654
1761623450156,0.00117872,-0.09192275,0.01837575,0.00467852,-0.07891655,-0.00442098,0.98546527,0.16791241,-0.00302815,0.02558223
1761623450167,-0.04867413,-0.05378269,-0.04988364,0.02089952,-0.08354758,-0.00776356,0.98544490,0.16802944,-0.00349602,0.02553875
1761623450179,0.00958027,-0.03206966,-0.08717267,0.01486920,-0.09901897,-0.00896707,0.98543001,0.16811197,-0.00404558,0.02548898
1761623450190,0.02418823,0.13602858,0.04499011,0.00700184,-0.06112966,-0.01697530,0.98542436,0.16815083,-0.00438485,0.02539477
1761623450201,-0.10189070,-0.05895920,-0.13685596,0.03852179,-0.06469764,-0.02085637,0.98538885,0.16836655,-0.00474715,0.02527797
1761623450212,0.07523404,0.03197625,0.11631949,0.01692352,-0.06263860,-0.02226975,0.98537423,0.16846047,-0.00509480,0.02515438
1761623450223,0.07986618,-0.11092444,0.03938515,0.02082410,-0.07668244,-0.01611725,0.98535427,0.16857709,-0.00552422,0.02506412
1761623450240,-0.20977244,-0.07590022,-0.17753269,-0.00328148,-0.06002397,-0.00834981,0.98535789,0.16854887,-0.00604042,0.02499231
1761623450249,1.27346652,-0.36668271,0.84341112,-0.01750452,-0.10952869,-0.04852126,0.98537321,0.16847272,-0.00651687,0.02478124
1761623450261,-0.89894979,0.17901197,-0.53636524,-0.00881467,-0.06534883,-0.02888988,0.98538330,0.16842292,-0.00688610,0.02461802
1761623450271,0.03795012,0.10311169,-0.00301674,0.00812767,-0.04045456,-0.02849555,0.98537803,0.16846722,-0.00710657,0.02446272
1761623450283,0.08704230,-0.04361569,-0.10142366,0.02517469,-0.04768370,-0.03125656,0.98535629,0.16860820,-0.00737360,0.02428768
1761623450294,-0.04516769,0.13550256,-0.00473380,0.03606152,-0.05483631,-0.03968012,0.98532425,0.16881375,-0.00768617,0.02406150
1761623450305,-0.07782246,-0.06347263,-0.02759368,0.04270643,-0.04377440,-0.04038919,0.98528714,0.16905077,-0.00792912,0.02383734
1761623450317,-0.18987005,0.10894163,0.04339607,0.01392246,-0.03211458,-0.04048746,0.98527742,0.16913152,-0.00811538,0.02360252
1761623450327,-0.02688066,-0.04687653,0.04138195,0.01661253,-0.03984525,-0.02451072,0.98526364,0.16921956,-0.00832656,0.02347261
1761623450338,-0.08555501,0.02383473,-0.00966611,0.01263303,-0.01693722,-0.02636714,0.98525410,0.16929094,-0.00842226,0.02332363
1761623450350,0.01507419,-0.13494876,-0.09090375,0.02075161,-0.02215305,-0.03526219,0.98523742,0.16940922,-0.00854853,0.02312264
1761623450361,0.07027318,-0.08739432,-0.03076998,0.01248579,-0.02394394,-0.01458285,0.98522624,0.16947852,-0.00868142,0.02304170
1761623450372,-0.00161485,0.06777417,-0.03234110,0.01906080,-0.02107250,-0.01760873,0.98520897,0.16958621,-0.00880048,0.02294222
1761623450383,-0.16283604,0.13881183,0.01550830,0.01001322,-0.03565009,-0.02671720,0.98520106,0.16964179,-0.00899833,0.02279394
1761623450394,-0.00656800,-0.04287509,-0.04725635,0.00944103,-0.03208892,-0.01730850,0.98519269,0.16969371,-0.00917482,0.02269874
1761623450407,-0.07534793,-0.03523183,-0.10663491,0.00412869,-0.02247882,-0.00948126,0.98518815,0.16972034,-0.00931981,0.02263758
1761623450417,-0.00323564,0.05402899,-0.10654319,0.01164372,-0.02387962,-0.01529145,0.98517920,0.16977565,-0.00943324,0.02256495
1761623450433,-0.15813268,0.02042894,-0.11447870,-0.00268320,-0.01483568,-0.00984036,0.98518367,0.16975365,-0.00955489,0.02248426
1761623450438,0.45709941,0.00929441,-0.02217755,0.03596576,-0.01501558,-0.02889726,0.98516888,0.16984716,-0.00959393,0.02240913
1761623450449,-0.10015870,-0.13476022,0.06086960,-0.00553836,-0.00775964,-0.01576213,0.98517556,0.16981725,-0.00963584,0.02232401
1761623450460,-0.04121613,-0.10344069,-0.01011925,-0.00428536,-0.01172411,-0.04324378,0.98518451,0.16979325,-0.00970149,0.02208185
1761623450472,-0.01024530,0.00616086,-0.01815262,-0.02032661,-0.01969552,-0.03169785,0.98520760,0.16967638,-0.00981474,0.02189958
1761623450483,0.10348575,0.02941047,0.45349506,-0.02106408,-0.00287616,-0.01120223,0.98522856,0.16956158,-0.00983042,0.02183853
1761623450494,-0.02523773,-0.03590791,0.09630985,0.00021875,-0.02317272,-0.00838624,0.98522808,0.16956282,-0.00996250,0.02179073
1761623450506,0.04245591,-0.01385543,-0.07883114,-0.01254753,-0.00625352,-0.00679241,0.98524177,0.16948628,-0.01000065,0.02174930
1761623450517,-0.04183074,0.02514632,-0.51053332,-0.03716807,-0.02398500,0.00068415,0.98527243,0.16930044,-0.01012057,0.02175272
1761623450528,-0.00736131,0.03413182,-0.15905697,-0.01318213,-0.02527128,-0.00930341,0.98528490,0.16922596,-0.01026335,0.02170015
1761623450539,0.04527880,0.05379775,-0.06675123,0.01174310,-0.02601498,-0.02874884,0.98527553,0.16929231,-0.01041034,0.02153772
1761623450551,0.03543617,0.14846367,0.07400175,-0.01376640,-0.03294960,-0.03743857,0.98529320,0.16920627,-0.01061627,0.02130373
1761623450561,0.20424939,-0.01443906,-0.06147764,-0.01739888,-0.03597377,-0.03797802,0.98530958,0.16912276,-0.01078895,0.02112144
1761623450574,-0.10193189,-0.04453386,0.03767808,-0.01023792,-0.03516196,-0.01547816,0.98532020,0.16905877,-0.01100871,0.02102470
1761623450583,-0.03543165,-0.22492669,-0.18811164,-0.02354437,-0.05095595,0.00070038,0.98533675,0.16894576,-0.01125330,0.02102806
1761623450594,-0.00967529,-0.02259521,-0.00367359,-0.00880889,-0.03381894,0.01080673,0.98534169,0.16889687,-0.01144099,0.02108804
1761623450606,-0.06362667,0.03799754,0.00248535,-0.03293304,-0.04285184,0.00758472,0.98536981,0.16871080,-0.01168311,0.02113089
1761623450617,-0.00287622,-0.06673644,-0.18014204,-0.01412787,-0.03685369,0.00503566,0.98538028,0.16863168,-0.01188949,0.02115909
1761623450630,-0.05398903,0.00227177,0.04614082,-0.02202578,-0.03637689,-0.00736894,0.98540361,0.16848411,-0.01213321,0.02110972
1761623450639,0.14941397,-0.16039666,-0.10558991,-0.04053492,-0.05499645,-0.01277240,0.98543260,0.16830373,-0.01237795,0.02105288
1761623450689,-0.05476609,0.05491734,0.09426267,-0.00893190,-0.00769504,-0.00106947,0.98546885,0.16808043,-0.01257032,0.02102614
1761623450717,0.13401843,-0.11625813,-0.09824313,-0.04596831,-0.05209150,0.00071708,0.98556720,0.16744607,-0.01328919,0.02103604
1761623450756,-0.06197828,0.06976440,0.05384925,-0.02623708,-0.01796564,-0.00003243,0.98565047,0.16692657,-0.01364490,0.02103540
1761623450784,0.12965336,-0.04335060,-0.03282447,-0.05549588,-0.03834275,-0.00184914,0.98577073,0.16617460,-0.01416445,0.02101034
1761623450785,33.14051241,-8.70035020,-10.58103414,-0.43250979,-0.76016612,-0.12520201,0.98583499,0.16574209,-0.01492462,0.02088514
1761623450841,-1.21893498,0.33156854,0.40672389,-0.01632820,-0.03224286,0.00326423,0.98589583,0.16528409,-0.01582903,0.02097670
1761623450862,0.41661671,-0.15000148,-0.11688184,-0.05688449,-0.14488292,0.00830033,0.98596663,0.16470102,-0.01731408,0.02106178
1761623450920,-0.13786711,0.06422186,0.06475619,-0.01607889,-0.04526989,0.00250739,0.98601919,0.16423232,-0.01863369,0.02113487
1761623450960,0.21923106,-0.03431663,0.03992537,-0.01057706,-0.09980481,0.01140160,0.98600980,0.16402184,-0.02061981,0.02136176
1761623450974,0.72668901,0.19249966,0.71684365,0.03534469,-0.19120259,-0.02377771,0.98594138,0.16427632,-0.02199647,0.02119056
1761623451022,-0.36855599,0.00378576,-0.19398763,0.01385767,-0.03419810,0.00271120,0.98586712,0.16460336,-0.02280354,0.02125455
1761623451067,-0.00289613,0.00163114,0.02336905,0.00277753,-0.01842592,-0.00501153,0.98584939,0.16466600,-0.02321905,0.02114154
1761623451105,0.05520851,0.02879364,0.08243369,0.01185968,-0.00994866,-0.00198621,0.98580752,0.16489429,-0.02341056,0.02110330
1761623451152,-0.04202380,-0.01358605,-0.03090975,0.00542799,-0.01114696,-0.00691363,0.98578344,0.16502158,-0.02367196,0.02094118
1761623451191,0.17498370,0.01794924,0.15394457,-0.01568997,-0.07051434,0.00135379,0.98580003,0.16471641,-0.02504346,0.02096751
1761623451218,0.07841629,0.06770477,0.31383168,0.04059725,-0.08216402,0.00343115,0.98568122,0.16525229,-0.02612803,0.02101280
1761623451256,-0.11690801,-0.01105309,-0.32359375,0.04922165,-0.04680032,-0.03420406,0.98551098,0.16620227,-0.02703127,0.02035266
1761623451295,-0.03209318,0.01163809,-0.04747907,0.04592479,-0.03020444,-0.01128579,0.98534772,0.16709781,-0.02762026,0.02013259
1761623451299,21.27695558,6.70160426,20.01402953,0.29608996,-0.15173483,-0.14726716,0.98525746,0.16761596,-0.02788579,0.01987487
1761623451368,-1.14970087,-0.37927900,-1.03800208,0.03438853,0.00187421,-0.01245831,0.98506278,0.16881784,-0.02782029,0.01943945
1761623451400,-0.00833512,0.33854987,0.27677215,0.16651871,0.07733372,0.01792042,0.98464049,0.17142386,-0.02661002,0.01971991
1761623451409,-0.48828874,1.81487462,3.45573440,0.31623419,0.22696742,-0.03962798,0.98441254,0.17291016,-0.02554327,0.01953366
1761623451438,0.07136258,-0.65851175,-0.91803225,0.12327582,0.05417829,-0.00123123,0.98411835,0.17469150,-0.02476040,0.01951586
1761623451464,0.02969381,-0.16413182,-0.32318639,0.07767677,0.02451968,-0.00038682,0.98394995,0.17568188,-0.02444777,0.01951093
1761623451484,0.11479079,-0.09158853,0.06030535,0.05510923,0.01058879,0.00896731,0.98384784,0.17625777,-0.02433712,0.01960464
1761623451542,-0.04420682,-0.06400321,-0.16084803,0.00780656,0.00054769,-0.00142657,0.98380853,0.17648377,-0.02432126,0.01956334
1761623451563,0.35278599,-0.13085799,0.33491328,0.01461143,-0.01112617,-0.00966307,0.98378012,0.17663719,-0.02443809,0.01946188
1761623451586,-0.23052803,-0.04632289,-0.47938358,-0.01229247,-0.00839669,-0.01592548,0.98380646,0.17649705,-0.02453381,0.01928033
1761623451619,-0.02495463,0.06317321,-0.03647211,-0.01596564,-0.00759784,-0.01269002,0.98385434,0.17623522,-0.02465841,0.01907221
1761623451641,0.04985339,-0.03994235,-0.10694461,-0.06946767,-0.02539598,-0.01559447,0.98398658,0.17547455,-0.02493650,0.01890145
1761623451653,0.11256617,-0.41742160,-0.49430261,-0.07698813,-0.06084553,-0.02713726,0.98406390,0.17500492,-0.02530766,0.01873592
1761623451697,-0.09059090,0.14392550,0.20655919,-0.01251094,-0.01455197,-0.00464460,0.98410618,0.17473155,-0.02562562,0.01863443
1761623451708,0.97969985,-0.99141865,-0.93421382,-0.17786699,-0.10060528,-0.00292088,0.98426943,0.17372660,-0.02619404,0.01861793
1761623451730,-0.51124660,0.42020101,0.29109350,-0.03550530,-0.02280421,-0.00579341,0.98433393,0.17332895,-0.02644944,0.01855304
1761623451752,-0.03826798,0.09459207,0.04922741,-0.01026037,-0.01731806,-0.00335102,0.98434929,0.17321659,-0.02663908,0.01851635
1761623451788,0.00172832,0.00538858,0.06235822,-0.01448985,-0.01050271,0.00170980,0.98438899,0.17295868,-0.02682602,0.01854678
1761623451821,-0.02189765,-0.16577953,-0.10454997,-0.06783384,-0.02998669,-0.01886704,0.98457720,0.17183942,-0.02732080,0.01823548
1761623451854,0.01157273,0.21742659,0.02125877,0.00253299,-0.02821454,-0.01425641,0.98456105,0.17188159,-0.02779058,0.01799811
1761623451888,-0.03963762,-0.05544204,-0.02839635,-0.01439675,-0.02433564,0.00922682,0.98458894,0.17163829,-0.02820185,0.01815404
1761623451911,-0.21565578,0.11430433,-0.22395782,0.00457942,-0.02956565,-0.02241227,0.98457568,0.17168729,-0.02851820,0.01791423
1761623451954,0.01888418,0.00216211,0.15240710,-0.02835143,-0.01439027,0.01749856,0.98466961,0.17105221,-0.02884054,0.01830620
1761623451976,-0.52968376,-0.37805979,-0.02933090,-0.15760142,-0.06834661,0.03004015,0.98493213,0.16937376,-0.02956844,0.01862612
1761623451998,-0.17481109,0.26129903,0.02600320,0.00424698,-0.02104410,0.05124316,0.98490606,0.16942090,-0.02980202,0.01919492
1761623452044,0.30769855,0.03703869,0.08565519,0.00291676,-0.00845141,0.02092434,0.98487889,0.16948857,-0.02999810,0.01968037
1761623452056,-2.25699068,0.14349683,-0.07413827,0.06435543,-0.00387876,0.04746857,0.98480592,0.16987470,-0.03002137,0.01996518
1761623452074,1.17931176,-0.13074240,0.00773160,0.08172296,0.02245839,0.00727712,0.98468289,0.17061429,-0.02981812,0.02003104
1761623452102,0.25256445,0.13212093,-0.01056004,0.04832952,0.02679232,-0.01728396,0.98458269,0.17128366,-0.02944705,0.01979165
1761623452111,-0.35744888,1.41564039,-0.34560762,0.11696889,0.01393684,-0.06510533,0.98450244,0.17178662,-0.02938712,0.01951170
1761623452126,0.28419485,-0.53250421,0.17582382,0.07887413,-0.00461453,-0.04652625,0.98440159,0.17239790,-0.02942288,0.01915112
1761623452137,0.00277967,0.13699229,0.09827021,0.09388848,-0.03072503,-0.04456262,0.98430820,0.17292837,-0.02959648,0.01889934
1761623452146,-0.03914197,-0.06835969,-0.05789813,0.11119105,-0.06891433,-0.03423542,0.98422005,0.17339537,-0.02988592,0.01875556
1761623452161,0.16172715,-0.41417899,0.07443096,0.04430517,-0.02209721,-0.01230477,0.98415775,0.17372988,-0.03005275,0.01866265
1761623452175,0.02688649,-0.13893932,0.00841187,0.04107853,-0.03593801,0.00848632,0.98409554,0.17402975,-0.03031510,0.01872460
1761623452178,-1.67942922,-4.34741105,0.07759009,0.13729041,-0.20281259,0.14175556,0.98405061,0.17421509,-0.03058890,0.01891598
1761623452200,0.27599071,0.48946556,0.01671810,0.02288347,-0.01263430,0.00808321,0.98399928,0.17447024,-0.03072977,0.01900610
1761623452202,3.05815195,-0.24562049,-3.34925257,0.43257956,-0.36029732,-0.11630510,0.98392631,0.17483793,-0.03103602,0.01890724
1761623452213,-0.34185706,0.39595074,0.41766707,0.04842236,-0.02855410,-0.01349346,0.98387679,0.17509699,-0.03118879,0.01883505
1761623452245,-0.01847234,-0.06306680,-0.02487776,0.03428710,-0.01036225,-0.00083668,0.98377496,0.17564044,-0.03135303,0.01882179
1761623452246,32.62978248,46.84298697,-48.40894290,1.46952470,-0.25917025,-0.19556741,0.98356069,0.17681606,-0.03156036,0.01866534
1761623452275,-1.78698800,-2.62524948,2.72589815,0.02024514,-0.00422431,-0.00295165,0.98350746,0.17710557,-0.03162077,0.01862313
1761623452286,0.65327730,-0.39200456,-0.18069264,0.03818671,-0.01874514,0.00457411,0.98346620,0.17731369,-0.03172293,0.01864806
1761623452297,-0.18223927,-0.34202374,0.00395616,0.01647746,-0.03630772,-0.01175250,0.98344344,0.17740926,-0.03193352,0.01857989
1761623452309,0.10639263,-0.04020879,0.05597587,-0.00782581,-0.04468805,-0.01131733,0.98344442,0.17736348,-0.03219494,0.01851369
1761623452319,0.33947512,0.36173892,0.10894422,0.00095313,-0.05459719,-0.05050963,0.98343905,0.17736848,-0.03248158,0.01824851
1761623452330,0.01710969,0.07561607,0.02114702,-0.01081626,-0.06407828,-0.03233659,0.98344134,0.17730953,-0.03283081,0.01807228
1761623452342,-0.09800786,0.04225261,0.06137632,-0.03477225,-0.06198398,-0.03933506,0.98346978,0.17710785,-0.03319031,0.01784413
1761623452363,-0.18978270,-0.01954853,-0.06184174,-0.01960470,-0.04189630,-0.01560795,0.98349484,0.17690200,-0.03363022,0.01768025
1761623452374,1.42679134,-0.84757656,-0.30168237,-0.06406251,-0.13706312,-0.04130811,0.98353503,0.17655927,-0.03436351,0.01745925
1761623452386,-0.78232849,0.33220186,0.35234836,-0.05906795,-0.09774124,-0.02121493,0.98357980,0.17620781,-0.03494507,0.01733302
1761623452388,26.46153652,-17.20088323,2.89714987,-0.26497988,-0.51946983,-0.03701110,0.98361075,0.17592958,-0.03549051,0.01729416
1761623452409,-2.96860866,1.89465224,-0.23193100,-0.02834074,-0.05432251,-0.00745060,0.98364456,0.17563201,-0.03606090,0.01721593
1761623452419,0.60470589,-0.34914437,0.12014344,-0.04941229,-0.08454812,0.00917101,0.98367390,0.17537012,-0.03650901,0.01726454
1761623452421,17.80794913,-8.20968839,2.35487182,-0.13819402,-0.34457560,0.21345033,0.98368231,0.17522502,-0.03687081,0.01748866
1761623452443,-2.11423461,1.06745242,-0.28409814,-0.01909911,-0.01913989,0.01310794,0.98370849,0.17502066,-0.03707561,0.01762891
1761623452453,0.46750783,-0.15678497,0.33162860,-0.06307210,-0.02754137,0.01835102,0.98376114,0.17468322,-0.03722295,0.01772709
1761623452465,-0.00536003,0.07462832,0.06128291,-0.05137603,-0.04057398,0.02021380,0.98380151,0.17439552,-0.03745017,0.01784029
1761623452467,21.15137044,-1.11816784,14.26591893,-0.17410818,-0.11336102,-0.11746435,0.98383159,0.17421270,-0.03756920,0.01771695
1761623452487,-2.46468754,0.31012288,-1.58195339,0.00582833,-0.01467478,-0.03167907,0.98382131,0.17427099,-0.03771594,0.01740016
1761623452497,0.38037778,0.47881188,0.32808622,0.07837473,0.02352687,-0.06106142,0.98376047,0.17467070,-0.03759596,0.01708875
1761623452508,-0.10398651,0.21984805,-0.16132769,0.08192947,0.01635349,-0.04973239,0.98368719,0.17512950,-0.03750438,0.01681025
1761623452510,10.56209838,21.83753376,6.35738948,0.71822476,0.12781565,-0.28973152,0.98355102,0.17595546,-0.03735739,0.01647706
1761623452521,-2.42501621,-4.28271075,-1.64309320,0.19009520,0.03843326,-0.08079934,0.98339133,0.17692495,-0.03716138,0.01606498
1761623452531,-0.09502397,-0.09788216,-0.04682030,0.15239548,0.04045786,-0.08210419,0.98326200,0.17772502,-0.03694898,0.01563393
1761623452543,-0.05651735,-0.31322627,-0.11621242,0.14062958,0.05140599,-0.06275594,0.98313337,0.17852661,-0.03665596,0.01527622
1761623452554,0.11148544,-0.16946001,0.14469932,0.10071666,0.05555350,-0.03251217,0.98304436,0.17909566,-0.03634209,0.01509253
1761623452564,0.09011352,-0.15306631,-0.13139320,0.12987443,0.06610399,-0.03333424,0.98293638,0.17977101,-0.03599834,0.01491919
1761623452576,-0.08456727,-0.12544000,-0.01158979,0.09036089,0.05012693,0.00495487,0.98284758,0.18031317,-0.03569758,0.01494892
1761623452586,0.14076183,-0.06283115,-0.09127749,0.09982127,0.05560219,-0.00009658,0.98276432,0.18082226,-0.03541401,0.01494843
1761623452598,0.06512661,-0.21371199,0.05341791,0.07190034,0.02556137,0.00680313,0.98269409,0.18122850,-0.03526959,0.01498687
1761623452609,0.21426922,-0.20799285,-0.06443274,0.04272708,0.00142306,0.00447569,0.98265024,0.18146563,-0.03526169,0.01501171
1761623452620,0.14611507,-0.24669506,-0.23180227,0.02212063,-0.01375043,-0.02601876,0.98262617,0.18159283,-0.03534076,0.01486210
1761623452631,0.33989280,-0.17850983,0.02882977,0.00734511,-0.02622595,-0.01585345,0.98261534,0.18163139,-0.03547844,0.01477887
1761623452642,-0.06832867,-0.10383534,0.03590660,0.01304489,-0.04285703,-0.00060660,0.98259319,0.18170444,-0.03571844,0.01477547
1761623452654,-0.04188219,0.04078430,0.24421849,-0.01457555,-0.05241164,-0.00119969,0.98259790,0.18161844,-0.03602767,0.01476839
1761623452666,0.16673822,-0.11535294,0.01628431,-0.02235686,-0.05254125,0.00347918,0.98261087,0.18148319,-0.03634555,0.01478944
1761623452677,0.19833788,-0.13863222,-0.08229217,-0.03484367,-0.09599033,-0.02127605,0.98262818,0.18129329,-0.03686869,0.01467349
1761623452687,0.23713396,-0.12479726,-0.07768729,-0.06869150,-0.08919158,-0.01272121,0.98267796,0.18093266,-0.03733695,0.01460670
1761623452698,0.14252208,0.01558346,0.13635589,-0.09526800,-0.10422339,-0.02294513,0.98275145,0.18042774,-0.03788933,0.01448509
1761623452710,0.47567582,-0.13747206,0.07219140,-0.05388912,-0.11294817,-0.03985491,0.98278699,0.18011248,-0.03855008,0.01425194
1761623452722,-0.51957196,0.25966074,-0.00361908,-0.05513585,-0.11072963,-0.02285881,0.98282296,0.17978443,-0.03920892,0.01411593
1761623452732,0.23552461,-0.21907112,0.09740911,-0.08161188,-0.13416180,-0.06215195,0.98287752,0.17935596,-0.03991327,0.01378963
1761623452743,-0.00206261,0.46012570,0.39598344,-0.09931945,-0.13313433,-0.07761597,0.98295089,0.17882461,-0.04062554,0.01337439
1761623452755,-0.14908894,-0.10802029,-0.22664487,-0.06451326,-0.13935728,-0.04243116,0.98299007,0.17843430,-0.04146865,0.01311768
1761623452776,-0.37971537,0.13976264,-0.08270997,-0.03527952,-0.07762575,-0.01345027,0.98302423,0.17806563,-0.04227984,0.01297712
1761623452778,54.60342045,-12.48376416,12.79803551,-0.27859847,-0.75537598,-0.22498056,0.98304785,0.17774524,-0.04314852,0.01271840
1761623452788,-11.50789208,2.89276672,-2.63153466,-0.04352831,-0.14808189,-0.03571621,0.98305687,0.17752325,-0.04390374,0.01253624
1761623452799,0.30823588,-0.30789128,-0.05135245,-0.04069467,-0.16751837,-0.04712084,0.98305885,0.17731367,-0.04476646,0.01229357
1761623452820,-0.66880253,0.23149609,-0.05065176,-0.01944681,-0.07737075,-0.02172409,0.98306121,0.17710267,-0.04560593,0.01205786
1761623452831,1.54743915,-0.08633027,0.58029969,-0.02536433,-0.15508191,-0.03000115,0.98304865,0.17696570,-0.04644337,0.01189586
1761623452833,58.89080974,-5.33345987,16.90898904,-0.09354430,-0.84032031,-0.23624477,0.98303136,0.17688619,-0.04715765,0.01169505
1761623452844,-9.42307112,0.81280637,-2.57903841,-0.02889104,-0.10873932,-0.01361271,0.98303197,0.17672296,-0.04777202,0.01161814
1761623452854,0.01781862,-0.00321528,-0.04048489,-0.02973838,-0.10832084,-0.02743296,0.98303385,0.17657278,-0.04831904,0.01147960
1761623452865,-0.78968464,-0.03843070,-0.31563394,-0.00627160,-0.10145384,-0.03138536,0.98301463,0.17653860,-0.04887197,0.01130855
1761623452876,0.14257391,0.07955609,0.21031098,-0.02694389,-0.06563017,-0.03785301,0.98302560,0.17639041,-0.04923293,0.01110036
1761623452887,0.35256769,-0.23019502,-0.28611822,-0.01238633,-0.05295658,-0.00126196,0.98302325,0.17632166,-0.04952684,0.01109336
1761623452898,-0.71210159,0.25182975,0.08756140,-0.00387953,-0.02850825,-0.02593741,0.98302074,0.17630013,-0.04968506,0.01094940
1761623452921,-0.28813665,0.03401911,-0.12255687,-0.00863903,-0.01443922,-0.01390519,0.98303196,0.17620035,-0.04985184,0.01078880
1761623452932,0.70203483,-0.27908576,0.41773628,-0.01615107,-0.00521651,-0.04705651,0.98304845,0.17611556,-0.04987922,0.01054175
1761623452943,-0.51246366,0.13888971,-0.19899334,-0.03025092,0.00664392,-0.03465996,0.98308365,0.17594161,-0.04984102,0.01034246
1761623452966,-0.11816452,0.05728387,-0.09635028,-0.01932377,0.00163308,-0.01893758,0.98312605,0.17572229,-0.04982248,0.01012752
1761623452978,0.75090825,-0.06343421,0.68222024,-0.03033391,0.04411842,-0.06210201,0.98317406,0.17554635,-0.04956660,0.00976732
1761623452988,-0.76926418,0.15941271,-0.44169275,-0.02313503,0.02706738,-0.03444400,0.98320525,0.17542258,-0.04942179,0.00958305
1761623452999,0.11744845,-0.11233992,0.06183917,-0.01042360,0.03062015,-0.01943970,0.98322407,0.17536786,-0.04926103,0.00948099
1761623453001,7.97778028,-2.16873910,11.98643308,-0.03666055,0.14521565,-0.22854942,0.98324165,0.17532753,-0.04910129,0.00922959
1761623453022,-0.96874882,0.23337529,-1.39157292,-0.01511578,0.01160067,-0.01658417,0.98327831,0.17516579,-0.04897717,0.00905214
1761623453033,0.00859007,-0.15951817,0.05362284,-0.02157391,0.02008710,-0.03178818,0.98330577,0.17505037,-0.04886970,0.00888207
1761623453055,-0.07936359,0.07085489,-0.09957473,0.00315514,0.00763972,-0.01434307,0.98330516,0.17508571,-0.04878414,0.00872143
1761623453067,0.35848360,0.12815597,0.99250147,-0.00089492,0.07182571,-0.06368721,0.98332924,0.17508065,-0.04837832,0.00836159
1761623453076,-0.15070289,0.24512160,-0.31123055,-0.00900225,0.04747632,0.00003927,0.98334792,0.17503789,-0.04815281,0.00836178
1761623453088,-0.21326685,-0.02417024,-0.21262476,0.03129461,0.03823076,-0.01685925,0.98332761,0.17521627,-0.04793489,0.00826568
1761623453110,-0.03635195,-0.11421636,-0.19053363,0.02175035,0.01172620,-0.00851778,0.98329152,0.17545879,-0.04780415,0.00817071
1761623453120,0.07126687,-0.10011361,0.87252597,-0.02170406,0.07219119,-0.02197706,0.98333040,0.17534701,-0.04743236,0.00805753
1761623453133,-0.02098783,0.17428805,-0.45283154,0.00424970,0.05119566,-0.01087763,0.98334142,0.17537315,-0.04711751,0.00799063
1761623453144,-0.06066144,0.27582331,-0.15128721,0.05209803,0.02937003,-0.01063853,0.98329574,0.17567792,-0.04694569,0.00792839
1761623453155,-0.04021285,-0.07606735,-0.13626378,0.04132451,0.05136525,-0.04814461,0.98327111,0.17590107,-0.04666832,0.00766841
1761623453167,-0.06738125,-0.12866208,-0.14308990,-0.00169880,0.01718269,-0.03242583,0.98327911,0.17589113,-0.04656780,0.00747872
1761623453177,0.05831191,-0.21126448,0.10646763,-0.00532048,0.01720692,-0.00827581,0.98328881,0.17586294,-0.04647661,0.00743486
1761623453199,0.04631465,-0.00485294,-0.01771916,-0.02120424,0.01105789,-0.00263144,0.98333516,0.17563605,-0.04635829,0.00740670
1761623453210,0.08028058,-0.38151254,0.64409782,-0.07094606,0.03360207,0.00350257,0.98341261,0.17524939,-0.04617516,0.00742579
1761623453223,0.12165759,0.11898800,-0.34003163,-0.02405878,-0.00931727,-0.00883760,0.98343864,0.17508940,-0.04623712,0.00736702
1761623453243,0.00057661,0.09163368,-0.11407617,-0.01133308,-0.00744740,-0.01551273,0.98345663,0.17497494,-0.04631233,0.00721034
1761623453254,0.47119860,-0.07439266,0.39979924,-0.00173120,-0.02565691,-0.01918786,0.98345236,0.17496524,-0.04645601,0.00710289
1761623453266,-0.44338247,0.05540657,-0.29307212,0.00116722,-0.00450510,-0.00839272,0.98345024,0.17497213,-0.04648259,0.00705338
1761623453277,-0.15450542,-0.03156257,0.07935790,-0.01769784,0.00713617,-0.01494274,0.98347017,0.17487391,-0.04644299,0.00697044
1761623453289,-0.04634275,-0.20438621,-0.16823008,-0.02026065,0.02647405,-0.00823258,0.98349790,0.17475944,-0.04629341,0.00692393
1761623453299,0.17088746,-0.22893659,-0.20810493,0.00511191,-0.00517792,0.00830787,0.98349154,0.17478627,-0.04632059,0.00696755
1761623453310,0.20597733,0.07906236,0.23732782,-0.04500795,-0.02879883,0.00455148,0.98352785,0.17453873,-0.04647899,0.00699258
1761623453321,0.18373994,0.13568061,0.06453065,-0.02860459,-0.06430341,-0.01927521,0.98353973,0.17438140,-0.04683265,0.00688656
1761623453332,0.04595407,0.04903874,-0.06115441,0.00785972,-0.03774351,-0.02004766,0.98352323,0.17442385,-0.04703647,0.00677831
1761623453344,-0.11894223,0.10064098,-0.05061758,0.00016593,-0.03666534,-0.01421203,0.98351335,0.17442482,-0.04725096,0.00669517
1761623453346,14.69858414,-7.16230873,2.66772310,0.02603228,-0.30830676,-0.11679454,0.98349560,0.17444955,-0.04754385,0.00658421
1761623453356,-2.81787788,1.35341932,-0.62898453,0.02053439,-0.02938559,-0.03664674,0.98347075,0.17455530,-0.04769519,0.00639548
1761623453367,-0.03650946,0.03490968,0.01238584,-0.00127975,-0.06060139,-0.00885632,0.98345569,0.17454807,-0.04803759,0.00634544
1761623453389,-0.08326969,0.01745459,0.00341646,-0.02331248,-0.01438311,0.00276681,0.98349238,0.17429746,-0.04819221,0.00637519
1761623453399,0.41795841,-0.17927190,0.13087292,-0.06503098,-0.02941994,0.00229843,0.98354567,0.17395280,-0.04834813,0.00638737
1761623453411,-0.20579235,0.08233668,-0.13081517,-0.02758778,-0.02663195,0.00619297,0.98356612,0.17379279,-0.04850260,0.00642329
1761623453421,0.05527891,0.07542647,-0.24011792,0.00590903,-0.03622001,-0.00944199,0.98355128,0.17382440,-0.04869637,0.00637277
1761623453423,11.91680263,-0.89470151,-13.18040115,0.04440910,-0.25464046,-0.04707158,0.98353312,0.17386437,-0.04892555,0.00633041
1761623453434,-2.05761219,0.27611650,2.16016194,-0.01652384,-0.01377202,-0.00761559,0.98354488,0.17377927,-0.04899648,0.00629119
1761623453446,-0.14366837,-0.07826975,0.06839139,-0.01531956,-0.03914417,-0.01531638,0.98355006,0.17368582,-0.04923526,0.00619776
1761623453457,0.11626984,-0.06525340,0.37186886,-0.03860396,-0.01321624,0.00699951,0.98358364,0.17347350,-0.04930794,0.00623626
1761623453477,-0.10434571,0.03057509,-0.06154957,0.00057719,-0.01222451,-0.00137729,0.98357650,0.17347933,-0.04943141,0.00622234
1761623453488,0.18799235,0.04949434,-0.01026834,0.00931894,-0.02957610,-0.02951257,0.98356058,0.17352965,-0.04959112,0.00606298
1761623453500,0.01499676,0.09569302,0.03611032,0.01638422,-0.01006281,-0.02805799,0.98354137,0.17362714,-0.04965100,0.00589603
1761623453522,-0.10691690,0.00552317,-0.02308854,0.00845483,-0.01290713,-0.01924559,0.98351841,0.17372268,-0.04979685,0.00567856
1761623453534,0.42531855,0.09120059,0.11814358,-0.00525083,-0.02877576,-0.04308293,0.98351679,0.17369327,-0.04995799,0.00543729
1761623453545,-0.45282972,-0.11291621,-0.09935997,-0.00521741,-0.01176328,-0.00411952,0.98351875,0.17366379,-0.05002445,0.00541402
1761623453555,-0.00376528,-0.09498253,-0.00687272,0.00779418,0.01587268,-0.00973834,0.98351604,0.17370471,-0.04994112,0.00536289
1761623453566,-0.28599417,0.01493495,-0.22976847,-0.00276088,0.01096047,-0.00417647,0.98352164,0.17369022,-0.04988358,0.00534096
1761623453578,0.04304780,-0.08985785,0.02418482,-0.00444907,0.01014802,0.00213704,0.98352937,0.17366352,-0.04982269,0.00535379
1761623453590,-0.01463018,-0.02050445,0.04441782,-0.00828218,0.01186262,-0.00647104,0.98354216,0.17361300,-0.04975033,0.00531431
1761623453612,0.01916112,0.00423740,0.02231033,-0.00515643,0.00387029,-0.00417369,0.98355452,0.17355654,-0.04970795,0.00526861
1761623453622,0.20951550,-0.30956281,-0.12461922,-0.01039495,0.04023269,-0.02416276,0.98357527,0.17350249,-0.04949874,0.00514296
1761623453634,0.21246018,0.30625738,0.06453631,0.00319980,0.02116246,-0.02062193,0.98357875,0.17352089,-0.04937706,0.00502439
1761623453645,0.00821002,0.00028329,0.01723608,-0.03436037,0.02705622,-0.02606240,0.98362101,0.17332847,-0.04922554,0.00487844
1761623453656,-0.36560850,-0.06157783,-0.20447492,-0.02375209,0.00610659,0.00180254,0.98364655,0.17319308,-0.04919073,0.00488871
1761623453679,-0.00269052,0.08269362,0.09616352,-0.00501763,0.01407868,-0.00310926,0.98366449,0.17313688,-0.04903305,0.00485389
1761623453681,-4.62549206,-2.81152498,-38.49575599,0.27382585,0.09099147,-0.22050273,0.98362825,0.17336963,-0.04895571,0.00466646
1761623453699,0.38623960,0.29489973,3.19883431,0.00026954,0.00645127,-0.01489000,0.98363146,0.17337216,-0.04889539,0.00452724
1761623453710,0.05022706,0.14574653,-0.40351064,-0.00389281,-0.00271794,-0.02228201,0.98363501,0.17335094,-0.04891020,0.00440580
1761623453721,0.03530453,-0.00793866,0.27915527,0.00727520,-0.01578922,-0.02460051,0.98362423,0.17339095,-0.04899704,0.00427050
1761623453733,-0.00521098,-0.02220264,0.32772173,0.00758269,-0.01902962,-0.04937330,0.98361165,0.17343683,-0.04911217,0.00397179
1761623453744,0.00089535,-0.03763667,-0.04373085,-0.02020891,-0.00799285,-0.05475116,0.98363056,0.17332366,-0.04915693,0.00366519
1761623453756,-0.02036995,0.05826287,-0.07411966,-0.07006914,-0.03427572,-0.03173408,0.98369012,0.17293477,-0.04934716,0.00348906
1761623453758,2.46279656,6.80588643,-15.30005972,-0.14390197,-0.27855259,-0.08681699,0.98370227,0.17278368,-0.04963964,0.00339790
1761623453779,-0.22128721,-0.70015273,1.59583209,-0.00253570,-0.02098864,-0.00867647,0.98369594,0.17275629,-0.04986632,0.00330420
1761623453781,4.29012020,1.92290086,-25.01290983,0.09617666,-0.42315829,-0.36992121,0.98366615,0.17283323,-0.05020485,0.00300826
1761623453800,-0.35681951,-0.26141325,2.09309027,-0.00408306,-0.03254826,-0.03710466,0.98365789,0.17279322,-0.05052382,0.00264464
1761623453811,0.20346909,-0.09136323,-0.01905559,-0.04482766,-0.03538905,0.03244255,0.98369066,0.17254667,-0.05071846,0.00282307
1761623453824,-0.16154035,0.07246009,-0.16683275,-0.01004476,-0.02421111,0.01852177,0.98369343,0.17248590,-0.05086494,0.00293513
1761623453846,-0.06977013,0.07624670,0.02907462,0.00772129,-0.00270381,-0.00365282,0.98367711,0.17257083,-0.05089468,0.00289495
1761623453856,-0.24857292,0.28359720,-0.87375232,-0.00224974,0.00056809,-0.00609121,0.98367945,0.17255891,-0.05089167,0.00286266
1761623453867,0.16896102,-0.34570529,0.83780761,-0.00034933,0.00408303,-0.00695082,0.98368111,0.17255693,-0.05086860,0.00282339
1761623453879,0.00932424,-0.21965913,0.05074178,0.00186802,0.01323590,-0.02933110,0.98368354,0.17256730,-0.05079514,0.00266060
1761623453889,0.06312045,-0.00292140,-0.08508926,-0.02651757,0.00890699,-0.02029064,0.98371116,0.17242543,-0.05074749,0.00255205
1761623453901,0.03942758,0.03386777,0.03121203,-0.03050270,0.00941204,-0.00464693,0.98374592,0.17224394,-0.05069149,0.00252440
1761623453912,0.05447167,0.07981057,-0.06053189,-0.01109055,0.01711780,0.00688703,0.98376134,0.17218294,-0.05059734,0.00256228
1761623453922,-0.13415615,0.03639179,-0.00873950,0.01427201,0.01479063,0.00416781,0.98375277,0.17225288,-0.05052486,0.00258270
1761623453933,0.02374165,-0.07965105,-0.05904017,0.02497272,0.00740540,-0.00344694,0.98373165,0.17238523,-0.05048562,0.00256443
1761623453944,0.00024230,0.11405121,0.06138784,0.00768771,-0.00511177,-0.00594026,0.98372224,0.17243059,-0.05051578,0.00252938
1761623453946,0.59963844,3.55387082,-26.57300784,0.04647648,-0.10831064,0.07924393,0.98371180,0.17246545,-0.05059701,0.00258882
1761623453957,-0.01343132,-0.27895527,2.97839494,0.01287372,-0.00845729,0.00696899,0.98369662,0.17253754,-0.05064437,0.00262784
1761623453968,0.00433595,-0.07065547,-0.00015230,-0.00288106,-0.00401398,0.01904479,0.98369796,0.17252184,-0.05066625,0.00273164
1761623453979,-0.02859578,-0.10761044,0.10886464,-0.00138838,-0.00931272,0.01826418,0.98369639,0.17251427,-0.05071700,0.00283118
1761623453991,0.00402289,-0.03626771,0.39906526,-0.01386960,-0.01362165,0.01319297,0.98370679,0.17242897,-0.05080077,0.00291231
1761623454002,0.09854450,0.03819280,-0.07340906,-0.01810883,-0.01722192,0.01189700,0.98371938,0.17232756,-0.05089722,0.00297894
1761623454046,-0.01826138,-0.00203420,0.07620745,0.00220584,-0.00722940,0.00334948,0.98370268,0.17237532,-0.05105373,0.00305145
1761623454069,0.16534885,0.01756082,-0.52668188,-0.01381921,-0.01948484,0.03551996,0.98371782,0.17221294,-0.05128268,0.00346881
1761623454080,-0.26994901,-0.47683817,-0.65325279,-0.01550481,0.01032433,0.05648984,0.98373350,0.17213309,-0.05122951,0.00375973
1761623454113,-0.04867706,0.08244124,0.40717408,-0.01561544,-0.00175589,0.00088512,0.98377738,0.17187310,-0.05125874,0.00377447
1761623454134,0.00213901,-0.13883538,-0.40629542,-0.03234308,0.01313575,-0.01391939,0.98384406,0.17153511,-0.05112148,0.00362901
1761623454136,2.98548573,-31.26241853,-78.23953935,-0.66627609,0.08652273,-0.17483779,0.98395907,0.17090215,-0.05103928,0.00346292
1761623454157,-0.11545549,2.75453225,6.90186612,-0.04840028,0.00426310,-0.01292812,0.98405259,0.17037943,-0.05099324,0.00332329
1761623454178,0.00972150,0.10304818,0.21240461,-0.03465661,-0.00048303,-0.00720320,0.98411432,0.17002246,-0.05099821,0.00324910
1761623454189,-0.08401648,-0.16563493,-0.50380593,-0.05848168,-0.00956337,0.01519652,0.98416778,0.16969497,-0.05105177,0.00333420
1761623454200,-0.10106424,0.02951103,0.11498310,-0.02651327,-0.01876512,0.00002615,0.98418827,0.16954384,-0.05115873,0.00333435
1761623454212,0.00557244,0.06902415,0.18240718,-0.03676696,-0.00622346,0.02099929,0.98422328,0.16932691,-0.05119545,0.00345825
1761623454223,-0.05573898,-0.00270669,-0.23661516,-0.01703467,-0.01308010,0.02642244,0.98423513,0.16923322,-0.05126739,0.00360357
1761623454246,-0.00943506,0.07352577,0.39048200,-0.00087456,-0.00145689,0.01361634,0.98423539,0.16922339,-0.05128378,0.00375675
1761623454247,3.97995385,-26.79386095,-85.66378076,-0.21131249,-0.00734132,0.22056860,0.98426870,0.16902264,-0.05129075,0.00396629
1761623454269,-0.36846184,2.39141941,7.65693118,-0.02516710,-0.00460337,0.00153550,0.98431146,0.16875838,-0.05133909,0.00398242
1761623454270,7.01241550,-17.65466074,-73.81973171,-0.02811033,0.03400689,-0.07686171,0.98431698,0.16873590,-0.05131188,0.00392093
1761623454291,-0.49940853,1.37275680,5.61361545,-0.00922642,-0.00944860,-0.02485018,0.98432941,0.16863902,-0.05141109,0.00366000
1761623454302,0.33558697,-0.13439397,-0.80647488,-0.06352030,-0.01233246,-0.01949589,0.98438245,0.16831189,-0.05147460,0.00355960
1761623454324,-0.12347549,0.09091726,0.41726881,-0.02184690,-0.01458461,0.00081033,0.98441596,0.16806502,-0.05163941,0.00356875
1761623454335,0.25256498,-0.36343318,-2.36787042,-0.10475194,0.00492932,0.03228264,0.98451222,0.16750460,-0.05161304,0.00374147
1761623454346,-0.27994944,0.16546317,1.42740696,-0.04191658,-0.01245865,0.02013743,0.98454867,0.16726567,-0.05168405,0.00385625
1761623454357,-0.15472959,-0.03965063,-0.23148923,-0.03289126,-0.01269875,0.00249316,0.98457517,0.16708806,-0.05175263,0.00386971
1761623454368,0.00102203,-0.01849231,-0.02657272,-0.04764209,-0.02591244,0.01706190,0.98461107,0.16683079,-0.05189255,0.00396185
1761623454378,0.00360089,-0.04764456,0.08962688,-0.05364766,-0.00584883,-0.00253321,0.98465806,0.16654378,-0.05192384,0.00394829
1761623454390,0.13122015,0.01362305,0.22123313,-0.03256330,-0.00284514,-0.00029416,0.98468886,0.16635654,-0.05194020,0.00394660
1761623454401,-0.00315488,0.03236566,0.02861924,-0.01972121,-0.00933898,0.00563388,0.98470504,0.16624314,-0.05199390,0.00397900
1761623454413,-0.06084406,0.10146311,0.04326689,-0.01665230,-0.00878026,0.00215356,0.98471849,0.16614739,-0.05204439,0.00399138
1761623454425,0.05524669,-0.03395743,-0.13418209,-0.01350647,0.01323132,0.01369878,0.98473543,0.16606905,-0.05196765,0.00407083
1761623454437,-0.06375244,0.07285288,0.04339231,-0.01438177,0.00823206,-0.00732829,0.98475392,0.16597701,-0.05191496,0.00402393
1761623454447,-0.08421633,-0.23925348,-0.80442020,-0.03371023,0.01146992,-0.02007740,0.98478415,0.16581688,-0.05186048,0.00392856
1761623454458,0.04147136,0.11068631,0.74826937,-0.06063981,0.00257173,-0.01332242,0.98484180,0.16548033,-0.05184621,0.00385463
1761623454480,0.02481855,0.03930233,0.34679770,-0.00937558,-0.00119774,-0.00031037,0.98485822,0.16537861,-0.05185920,0.00385126
1761623454490,0.13217008,-0.45452593,-2.60358155,-0.02982550,-0.01643467,-0.03739758,0.98488027,0.16522501,-0.05194384,0.00365866
1761623454502,-0.20693097,0.40945264,1.47892224,-0.03259013,-0.00815919,-0.01863648,0.98491063,0.16503110,-0.05199239,0.00354777
1761623454524,0.01251640,0.05257902,0.35338912,-0.01434724,-0.01446183,0.00869006,0.98492806,0.16487543,-0.05214930,0.00364206
1761623454526,-4.09323667,-9.25780110,-75.39759416,-0.23287571,-0.19796497,0.02386195,0.98495925,0.16461927,-0.05236706,0.00366831
1761623454546,0.45117275,0.93059343,8.21117209,-0.02438583,-0.00405285,0.01251773,0.98499811,0.16437053,-0.05240840,0.00379599
1761623454557,0.03384481,-0.12214590,-0.84309618,-0.05577529,-0.02510288,0.02663977,0.98503858,0.16408329,-0.05253768,0.00393318
1761623454569,0.12815594,0.13596682,0.17832900,-0.03322944,-0.00232964,0.01254404,0.98507099,0.16388225,-0.05255177,0.00400908
1761623454581,-0.08142155,0.03814091,-0.10177694,-0.01782784,-0.01571457,0.00968087,0.98508361,0.16377439,-0.05264685,0.00406764
1761623454592,-0.10872593,0.02472453,0.05662763,-0.02457183,-0.01642525,0.02395072,0.98510146,0.16363310,-0.05274129,0.00420536
1761623454603,-0.12829642,-0.14897992,0.03154897,-0.00767016,-0.00199441,0.01560167,0.98510734,0.16359207,-0.05275196,0.00428883
1761623454614,-0.02144027,0.07008809,0.17663793,-0.03417934,-0.00468011,0.01350782,0.98513791,0.16339725,-0.05277864,0.00436582
1761623454626,-0.02148061,0.08710274,-0.16517673,-0.02017811,-0.00288982,0.01192615,0.98515563,0.16328324,-0.05279497,0.00443321
1761623454635,0.03098228,0.04237117,-0.58400395,-0.00122367,0.00315139,0.02056044,0.98515694,0.16327749,-0.05278016,0.00452984
1761623454646,0.07131983,0.07036483,0.37634592,-0.00454920,-0.00140228,0.01551429,0.98516037,0.16325178,-0.05278808,0.00461750
1761623454659,-0.02173144,-0.02645436,0.13675678,-0.00290304,0.00013983,-0.00030402,0.98516338,0.16323393,-0.05278722,0.00461563
1761623454681,0.03812302,-0.01313558,0.31629065,0.00226363,-0.00040014,0.00284197,0.98515883,0.16325906,-0.05279166,0.00464717
1761623454691,-0.03604698,-0.17930936,-1.76530131,-0.01283909,0.01672951,-0.00861859,0.98517492,0.16319165,-0.05270383,0.00460193
1761623454703,0.22826717,0.15074867,1.55313318,-0.02598227,-0.01420151,-0.00721604,0.98519547,0.16304225,-0.05278549,0.00456043
1761623454714,0.06212876,-0.02193263,0.02533387,-0.00937910,-0.01293462,-0.00428568,0.98520061,0.16298739,-0.05286116,0.00453536
1761623454725,-0.10160918,0.06075324,-0.43334837,-0.00939883,-0.02995446,0.01421748,0.98519999,0.16293945,-0.05301392,0.00460787
1761623454736,-0.09169119,0.01743184,0.02147071,-0.00054837,-0.02482675,0.00075389,0.98519261,0.16293622,-0.05316040,0.00461232
1761623454748,0.00424427,0.02365202,-0.04443192,-0.00683156,-0.03832226,-0.00034195,0.98518735,0.16289796,-0.05337501,0.00461040
1761623454759,-0.17792549,0.04854258,-0.16888276,-0.00396785,-0.04033653,0.02118407,0.98517836,0.16287614,-0.05359686,0.00472692
1761623454769,-0.12241909,0.10651504,0.01998669,-0.01678635,-0.02676654,0.03509712,0.98518448,0.16278633,-0.05374006,0.00491469
1761623454780,0.01128031,-0.10277286,0.00010173,0.01459198,-0.01313436,0.03050173,0.98516626,0.16286732,-0.05381295,0.00508397
1761623454792,0.16914273,-0.15347902,0.08986693,0.00065845,-0.01232622,0.03636905,0.98516061,0.16287113,-0.05388445,0.00529491
1761623454803,0.09473138,-0.18326561,-0.07124237,-0.04190064,-0.02914626,0.03374981,0.98518837,0.16264487,-0.05404184,0.00547716
1761623454826,-0.00672670,0.11285530,0.33728394,-0.02317701,-0.01355159,-0.00803557,0.98522397,0.16238065,-0.05419632,0.00538555
1761623454837,0.39098922,0.42236296,-2.38469029,0.05257485,-0.03605123,-0.03275502,0.98516421,0.16268033,-0.05440182,0.00519885
1761623454847,-0.08345654,0.07230339,1.18845233,0.00300462,-0.02158542,-0.02721411,0.98515624,0.16269580,-0.05451298,0.00505870
1761623454869,-0.10299160,-0.16881369,0.59218619,-0.01786599,-0.01055231,0.01860921,0.98518072,0.16250285,-0.05462695,0.00525968
1761623454871,-0.85887682,3.46567708,-72.16724702,-0.33201386,-0.09709274,0.33187240,0.98522585,0.16218744,-0.05471918,0.00557496
1761623454892,-0.01132571,-0.43144322,6.50559979,-0.02657828,-0.00487103,0.02263551,0.98526733,0.16190969,-0.05477009,0.00581150
1761623454903,-0.15542838,-0.24640875,-0.64137864,-0.01311062,-0.02082359,0.04962221,0.98527116,0.16183759,-0.05488462,0.00608442
1761623454917,0.05868448,-0.00813011,0.33291981,-0.03457646,-0.03127767,-0.00738516,0.98529878,0.16159728,-0.05510200,0.00603309
1761623454971,0.02764757,0.05362551,0.17273759,-0.00928875,-0.00998876,-0.01015477,0.98532656,0.16134509,-0.05537319,0.00575739
1761623454993,0.03079991,0.03386085,-1.58924712,-0.07030513,-0.04204062,0.06952471,0.98542288,0.16056470,-0.05583984,0.00652912
1761623455026,-0.12638221,-0.04500896,0.63990221,-0.01385626,-0.00368056,0.00629133,0.98545607,0.16033538,-0.05590075,0.00663324
1761623455048,-0.12552853,0.07592155,-0.14837837,-0.03667209,0.00445172,0.01738735,0.98552370,0.15992832,-0.05585134,0.00682624
1761623455071,0.12741056,-0.07257325,0.21327648,-0.01317332,0.02166741,0.03298761,0.98555826,0.15978276,-0.05561192,0.00719075
1761623455092,0.09302073,0.01809194,0.27173967,-0.01498264,0.00708495,0.00881613,0.98558851,0.15961870,-0.05553434,0.00728729
1761623455104,-0.06260363,-0.19449378,-0.66233283,-0.02725637,-0.00057571,0.01563461,0.98561302,0.15946197,-0.05553765,0.00737719
1761623455137,0.06196669,0.06945760,0.36915312,-0.01252405,0.00578138,0.00828664,0.98565065,0.15925595,-0.05544254,0.00751350
1761623455148,-0.42435757,-0.61452037,-3.16895546,-0.08893443,0.00495386,0.05028018,0.98572611,0.15878460,-0.05541629,0.00777999
1761623455160,-0.01252764,0.27986807,1.60662010,-0.04349849,-0.01389986,-0.01127477,0.98576458,0.15851926,-0.05550108,0.00771121
1761623455181,0.16261731,0.16084237,0.60404992,-0.02182223,0.00222165,-0.00743726,0.98580388,0.15828685,-0.05547742,0.00763200
1761623455192,0.13798094,0.02470643,-0.64544359,0.01317675,0.00114257,-0.01005073,0.98579312,0.15835867,-0.05547119,0.00757723
1761623455203,-0.00458809,0.09353864,0.16258650,-0.01737982,-0.00560519,-0.00999543,0.98580792,0.15825786,-0.05550370,0.00751925
1761623455216,0.04840722,-0.05854367,0.16103919,-0.00655936,-0.00199982,-0.01537531,0.98581431,0.15821818,-0.05551580,0.00742623
1761623455225,0.14758976,-0.05737016,0.22252676,-0.02889758,-0.00108106,-0.01802382,0.98583574,0.15808669,-0.05552072,0.00734422
1761623455236,-0.03856143,-0.15136962,0.01624697,-0.03197895,-0.00116016,-0.01237196,0.98586459,0.15790761,-0.05552721,0.00727494
1761623455259,-0.04215695,0.04696529,0.15326632,-0.01800862,-0.00731141,-0.00154636,0.98589350,0.15769781,-0.05561239,0.00725693
1761623455270,0.02783078,-0.34666111,-1.22688820,-0.05832076,-0.03376661,0.01065693,0.98593456,0.15737122,-0.05580148,0.00731660
1761623455283,-0.06142825,0.18424321,0.64254612,-0.00406594,-0.02475931,-0.01006918,0.98593035,0.15734601,-0.05595499,0.00725418
1761623455285,-5.47969100,-9.75870905,-17.44023766,-0.29780831,-0.13483891,0.01506996,0.98597600,0.15700353,-0.05611006,0.00727151
1761623455303,0.57587073,1.21004814,2.39661516,-0.04056389,-0.01220587,0.00794781,0.98602842,0.15663034,-0.05622235,0.00734463
1761623455315,-0.15412105,-0.14111453,-0.21668428,-0.05035422,-0.00991238,0.02668856,0.98607032,0.15633828,-0.05627984,0.00749942
1761623455327,0.11621193,0.12719422,0.05926209,-0.04746262,0.01418185,0.01750751,0.98611948,0.15605351,-0.05619475,0.00760446
1761623455337,-0.19155487,-0.02257929,-0.29019791,-0.01210845,-0.00409270,0.03926607,0.98612663,0.15599055,-0.05621603,0.00780865
1761623455348,-0.01652046,0.12958250,0.20654210,-0.05156342,0.01561064,0.04559899,0.98617216,0.15571984,-0.05613408,0.00804804
1761623455386,0.09822242,0.03356560,0.17125121,-0.01035032,0.01084628,0.00875085,0.98621309,0.15552525,-0.05593017,0.00821256
1761623455404,-0.61594246,-0.10840780,-0.61016678,-0.04427654,0.04228663,0.01364557,0.98629772,0.15512012,-0.05554324,0.00833742
1761623455437,0.29161224,0.04493442,0.28136229,-0.01097566,0.00455862,0.03020740,0.98632607,0.15493902,-0.05546803,0.00883584
1761623455447,-0.16769412,-0.00346496,-0.62655528,-0.02230090,0.00879213,0.07024991,0.98634368,0.15482194,-0.05542187,0.00920465
1761623455460,-0.03793939,-0.06277938,0.56721822,-0.03028662,-0.02169501,0.04809161,0.98636366,0.15462508,-0.05556289,0.00951725
1761623455482,0.19602370,0.04406363,0.10070100,-0.00993158,-0.00865407,0.01809451,0.98637321,0.15451881,-0.05565548,0.00971086
1761623455494,0.12861267,-0.00800713,-0.06496916,-0.02221283,-0.02035023,0.04072391,0.98638465,0.15438665,-0.05577657,0.00995316
1761623455515,-0.00787934,0.04685408,0.06673700,-0.00418350,-0.00922614,0.01251208,0.98638471,0.15434209,-0.05587483,0.01008642
1761623455526,0.00045222,-0.16462307,0.10462038,0.02777946,-0.01545909,0.00479711,0.98635596,0.15449349,-0.05595908,0.01011256
1761623455538,0.02421181,0.09237606,0.09555748,-0.03710118,-0.02840447,0.00666163,0.98638050,0.15427274,-0.05612809,0.01015220
1761623455559,-0.02356787,0.01968590,-0.04103451,-0.00391390,-0.01427952,-0.00084890,0.98637850,0.15423203,-0.05627659,0.01014337
1761623455561,4.30385654,-0.71291848,22.50877710,0.10114103,-0.23186470,0.02890871,0.98634912,0.15433317,-0.05650846,0.01017228
1761623455582,-0.41154650,0.09138309,-2.01501510,-0.01534107,-0.00519070,-0.00719737,0.98637229,0.15416979,-0.05656374,0.01009563
1761623455592,0.01263686,-0.12688524,0.20693795,-0.01259355,-0.03016195,-0.01482811,0.98637434,0.15410305,-0.05672360,0.01001704
1761623455604,-0.04073231,0.08049750,-0.04968101,0.00035200,-0.01885971,-0.00563694,0.98636800,0.15410510,-0.05683393,0.00998406
1761623455616,-0.00302577,-0.02887080,-0.03099126,-0.00460888,-0.01242620,-0.00038008,0.98636805,0.15407791,-0.05690724,0.00998182
1761623455626,-0.01957861,-0.05303929,0.05967031,0.00190767,-0.01640217,0.00350756,0.98636165,0.15408745,-0.05698925,0.00999936
1761623455638,-0.01556344,0.03105961,-0.00567072,0.00675115,0.00303451,0.00599405,0.98635600,0.15412796,-0.05697104,0.01003532
1761623455650,-0.09744802,0.11824635,0.10191094,0.00225725,-0.00085264,0.00581399,0.98635321,0.15414161,-0.05697620,0.01007050
1761623455659,-0.22445792,0.19488386,0.45523922,0.01045313,0.00473612,-0.00149176,0.98634703,0.15418970,-0.05695442,0.01006363
1761623455671,0.11370947,-0.05783779,-0.03668628,-0.00579635,0.01059146,0.00436094,0.98635535,0.15415695,-0.05689457,0.01008827
1761623455682,-0.07669024,-0.10136265,-0.00997914,-0.00051611,0.01013295,0.00390926,0.98635894,0.15415398,-0.05683631,0.01011075
1761623455694,0.04146410,0.16795496,-0.06242150,-0.00004762,0.01535764,-0.00978041,0.98636464,0.15415371,-0.05674800,0.01005451
1761623455695,-12.75245053,14.24989025,27.57394689,0.18588860,0.18678612,-0.14115400,0.98634942,0.15432101,-0.05657990,0.00992748
1761623455715,1.19360816,-1.29778811,-2.77287652,0.04428297,0.03555313,-0.00373926,0.98630197,0.15475277,-0.05623325,0.00989102
1761623455716,-29.59313302,17.01093892,38.73949681,0.50380636,0.34551433,-0.00769164,0.98625443,0.15515581,-0.05595684,0.00988486
1761623455728,3.82633664,-2.41083839,-5.03854508,0.03277773,0.05995348,-0.00351583,0.98624481,0.15533773,-0.05562410,0.00986535
1761623455739,0.03060482,-0.19214818,-0.03240838,0.02696471,0.05234272,-0.00898652,0.98623788,0.15549143,-0.05532575,0.00981413
1761623455750,0.25470840,0.26832872,0.14339917,0.01367649,0.06549940,-0.01564074,0.98624693,0.15556596,-0.05496877,0.00972889
1761623455761,0.08562635,-0.10518636,-0.05625207,0.02448847,0.04730164,0.01359108,0.98623934,0.15570187,-0.05470625,0.00980432
1761623455772,0.04865942,-0.04934648,-0.01513035,0.00267532,0.03452870,0.00097114,0.98624762,0.15571686,-0.05451289,0.00980976
1761623455783,-0.17043093,-0.19803854,0.12148317,-0.02034292,0.03222399,-0.00967349,0.98627559,0.15560497,-0.05433566,0.00975655
1761623455795,0.15651370,-0.20099161,-0.17007505,-0.00787685,0.02004175,0.01495969,0.98628844,0.15555889,-0.05421841,0.00984407
1761623455805,-0.00885793,-0.14260742,0.05581380,-0.02897748,0.00191637,0.01565358,0.98631148,0.15541111,-0.05420864,0.00992390
1761623455816,0.04246452,0.13460615,-0.15501977,-0.02458782,-0.00027678,-0.00284827,0.98633363,0.15527096,-0.05421022,0.00990766
1761623455828,0.06184853,0.00077678,-0.23312475,0.01010180,0.01531295,0.01030796,0.98632850,0.15533157,-0.05411834,0.00996951
1761623455839,-0.03944525,-0.03942197,0.09285045,-0.01196536,-0.01806320,0.02519899,0.98633171,0.15527114,-0.05420956,0.01009677
1761623455850,-0.02571052,-0.06035306,0.03455184,-0.01040723,-0.01397371,-0.00405216,0.98633686,0.15521234,-0.05428851,0.01007387
1761623455861,0.01856286,0.04389161,0.09867515,-0.03505417,-0.00545027,-0.00080011,0.98636584,0.15501779,-0.05431876,0.01006943
1761623455872,0.02080188,0.11011693,-0.12239246,-0.03195289,-0.02019042,0.05258365,0.98638449,0.15484045,-0.05443082,0.01036127
1761623455883,0.20435930,0.13475451,-0.15943912,-0.00670889,-0.01566725,0.04026901,0.98638315,0.15480288,-0.05451855,0.01058678
1761623455894,0.01897391,-0.05862027,-0.15339663,0.01716452,-0.01673747,0.00590888,0.98636289,0.15489729,-0.05461061,0.01061928
1761623455905,-0.01871881,0.08184863,0.09679597,-0.01986148,-0.00759162,0.02020058,0.98637652,0.15478805,-0.05465236,0.01073038
1761623455916,-0.13709794,-0.05402594,0.05131345,-0.00552223,-0.01674320,0.03047833,0.98637430,0.15475712,-0.05474613,0.01090106
1761623455938,0.00542952,0.03716285,-0.12995719,0.00576174,-0.00733467,0.00015108,0.98636012,0.15481935,-0.05482534,0.01090269
1761623455940,-2.24039058,-1.00594151,12.12979350,0.02348567,-0.07862396,-0.02055758,0.98635111,0.15484636,-0.05491576,0.01087905
1761623455950,0.17382474,0.42626259,-2.14825850,-0.00614014,-0.02074156,-0.02348206,0.98635143,0.15481596,-0.05501843,0.01076281
1761623455962,-0.03023302,0.01986709,-0.06669229,-0.01907470,-0.03023440,-0.01185640,0.98635953,0.15470819,-0.05518925,0.01069582
1761623455973,-0.02553675,-0.10399875,0.00140805,-0.01444657,-0.01439702,0.00127333,0.98636748,0.15462874,-0.05526844,0.01070283
1761623455985,0.07789243,-0.22456280,-0.25909582,-0.03447347,-0.01055016,0.01673030,0.98639524,0.15442190,-0.05533174,0.01080321
1761623455995,-0.07312539,-0.07501783,0.18210015,-0.04025899,-0.00022452,0.04266458,0.98642460,0.15421859,-0.05533287,0.01101866
1761623456006,0.04437757,-0.07788375,-0.07010196,-0.00935379,-0.00538489,0.02238854,0.98642973,0.15416574,-0.05536330,0.01114516
1761623456017,0.08450311,0.08849311,-0.17046939,-0.03576673,-0.01947134,0.00042752,0.98645531,0.15396187,-0.05547428,0.01114760
1761623456029,0.01650969,0.07553044,-0.07378791,0.00427130,-0.00761198,-0.00266760,0.98644929,0.15398600,-0.05551729,0.01113252
1761623456039,-0.02329861,0.05704700,-0.00453129,-0.00392364,-0.01923366,0.02095823,0.98644547,0.15396481,-0.05562115,0.01124570
1761623456051,-0.09124920,0.05950006,0.16831385,0.01157254,0.00969101,0.00903650,0.98643783,0.15402962,-0.05556688,0.01129630
1761623456061,-0.17090419,0.12978791,0.20513895,0.01129665,0.01204362,0.00025343,0.98643200,0.15409006,-0.05550245,0.01129766
1761623456073,0.10013892,-0.11359809,-0.04318475,0.00662476,0.02235919,0.01260904,0.98643244,0.15412815,-0.05537388,0.01137016
1761623456084,-0.12574439,-0.05012593,0.02028135,0.00493759,0.01260577,-0.00311124,0.98643228,0.15415654,-0.05530140,0.01135227
1761623456095,-0.15365240,-0.08671524,0.02149214,-0.00177641,0.03507739,-0.01213396,0.98644501,0.15414704,-0.05511374,0.01128735
1761623456107,-0.03411617,-0.05004887,-0.07291239,-0.00843060,0.01906365,-0.00008615,0.98645883,0.15409814,-0.05500317,0.01128685
1761623456118,0.03480171,0.08358493,0.08303911,0.00224411,0.04955133,0.00429347,0.98647202,0.15411071,-0.05472568,0.01131090
1761623456128,0.01119649,0.04669185,0.09038455,0.02994923,0.01590832,0.00839090,0.98645196,0.15426494,-0.05464375,0.01135411
1761623456139,0.14425990,0.17454519,-0.02940919,-0.01071329,0.01825801,-0.02892999,0.98646840,0.15420656,-0.05454425,0.01119644
1761623456150,0.04752711,0.13010483,0.05970438,0.08318227,0.00184635,-0.03201907,0.98639743,0.15467654,-0.05453381,0.01101554
1761623456162,0.02286307,0.00407812,-0.06952788,0.00564138,0.01602443,-0.00579293,0.98639782,0.15471010,-0.05443847,0.01098107
1761623456173,-0.18659941,-0.16033832,0.06782556,0.00148380,0.01684493,0.01910336,0.98640037,0.15471797,-0.05434919,0.01108232
1761623456184,-0.08095376,-0.12159648,-0.03196791,-0.03524647,0.03721098,0.01356519,0.98644118,0.15452411,-0.05414453,0.01115692
1761623456195,-0.04730267,-0.03544371,-0.14548286,-0.01160294,0.02796687,0.00220939,0.98646029,0.15445740,-0.05398372,0.01116963
1761623456216,0.22218098,0.00979635,-0.16204019,0.01342679,0.01324704,0.01015418,0.98644467,0.15459771,-0.05384529,0.01127574
1761623456218,-23.16203699,1.35024840,18.84390863,0.06642256,0.12606631,0.03030846,0.98644079,0.15466413,-0.05371922,0.01130605
1761623456249,1.51479219,-0.05792370,-1.26962351,0.00110748,0.00612079,0.00413701,0.98644253,0.15468140,-0.05362374,0.01137058
1761623456260,-1.39220785,0.42409505,1.19235007,0.04293305,0.04419895,-0.00226522,0.98642010,0.15490466,-0.05339390,0.01135881
1761623456262,-6.02819704,-2.31155832,6.66715655,0.11833968,-0.03381114,0.15765409,0.98639562,0.15503483,-0.05343110,0.01153223
1761623456273,2.21751660,-0.04903392,-2.08236421,-0.01750336,0.00892444,-0.00692631,0.98641451,0.15493506,-0.05338023,0.01149275
1761623456307,0.12760736,0.00699315,-0.11177514,0.00161415,0.00529692,-0.00231599,0.98641551,0.15496202,-0.05329177,0.01145407
1761623456317,-1.06104474,0.06173576,1.05980242,0.04254903,0.05324688,-0.00839717,0.98639597,0.15518540,-0.05301222,0.01140998
1761623456329,0.48485884,0.03643221,-0.61193928,0.00775040,0.03405042,0.00599753,0.98639911,0.15523074,-0.05281303,0.01144507
1761623456340,-0.01337986,-0.16197242,-0.01340253,-0.00095363,0.03930551,0.01331120,0.98641022,0.15522568,-0.05260471,0.01151562
1761623456361,0.17601547,0.04782332,-0.14014332,-0.00769755,0.02139677,-0.00025992,0.98643551,0.15514294,-0.05237469,0.01151282
1761623456372,-0.57191562,-0.01502970,0.54189414,-0.00479136,0.04334227,0.01411911,0.98645123,0.15511682,-0.05213848,0.01158977
1761623456394,0.32471262,-0.01485836,-0.26601602,-0.00333255,0.00822148,-0.00339648,0.98646211,0.15508050,-0.05204886,0.01155275
1761623456396,-13.66077213,-4.78178946,16.42983988,-0.13854456,0.05786402,-0.09593960,0.98649453,0.15490732,-0.05197653,0.01143283
1761623456418,1.57663150,0.49236289,-1.94723120,-0.00929201,-0.00052701,-0.00333642,0.98651032,0.15480743,-0.05198220,0.01139696
1761623456428,-0.15046236,-0.48588891,0.16589384,-0.06432297,0.04808444,0.02853869,0.98657417,0.15447295,-0.05173216,0.01154536
1761623456440,-0.08354195,0.00199400,-0.10970497,-0.03084593,0.01352938,-0.00399841,0.98660739,0.15428942,-0.05165166,0.01152157
1761623456451,0.08453132,-0.06015958,0.09393293,-0.06871814,0.03387999,-0.01028320,0.98667492,0.15392177,-0.05147040,0.01146656
1761623456462,-0.03434777,0.24891892,0.09250782,-0.06363711,0.01125344,-0.00194274,0.98673176,0.15357813,-0.05140963,0.01145606
1761623456473,0.07450326,0.07562915,-0.00522338,-0.04775699,0.02679597,0.02900367,0.98678010,0.15330592,-0.05125690,0.01162139
1761623456484,-0.12974370,0.16933634,0.02058848,-0.02340089,0.01771602,0.00857778,0.98680414,0.15317955,-0.05116123,0.01166771
1761623456494,-0.08560085,0.10686393,0.16046588,0.01386028,0.04100035,0.01226211,0.98680323,0.15325163,-0.05094803,0.01173147
1761623456505,0.00763790,0.12659415,-0.03098420,0.00114441,0.01413306,0.02850423,0.98680439,0.15325798,-0.05086959,0.01188967
1761623456508,-10.14694124,-0.02968940,11.45051316,-0.08143572,0.07028412,0.13635799,0.98682193,0.15316026,-0.05078525,0.01205330
1761623456518,2.30058066,0.06829099,-2.68091680,0.01339521,0.02886433,0.00134701,0.98681877,0.15322924,-0.05063660,0.01206023
1761623456530,0.18269781,-0.05117709,-0.12053565,0.02438825,0.02893616,0.01292132,0.98680361,0.15337923,-0.05045864,0.01213970
1761623456541,-0.19801538,0.13658330,0.01904118,-0.01058236,0.02192991,-0.01743715,0.98681940,0.15332314,-0.05034241,0.01204728
1761623456552,0.11299207,-0.01677641,-0.06100511,0.01721417,0.02487584,0.00553748,0.98681157,0.15341438,-0.05021057,0.01207663
1761623456563,-0.02999286,0.05496967,-0.00997748,0.01994449,0.02317492,0.02055152,0.98679960,0.15352407,-0.05008311,0.01218967
1761623456574,-0.08128711,0.04048349,-0.06357678,0.02085988,0.02217337,0.01530160,0.98678619,0.15364506,-0.04995450,0.01227841
1761623456595,0.17210392,-0.06785589,-0.02952849,0.01685096,0.02357147,0.02174597,0.98676808,0.15382368,-0.04970464,0.01250892
1761623456606,-0.28522989,0.18646142,0.41024151,0.03122383,0.04230778,0.01599297,0.98675276,0.15398604,-0.04948464,0.01259209
1761623456618,0.16877566,-0.12180045,-0.11144859,0.01324808,0.01043146,0.01937856,0.98674164,0.15406818,-0.04941997,0.01271223
1761623456639,0.05861712,-0.01995609,-0.05857134,-0.00109429,0.00353043,0.00301795,0.98674488,0.15405669,-0.04938290,0.01274392
1761623456641,-33.96045591,12.04546665,54.53877554,0.21206400,0.10464350,-0.03897588,0.98672022,0.15424755,-0.04928872,0.01270884
1761623456662,3.00026320,-1.06350609,-4.70835519,0.00439665,0.00936647,0.01034309,0.98671656,0.15429305,-0.04919178,0.01281589
1761623456673,-0.05956669,0.10140537,0.27344754,0.03886205,0.00625046,0.01643614,0.98668275,0.15451263,-0.04915646,0.01290876
1761623456684,0.07881210,0.05108653,-0.02083376,0.04003923,-0.00405327,0.00039136,0.98664548,0.15474285,-0.04917977,0.01291101
1761623456696,0.11139180,-0.05446667,0.01353210,0.04552758,-0.00028998,0.00025207,0.98660357,0.15500919,-0.04918146,0.01291248
1761623456707,0.07637690,0.04291779,0.13364975,0.00629706,-0.01701490,0.00118105,0.98659356,0.15504319,-0.04927334,0.01291886
1761623456717,0.11027385,-0.04695330,0.01267481,0.03646001,-0.01631525,0.00892099,0.98655856,0.15523461,-0.04935900,0.01296570
1761623456730,-0.02290638,0.01949209,-0.11205476,0.02412816,-0.00942454,-0.01841755,0.98653398,0.15538179,-0.04941649,0.01285335
1761623456740,0.00931482,-0.04981470,0.03910052,0.03105005,-0.03998488,-0.04417447,0.98650075,0.15554480,-0.04962641,0.01262143
1761623456751,-0.04112040,0.10806201,-0.03045912,0.01882253,-0.03230064,-0.03542675,0.98647794,0.15564832,-0.04980406,0.01242659
1761623456762,0.10808338,0.08760787,-0.05382398,0.03299899,-0.00490736,-0.01096704,0.98644948,0.15582487,-0.04983032,0.01236791
1761623456764,6.28833533,15.76576154,23.84079780,0.14820009,-0.06268835,0.01296360,0.98642675,0.15595084,-0.04988360,0.01237893
1761623456775,-0.99786423,-2.21651812,-3.67521710,0.03033391,-0.01600823,0.00128360,0.98639553,0.15611919,-0.04997245,0.01238605
1761623456785,-0.06595332,-0.14498990,0.03236694,0.08376394,-0.03582310,0.00111248,0.98631469,0.15656733,-0.05016410,0.01239201
1761623456797,0.09061868,-0.03514449,0.03746331,0.04153750,-0.00700010,-0.00610935,0.98627583,0.15680202,-0.05020365,0.01235749
1761623456808,-0.05474438,-0.02973108,0.06118967,0.02832682,-0.02185990,0.01400962,0.98624279,0.15696348,-0.05032825,0.01243734
1761623456819,-0.08079396,-0.02093307,0.19598722,0.02816104,-0.01554249,0.00695139,0.98621382,0.15711555,-0.05041218,0.01247488
1761623456830,0.01737730,-0.13839891,-0.07536957,0.03026306,-0.00585088,-0.01036541,0.98618536,0.15728805,-0.05044553,0.01241580
1761623456841,-0.04907665,-0.05880685,0.03584314,0.00911551,-0.02351887,-0.01121097,0.98617139,0.15733864,-0.05057606,0.01235358
1761623456852,0.08154340,-0.15889765,-0.07421706,-0.00844182,-0.01025806,-0.00606175,0.98617627,0.15729263,-0.05063197,0.01232054
1761623456863,0.05102608,0.06774758,0.06175323,-0.01059225,-0.01848360,0.02253316,0.98617880,0.15723384,-0.05073455,0.01244560
1761623456875,0.03477268,0.01477757,-0.14683578,0.03195392,-0.02294542,-0.00111948,0.98614278,0.15741758,-0.05086649,0.01243916
1761623456886,-0.18106328,0.06454298,0.08888529,0.02221093,-0.01599389,-0.02303610,0.98612072,0.15753752,-0.05095286,0.01231477
1761623456897,-0.09544946,0.01903732,-0.12133087,0.02943020,0.01275916,-0.03092742,0.98610040,0.15770086,-0.05088204,0.01214312
1761623456908,0.03862593,0.10689481,0.07059292,0.00240316,-0.00482048,0.00796636,0.98609620,0.15771467,-0.05090976,0.01218893
1761623456919,0.15364062,0.00902218,0.01238092,0.04171707,0.02513536,-0.01077246,0.98606838,0.15793578,-0.05077654,0.01213183
1761623456930,-0.13062102,-0.00779443,-0.08471815,0.02466295,-0.00353853,-0.02481114,0.98604712,0.15807265,-0.05079618,0.01199413
1761623456941,0.06914600,-0.09445501,0.01445627,0.02955558,0.02987283,-0.01231515,0.98603032,0.15823521,-0.05063188,0.01192640
1761623456952,0.07493777,-0.02281654,-0.07233301,-0.00891999,0.01552312,-0.01089898,0.98604353,0.15818526,-0.05054495,0.01186536
1761623456964,-0.04616272,-0.02633237,-0.00908858,0.00894897,0.02106783,-0.02156188,0.98604296,0.15823716,-0.05042276,0.01174030
1761623456975,0.02037614,-0.08986543,-0.04119524,0.02832434,0.02303966,-0.01628837,0.98602452,0.15840144,-0.05028913,0.01164583
1761623456986,-0.11294728,0.16476200,0.22120644,-0.01003915,0.00036068,-0.00784015,0.98603392,0.15834673,-0.05028716,0.01160310
1761623457007,0.02792789,-0.09520626,-0.25305523,0.01072729,0.00758130,0.00349370,0.98601972,0.15845722,-0.05020908,0.01163909
1761623457009,0.48579156,3.64723884,27.10393901,-0.00804542,0.11129822,-0.02818546,0.98602664,0.15844958,-0.05010334,0.01161231
1761623457019,-0.14694274,-0.59988998,-4.37391282,0.00677892,0.01866384,-0.00686456,0.98602632,0.15848551,-0.05000442,0.01157593
1761623457031,0.05808621,-0.07604802,-0.16207307,0.02531178,0.01164848,0.01013796,0.98600544,0.15863231,-0.04993686,0.01163473
1761623457042,0.03455085,0.05631124,0.05891363,0.01576589,0.00878606,0.00033796,0.98599328,0.15872376,-0.04988590,0.01163669
1761623457097,-0.01072431,-0.00424745,-0.11832992,0.00240700,-0.00047915,-0.00562143,0.98598393,0.15878887,-0.04989886,0.01148463
1761623457108,0.37128127,0.27180676,3.59914717,0.03512198,-0.00727434,-0.05019155,0.98595204,0.15899433,-0.04994142,0.01119101
1761623457131,-0.16197276,-0.03257082,-1.60427963,0.05662114,-0.00254002,0.00273566,0.98584684,0.15963415,-0.04997012,0.01122192
1761623457153,-0.03173034,-0.03562858,-0.08015115,0.00466430,0.00033915,-0.02491455,0.98584189,0.15968452,-0.04996646,0.01095285
1761623457164,-0.10673730,0.08954560,0.38286614,0.02274983,0.00592889,-0.04452373,0.98582582,0.15981078,-0.04993355,0.01070574
1761623457175,0.01421587,0.06504528,0.17812209,-0.00275587,-0.00086612,-0.01632249,0.98582921,0.15979466,-0.04993862,0.01061025
1761623457197,0.04775560,-0.10574630,-0.33418547,0.01099025,0.00821815,-0.00367750,0.98581514,0.15991116,-0.04985151,0.01057127
1761623457207,-0.12649311,-0.02206532,0.38431498,0.01898786,-0.00426083,-0.00366775,0.98579869,0.16000705,-0.04987303,0.01055275
1761623457218,-0.00128845,0.02649327,-0.03910495,0.00453133,-0.00198103,-0.00072340,0.98579381,0.16003378,-0.04988471,0.01054848
1761623457230,-0.00671462,0.12436127,0.10366216,-0.00481496,-0.00090102,-0.01134449,0.98579874,0.16000610,-0.04988989,0.01048325
1761623457241,0.06084685,-0.07540534,0.04589750,0.01824813,0.00410156,-0.00063527,0.98578362,0.16010646,-0.04986734,0.01047976
1761623457252,-0.12315009,0.00347899,-0.04531923,0.01091326,-0.01359534,-0.00099701,0.98577014,0.16016648,-0.04994211,0.01047427
1761623457263,0.01828952,-0.15636586,-0.01909730,0.01912178,0.00582816,0.00027925,0.98575437,0.16027357,-0.04990947,0.01047584
1761623457273,-0.11411689,-0.08701482,0.15555945,-0.00203523,0.01015053,0.01009220,0.98575817,0.16026308,-0.04985720,0.01052781
1761623457276,-7.30005054,-1.29928579,17.42149361,0.00288866,0.04778660,0.06592522,0.98575953,0.16026626,-0.04980463,0.01060033
1761623457297,0.74864067,0.17931030,-2.09323694,0.00068957,0.01122255,0.00257889,0.98576412,0.16027368,-0.04968399,0.01062805
1761623457308,-0.27729259,0.06341571,0.35990794,0.02573969,0.03150610,0.00281857,0.98575017,0.16041010,-0.04951701,0.01064299
1761623457319,0.08070305,0.04584112,0.01950079,0.00897155,0.02007145,0.00391496,0.98574734,0.16046123,-0.04940260,0.01066531
1761623457331,0.08452705,-0.07614243,-0.00019607,0.00980583,0.01349104,0.00200286,0.98574169,0.16052007,-0.04932165,0.01067732
1761623457342,0.03766402,-0.09926924,0.20390737,0.00693597,0.04132405,-0.00733953,0.98574706,0.16055683,-0.04910264,0.01063842
1761623457352,-0.14455487,0.19283194,-0.08681075,-0.00753997,0.02028273,-0.03481459,0.98576037,0.16051838,-0.04899919,0.01046087
1761623457363,0.09658337,0.02656706,-0.17539965,0.00906786,0.01751962,-0.00216004,0.98575724,0.16056689,-0.04890546,0.01044931
1761623457365,-9.26543841,9.77231205,19.57477208,0.13527001,0.07472578,-0.07963502,0.98574062,0.16069539,-0.04883447,0.01037366
1761623457385,0.98172410,-0.90492413,-1.99099829,-0.00015459,0.00717032,0.00123831,0.98574435,0.16069383,-0.04876170,0.01038623
1761623457387,-8.84762677,5.55920792,28.84923897,0.14427508,0.02082892,-0.02425586,0.98572433,0.16082367,-0.04874295,0.01036440
1761623457409,0.71486437,-0.47208461,-2.27648986,0.00768346,0.00201248,-0.00140113,0.98571133,0.16091126,-0.04872001,0.01034843
1761623457420,-0.14392573,-0.01663904,0.61203435,0.01479964,-0.01014864,-0.00424692,0.98569553,0.16099266,-0.04877583,0.01032507
1761623457431,-0.00027032,-0.16286530,0.09314838,-0.01882695,-0.01877818,-0.00369409,0.98570699,0.16089382,-0.04887441,0.01030567
1761623457442,-0.04433068,-0.08863924,-0.00169696,-0.01882298,-0.02204395,-0.00353954,0.98571847,0.16078653,-0.04900006,0.01028550
1761623457444,-5.06561053,-3.70703964,27.18194012,-0.05465915,-0.12352531,0.16155732,0.98571953,0.16073187,-0.04912359,0.01044706
1761623457464,0.61032794,0.48105890,-3.15571862,0.00522389,-0.01146077,0.01360175,0.98570439,0.16078228,-0.04923418,0.01057831
1761623457474,-0.12721372,0.02603121,0.36831165,0.03757041,-0.01261244,0.02357342,0.98566755,0.16097953,-0.04930040,0.01070207
1761623457476,-2.72478376,3.29536667,15.98001709,0.13517207,0.02982119,0.13115632,0.98564112,0.16114173,-0.04926461,0.01085946
1761623457487,0.64867272,-0.55368006,-3.51533706,0.01573928,-0.00542963,-0.01790609,0.98562668,0.16122751,-0.04929420,0.01076187
1761623457498,0.04440182,-0.01328213,0.06682644,0.01489658,0.01725257,-0.02984562,0.98561979,0.16130944,-0.04919932,0.01059772
1761623457510,-0.07809978,-0.09702213,-0.15924925,0.01385635,0.00610386,-0.02581620,0.98561034,0.16138704,-0.04916513,0.01045315
1761623457530,0.05574356,-0.05096712,-0.19762220,0.00605182,0.02100887,-0.02375509,0.98561336,0.16144725,-0.04895610,0.01021679
1761623457531,-10.33406761,4.13515647,20.99352716,0.01638265,0.08482016,-0.12373234,0.98561616,0.16146364,-0.04887128,0.01009305
1761623457543,1.66712727,-0.64194709,-3.40653502,0.03098247,0.03263628,-0.01395115,0.98559707,0.16164179,-0.04868362,0.01001284
1761623457554,-0.05599189,0.06420200,0.31064049,0.02128251,0.03257021,-0.01322394,0.98558752,0.16175778,-0.04850611,0.00994077
1761623457576,0.04566678,-0.03464009,-0.26320454,0.00483526,0.00114576,-0.01260814,0.98558083,0.16181072,-0.04849356,0.00980271
1761623457586,-0.20737517,-0.06829052,0.74922766,-0.00818704,0.02255357,-0.00814183,0.98559350,0.16176979,-0.04838080,0.00976200
1761623457588,-6.21992000,-0.18605827,21.16563001,-0.01295929,0.02366782,-0.01058884,0.98559638,0.16175877,-0.04836068,0.00975300
1761623457609,0.67653276,-0.00974756,-2.10866211,0.00578743,0.00247621,-0.00009124,0.98558752,0.16182070,-0.04833418,0.00975202
1761623457620,-0.07628910,-0.03083425,0.47118573,-0.00601913,-0.00535867,-0.01313652,0.98559214,0.16178819,-0.04836312,0.00968108
1761623457632,0.08461011,-0.09267579,0.01568074,0.00115934,-0.00936216,-0.00748300,0.98558871,0.16179509,-0.04841882,0.00963656
1761623457634,-0.10330637,-5.53832491,22.25788952,0.02016199,-0.03376156,0.03050927,0.98558344,0.16181525,-0.04845259,0.00966707
1761623457643,0.03320334,1.21460212,-4.40707583,-0.01620656,0.00027394,-0.00825803,0.98559694,0.16173584,-0.04845124,0.00962660
1761623457654,-0.14636781,-0.00229788,-0.29130992,-0.01242985,-0.01321220,-0.00391654,0.98560472,0.16166810,-0.04852325,0.00960526
1761623457665,0.07136830,-0.04156005,-0.01240765,-0.01225079,0.00685432,-0.00341368,0.98561781,0.16160072,-0.04848555,0.00958648
1761623457677,-0.04811347,0.02140703,-0.05703306,-0.02273294,-0.00315463,-0.01827453,0.98563954,0.16146887,-0.04850385,0.00948049
1761623457688,0.07511902,0.00330066,-0.17998257,-0.03754669,0.01325605,-0.00705175,0.98567662,0.16126612,-0.04843226,0.00944241
1761623457699,-0.08409783,0.07153481,-0.10353274,-0.00697632,0.01100514,-0.00197372,0.98568597,0.16122775,-0.04837174,0.00943156
1761623457710,0.04347175,-0.04441796,-0.04028614,0.02652101,0.02283650,-0.01090120,0.98566805,0.16138024,-0.04824043,0.00936887
1761623457721,-0.03483634,0.06571138,0.31064863,0.00855086,0.02600170,0.00043990,0.98566734,0.16142556,-0.04810262,0.00937121
1761623457733,-0.03182266,0.00981081,-0.11711788,-0.00533881,0.01639117,-0.01293495,0.98567794,0.16139406,-0.04800591,0.00929489
1761623457743,0.03821075,0.13492340,-0.00006643,0.00256655,0.01677991,-0.02262844,0.98568113,0.16140754,-0.04791782,0.00917609
1761623457754,0.18271565,0.02153188,-0.24825766,0.02929189,0.01437858,-0.01014459,0.98565849,0.16157304,-0.04783658,0.00911877
1761623457766,-0.04877260,0.09747659,0.01386699,0.02837891,0.00966603,-0.05892011,0.98563732,0.16173763,-0.04778051,0.00877704
1761623457777,-0.06914545,-0.04573463,0.05638773,-0.02154177,0.00025808,-0.04034053,0.98565838,0.16162131,-0.04777912,0.00855920
1761623457788,0.05280664,-0.09627566,0.24886181,-0.04571346,0.00688362,0.00172973,0.98570328,0.16135846,-0.04773954,0.00856914
1761623457800,-0.05060636,-0.04687657,0.01574700,-0.03262135,0.00998959,0.00686805,0.98573784,0.16116273,-0.04767960,0.00861035
1761623457811,-0.04329694,-0.08905200,0.04899327,-0.02424146,0.01287578,0.00100566,0.98576323,0.16102819,-0.04760814,0.00861593
1761623457832,0.03207626,-0.01792372,-0.14013868,-0.00481521,-0.00057857,-0.00070753,0.98577126,0.16097763,-0.04761422,0.00860850
1761623457843,0.24355458,-0.01822943,0.71349868,-0.03106807,0.00097545,-0.00836294,0.98579851,0.16081452,-0.04760909,0.00856460
1761623457845,1.59051277,-3.52172613,10.73558000,-0.02093583,-0.03570659,-0.05400351,0.98580089,0.16079149,-0.04764837,0.00850520
1761623457866,-0.22972098,0.40827155,-1.44563199,-0.00400840,-0.00222161,-0.01151454,0.98580763,0.16074960,-0.04767159,0.00838487
1761623457876,-0.10551264,0.00823841,0.44728596,0.00291248,-0.00679851,-0.01819269,0.98580435,0.16076431,-0.04770592,0.00829300
1761623457878,0.13697193,-1.42569423,17.69569810,0.07040421,-0.00427307,-0.03990177,0.98579413,0.16082768,-0.04770977,0.00825708
1761623457889,0.10703892,0.30154060,-3.09130869,-0.00584121,0.00034827,-0.01221327,0.98579980,0.16079672,-0.04770792,0.00819235
1761623457900,-0.03409530,-0.08598910,-0.02303652,0.00394033,0.00579115,-0.01945948,0.98579867,0.16081878,-0.04767549,0.00808338
1761623457911,-0.06407748,-0.02055005,0.03530558,-0.00624253,0.00959126,-0.00730146,0.98580700,0.16078507,-0.04762370,0.00804395
1761623457922,-0.16956332,0.03442985,0.09881245,-0.02765586,0.01187167,-0.01111845,0.98583519,0.16063435,-0.04755900,0.00798336
1761623457933,0.05295303,0.00662154,-0.02701611,-0.01272284,0.02171618,-0.00450992,0.98585301,0.16056246,-0.04743630,0.00795788
1761623457954,0.03355983,0.04488327,-0.21533229,-0.00099421,0.00180542,-0.00362031,0.98585593,0.16055203,-0.04741734,0.00791986
1761623457955,-3.77695653,12.00081205,19.52462343,0.10418771,0.05967606,-0.31452578,0.98584664,0.16063538,-0.04736960,0.00766824
1761623457966,0.55509904,-1.50290834,-2.70299059,0.00299932,-0.00176650,-0.03792752,0.98584508,0.16065187,-0.04737932,0.00745964
1761623457978,-0.02868266,-0.13129229,0.06246254,0.00535306,0.00821183,-0.00474047,0.98584261,0.16068185,-0.04733333,0.00743309
1761623457988,-0.25010473,0.15544400,0.25437535,-0.00085685,0.00567392,-0.01552901,0.98584546,0.16067722,-0.04730269,0.00734924
1761623457999,-0.09401160,0.02694888,0.01370667,0.00442828,0.01400330,-0.00349020,0.98584533,0.16070180,-0.04722497,0.00732987
1761623458011,-0.03865956,0.00467459,-0.00988856,0.01145985,0.02276176,0.00611609,0.98584071,0.16076597,-0.04709751,0.00736412
1761623458032,0.11280735,-0.08779431,-0.20297461,0.01167976,0.01192398,0.00102899,0.98582646,0.16088978,-0.04697111,0.00737502
1761623458043,-0.34628181,0.35987047,0.34313114,0.03120993,0.01250552,0.00245944,0.98580228,0.16105675,-0.04690421,0.00738818
1761623458054,0.04123572,0.12388266,-0.05083452,0.06901520,0.01131452,0.00139522,0.98574309,0.16143634,-0.04684198,0.00739586
1761623458055,-19.92827578,30.79527217,27.07652076,0.41108565,0.07265092,-0.04706188,0.98568903,0.16178576,-0.04678023,0.00735585
1761623458076,1.77189244,-2.64636646,-2.37768574,0.03314656,0.01014935,-0.00028154,0.98563717,0.16213214,-0.04667417,0.00735291
1761623458087,-0.37938377,0.27527272,0.41007432,0.05200486,0.01748934,0.00981070,0.98559618,0.16240517,-0.04658235,0.00740442
1761623458098,-0.09556447,-0.15913924,-0.07291658,0.03390881,0.01095206,0.00812097,0.98556794,0.16259166,-0.04652211,0.00744908
1761623458101,-7.56475832,5.71071797,9.94763093,-0.06362269,0.09106580,0.01195842,0.98558851,0.16250259,-0.04639462,0.00746582
1761623458120,1.28251768,-0.93838216,-1.61579230,0.02836496,0.00725564,-0.00510132,0.98554636,0.16278057,-0.04632351,0.00741583
1761623458122,-16.65159148,16.78216670,13.57298116,0.41559460,0.05117024,-0.02126391,0.98548019,0.16319616,-0.04627234,0.00739457
1761623458134,2.69638372,-2.72448397,-2.29896036,0.06385144,0.01225056,0.00151055,0.98542206,0.16356650,-0.04620129,0.00740333
1761623458145,-0.06926649,-0.20282456,-0.07961148,0.04290183,-0.00754085,-0.00123857,0.98538134,0.16380032,-0.04624239,0.00739658
1761623458165,0.13864725,-0.13051254,-0.04872015,0.00005068,0.00327289,-0.00429464,0.98538317,0.16380084,-0.04620868,0.00735234
1761623458176,-0.29398848,-0.30531948,0.01125171,0.02929828,0.00100458,0.00890895,0.98535577,0.16396491,-0.04620305,0.00740223
1761623458179,-11.26530742,-0.96342918,5.89911545,-0.05959261,-0.06742395,0.04059888,0.98536350,0.16389340,-0.04628396,0.00745095
1761623458190,2.57181392,0.50863698,-1.11810109,0.00556310,0.01923378,-0.00920772,0.98536376,0.16392427,-0.04617721,0.00739985
1761623458210,0.09103712,0.00131764,-0.13914877,0.00814150,-0.00571953,-0.00865811,0.98534794,0.16400691,-0.04623527,0.00731197
1761623458222,-0.12655698,0.02868613,0.05834303,-0.00286864,0.00578938,-0.00229996,0.98535235,0.16399042,-0.04620198,0.00729875
1761623458233,-0.09294171,0.08660439,-0.06066830,-0.00706739,-0.00660999,-0.00556716,0.98535738,0.16395119,-0.04623866,0.00726785
1761623458256,0.16192844,-0.02555265,-0.00836591,0.00133444,0.00723980,-0.00574626,0.98535924,0.16396674,-0.04615432,0.00720090
1761623458267,-1.34595797,-0.01439344,0.27049044,0.00701572,0.00870602,-0.02889840,0.98535629,0.16400427,-0.04610774,0.00704630
1761623458278,0.75366372,-0.08477097,-0.20902021,-0.01663913,0.00352879,-0.01465061,0.98537346,0.16391026,-0.04608780,0.00696352
1761623458289,-0.01466094,-0.03516303,0.00269934,-0.00866340,0.00796821,-0.00698532,0.98538333,0.16386434,-0.04604557,0.00692650
1761623458299,0.00053048,-0.01193578,-0.09389482,0.00023241,0.00525224,0.01718831,0.98538378,0.16386558,-0.04601773,0.00701760
1761623458311,-0.03510747,0.01091321,-0.02692121,0.00138337,0.00037109,0.00869106,0.98538221,0.16387346,-0.04601562,0.00706714
1761623458323,0.12447318,-0.10379454,0.00096954,0.00543824,0.00874928,0.02862624,0.98537792,0.16390663,-0.04596225,0.00724176
1761623458334,-0.20046027,0.07712276,0.07319309,-0.01289608,0.00694520,0.02138306,0.98539016,0.16383829,-0.04592544,0.00735509
1761623458343,-0.12081045,0.11203093,-0.08177042,0.00102995,0.00649486,0.01159529,0.98539038,0.16384328,-0.04589394,0.00741132
1761623458354,0.21332027,0.00850422,0.05508434,0.01919159,0.00588530,0.00323395,0.98537405,0.16394979,-0.04586128,0.00742927
1761623458365,-0.02055622,0.05512926,0.13163771,0.00898870,0.00093740,-0.02572857,0.98536699,0.16400013,-0.04585603,0.00728519
1761623458377,0.00854512,-0.10107624,-0.09783343,0.00933788,-0.00478435,-0.02064883,0.98535748,0.16405476,-0.04588402,0.00716440
1761623458388,-0.05079730,0.08849954,0.08703087,-0.03558446,0.01067868,0.00475445,0.98539163,0.16386438,-0.04582688,0.00718983
1761623458390,-23.17617356,1.21723448,-1.01595812,-0.10017056,0.02909462,0.10362665,0.98540974,0.16375920,-0.04579633,0.00729864
1761623458401,4.22268752,-0.20192218,0.04341164,-0.01599622,0.02783423,0.03187539,0.98543070,0.16366882,-0.04563907,0.00747874
1761623458413,0.03737991,-0.02178974,-0.00434743,0.00757270,0.03423965,0.03480123,0.98543102,0.16371237,-0.04544219,0.00767884
1761623458434,0.24518235,-0.02374593,0.05660179,-0.00393095,0.00081740,0.01357212,0.98543716,0.16367109,-0.04543361,0.00782135
1761623458443,-0.47851982,-0.02485261,0.32964471,0.01147074,0.00978826,0.00532762,0.98542990,0.16372672,-0.04538614,0.00784719
1761623458455,0.10040860,-0.03140449,-0.25197905,0.00241879,-0.00408632,0.00788015,0.98542627,0.16374015,-0.04540882,0.00789093
1761623458457,-16.08839463,0.73710462,-0.84257962,0.01827433,0.05155799,0.05249951,0.98542508,0.16376025,-0.04535210,0.00794867
1761623458477,1.89910307,-0.04634381,-0.02234812,0.00801572,0.00519008,0.00465714,0.98541348,0.16384241,-0.04529890,0.00799641
1761623458487,-0.42106626,-0.07820618,-0.00520447,0.01758142,0.01090217,0.01303350,0.98540046,0.16393296,-0.04524276,0.00806353
1761623458490,-20.58776258,-8.16654161,1.37481296,0.06560437,0.08267323,-0.00097630,0.98539334,0.16399856,-0.04516009,0.00806256
1761623458501,3.68033973,1.13705102,-0.27873154,0.00876970,0.00167049,0.00426822,0.98538540,0.16404767,-0.04515073,0.00808646
1761623458521,0.23467289,0.10342455,0.01853333,-0.00508017,0.00759236,0.00188623,0.98539729,0.16399636,-0.04507405,0.00810551
1761623458523,-25.51641989,-3.79226232,1.03142643,-0.20986247,0.07264799,-0.02554242,0.98542996,0.16381798,-0.04501230,0.00808380
1761623458544,2.03998294,0.37680380,-0.08776903,-0.00203152,0.00484724,0.00195621,0.98543591,0.16379573,-0.04495922,0.00810522
1761623458555,-0.41353613,-0.08819669,-0.05366344,0.00471759,-0.00538617,-0.02025460,0.98543124,0.16382121,-0.04498830,0.00799584
1761623458566,-0.11168391,-0.10470765,0.27906656,-0.01132766,0.00168876,-0.03675473,0.98544274,0.16376344,-0.04497969,0.00780839
1761623458567,-21.51704690,-6.76492969,2.15872995,-0.04430155,-0.11773771,-0.12272237,0.98544554,0.16372135,-0.04509154,0.00769181
1761623458590,2.08830369,0.66799058,-0.23341078,-0.01143317,-0.00044489,-0.00574270,0.98546679,0.16359501,-0.04509646,0.00762835
1761623458600,-0.45368035,0.02309174,-0.11520283,-0.00858321,-0.00510125,0.00945464,0.98547238,0.16355210,-0.04512197,0.00767562
1761623458621,0.20510048,-0.01368080,0.00024529,-0.00259631,0.00255477,0.00801291,0.98547761,0.16352406,-0.04509437,0.00776216
1761623458623,-45.71455496,-1.84714035,6.96960423,-0.30608475,0.01204013,0.08681417,0.98552822,0.16321797,-0.04508233,0.00784898
1761623458644,4.30477990,0.20694368,-0.62206435,-0.00679112,-0.00304296,0.00970780,0.98553775,0.16314667,-0.04511428,0.00795091
1761623458654,-0.48261200,0.04609604,0.07000853,-0.00753383,-0.00067659,0.01087033,0.98554350,0.16310824,-0.04511774,0.00800635
1761623458666,0.11627255,-0.11334500,-0.06601835,-0.00477608,-0.00001028,0.00235721,0.98554797,0.16308054,-0.04511780,0.00802002
1761623458677,0.02556514,-0.02059375,0.05884014,-0.01587499,0.00244132,0.01616390,0.98556282,0.16299005,-0.04510388,0.00811216
1761623458689,-0.03938863,-0.02072788,0.09327747,-0.01118092,0.00393635,0.00944809,0.98557365,0.16292800,-0.04508203,0.00816459
1761623458699,0.00390692,-0.08654409,0.11715602,-0.01190828,0.01293514,0.01997724,0.98558645,0.16286429,-0.04501283,0.00827147
1761623458701,-20.90521505,-5.11014085,5.94194247,-0.01764179,0.02732405,0.01178764,0.98559051,0.16284665,-0.04498551,0.00828326
1761623458713,3.63014257,0.90093555,-1.08892760,-0.02701432,0.01172040,0.01027540,0.98561899,0.16268997,-0.04491753,0.00834286
1761623458733,0.17542911,0.02314510,-0.08483586,-0.02504082,0.00567748,0.00454628,0.98566292,0.16243705,-0.04486018,0.00838877
1761623458735,-30.66732387,-3.14548305,6.19340840,-0.09116914,0.06353418,-0.07824910,0.98567871,0.16235956,-0.04480618,0.00832226
1761623458756,2.49290142,0.34022997,-0.53015744,0.00918224,0.01133328,0.00311074,0.98566800,0.16245551,-0.04468775,0.00835477
1761623458766,-0.47018329,0.09631002,0.05043950,0.00446863,0.01367435,0.02077858,0.98566647,0.16247875,-0.04461664,0.00846282
1761623458768,-16.94984344,-0.05379513,4.16032987,-0.06371541,0.08293422,0.06335858,0.98568086,0.16241185,-0.04452956,0.00852934
1761623458779,3.25551092,-0.17556341,-0.60472612,-0.02620683,0.00781230,0.00739473,0.98570665,0.16226509,-0.04448581,0.00857075
1761623458800,0.18834450,0.03164051,-0.04440589,-0.00896881,0.00442252,0.00170379,0.98572367,0.16217316,-0.04444048,0.00858822
1761623458811,-0.43244228,0.04988600,0.23679007,0.01567329,0.00743418,0.00802866,0.98571117,0.16225780,-0.04440034,0.00863157
1761623458813,-20.26142089,3.31048054,7.62952600,0.05521377,0.08545394,0.10346902,0.98570532,0.16231025,-0.04431916,0.00872987
1761623458824,3.56530662,-0.38369365,-1.40349553,0.00738195,0.01060302,0.01916301,0.98570018,0.16235196,-0.04425925,0.00883814
1761623458845,0.16978670,-0.01619717,-0.06658492,0.01090886,0.00785932,0.00684323,0.98568444,0.16246596,-0.04417712,0.00890965
1761623458847,-21.81237679,4.28516222,8.81457158,0.14731419,0.02473556,0.01437969,0.98566112,0.16261327,-0.04415238,0.00892403
1761623458857,3.67303406,-0.93229221,-1.28390248,-0.01163486,0.02072817,0.00491316,0.98567612,0.16255102,-0.04404149,0.00895032
1761623458868,0.00432758,-0.08181287,-0.02674144,-0.00357682,0.02970952,0.01528528,0.98568579,0.16253153,-0.04387957,0.00903362
1761623458880,0.01908369,0.05238096,0.01572995,-0.00627724,0.04372641,0.01729544,0.98570255,0.16249418,-0.04361940,0.00913653
1761623458891,-0.23243983,-0.02568597,-0.20074927,0.05047021,0.01513899,0.02040620,0.98566135,0.16275915,-0.04353992,0.00924366
1761623458902,0.12080438,0.22772358,0.11282894,0.00974148,0.04799367,0.02313315,0.98566292,0.16281273,-0.04327595,0.00937089
1761623458913,-0.03037163,0.10340717,0.02042806,0.02861756,0.02875467,0.01484624,0.98564288,0.16297155,-0.04311636,0.00945329
1761623458924,0.02805835,-0.02966082,0.04789270,0.04742136,0.03312676,-0.01830304,0.98560832,0.16323474,-0.04293251,0.00935171
1761623458935,-0.00111390,-0.07290818,-0.00859832,0.02333001,0.02132682,-0.03842587,0.98559415,0.16336306,-0.04281521,0.00914037
1761623458957,0.20621627,-0.05001369,-0.09295192,-0.01281831,0.01262189,-0.01744134,0.98562487,0.16322398,-0.04267827,0.00895113
1761623458967,-0.50498199,-0.14069051,0.63379310,0.01157101,0.01867383,0.01639839,0.98561820,0.16328531,-0.04257929,0.00903804
1761623458978,0.05614713,0.06073000,-0.14606620,0.00944036,0.00713640,0.02364017,0.98560986,0.16333864,-0.04253897,0.00917161
1761623459022,0.15756302,-0.00511542,-0.14305680,0.00250649,0.00530867,0.00580804,0.98560459,0.16339354,-0.04242271,0.00929880
1761623459035,-2.50399088,0.68406303,1.58666642,0.08782987,0.02271082,0.07369152,0.98551364,0.16395126,-0.04227850,0.00976674
1761623459068,0.82862656,-0.25923018,-0.53281744,0.00156298,0.01278042,0.01458634,0.98551594,0.16397689,-0.04206890,0.01000596
1761623459090,-0.14274146,-0.03726223,0.03993289,-0.00128022,0.03325970,0.02081651,0.98553155,0.16396274,-0.04170138,0.01023598
1761623459112,0.03443094,-0.05438227,-0.08009605,0.01021569,0.03722332,0.01641098,0.98552823,0.16407409,-0.04129565,0.01041486
1761623459113,-48.21408564,-13.92129310,22.54237596,0.03471028,0.47129299,0.14154461,0.98553874,0.16410360,-0.04089505,0.01053517
1761623459135,3.82782361,1.11170939,-1.80367799,-0.00196580,0.02656205,-0.00160527,0.98555461,0.16408197,-0.04060287,0.01051752
1761623459158,0.03593540,0.02468237,0.03931987,-0.00523398,0.02091784,-0.01835113,0.98557617,0.16402335,-0.04036859,0.01031198
1761623459179,0.13267659,0.01521705,-0.05294706,-0.01488688,0.00938416,0.00687252,0.98560502,0.16386927,-0.04027146,0.01038311
1761623459231,0.04739351,-0.00949650,-0.04080387,-0.00417828,0.00624029,0.00204085,0.98562941,0.16375938,-0.04010734,0.01043679
1761623459258,-0.16226471,-0.04427367,-0.03865440,-0.02971158,0.01600297,0.02156192,0.98570161,0.16335828,-0.03989130,0.01072787
1761623459278,0.05435199,0.00501533,-0.11861060,0.00950515,0.01684214,0.01128004,0.98569132,0.16345428,-0.03972120,0.01084180
1761623459311,0.06783171,0.01531824,-0.01238403,0.00005527,0.00724037,0.00367417,0.98569527,0.16345518,-0.03960282,0.01090188
1761623459325,-0.04608041,0.05448073,-0.20035130,-0.00458293,0.00906602,-0.00478459,0.98570339,0.16342356,-0.03954026,0.01086886
1761623459345,0.08600368,0.03003334,0.13589902,-0.00615704,-0.00314657,0.00534391,0.98571191,0.16336076,-0.03957235,0.01092337
1761623459356,0.14629913,0.15267842,-0.87033259,0.00938651,-0.00850169,0.03612179,0.98570006,0.16340910,-0.03961614,0.01110940
1761623459367,0.03229295,-0.00526996,0.17118559,0.06361544,-0.01768819,0.05069717,0.98563074,0.16378125,-0.03971961,0.01140598
1761623459378,-0.07276317,-0.04208132,0.12772628,0.02650264,-0.01736591,0.01988567,0.98560112,0.16392834,-0.03981599,0.01151634
1761623459389,0.04606420,-0.22917415,0.25691007,-0.02489807,-0.00259724,0.03009892,0.98562117,0.16379265,-0.03983015,0.01168038
1761623459401,-0.02799997,-0.02713282,0.10123780,-0.06032210,-0.01787672,0.03205763,0.98567417,0.16343373,-0.03993652,0.01187112
1761623459411,0.03969387,-0.01438903,-0.19560485,-0.03850223,-0.02342068,0.03238068,0.98569986,0.16323737,-0.04005596,0.01203626
1761623459422,-0.02790427,0.06164270,-0.02623654,-0.00731311,-0.02599697,0.03695747,0.98569816,0.16319641,-0.04020154,0.01224323
1761623459425,2.00986182,1.10242259,-14.13531961,0.14884461,-0.15777020,0.26646754,0.98565336,0.16338991,-0.04040665,0.01258963
1761623459436,-0.24727665,-0.21974732,2.88222474,0.02282768,-0.07433331,0.09388910,0.98560734,0.16352003,-0.04083035,0.01312480
1761623459448,0.05248354,-0.37769377,-0.12286490,-0.02269789,-0.09590947,0.03695358,0.98560332,0.16339519,-0.04135785,0.01332805
1761623459458,-0.01871881,-0.32172962,0.24974839,-0.14255482,-0.05905751,-0.00710781,0.98571983,0.16261114,-0.04168266,0.01328895
1761623459478,-0.09514485,0.10116932,0.18475555,-0.08360031,-0.03290290,0.02056132,0.98583941,0.16178350,-0.04200840,0.01349251
1761623459491,0.10690842,-0.10944257,-0.39281982,-0.08011436,-0.04512677,0.03516563,0.98590583,0.16128679,-0.04228819,0.01371054
1761623459530,-0.03545451,0.18743365,0.14455316,0.00072630,-0.01577442,0.00901761,0.98588776,0.16130099,-0.04259658,0.01388683
1761623459558,0.14056466,-0.07762160,-0.71274848,0.01054311,-0.06366503,-0.04527361,0.98583302,0.16144965,-0.04349426,0.01324847
1761623459561,-8.62189146,-26.40109159,-18.12888533,-1.56739863,0.18839235,-0.36343436,0.98622148,0.15917692,-0.04322109,0.01272149
1761623459589,0.64262513,2.85535924,2.38207922,0.06241628,0.04306361,0.00742921,0.98610285,0.16006635,-0.04260743,0.01282736
1761623459613,-0.00984630,-0.00267542,-0.05424646,0.03138987,0.05868147,-0.04707691,0.98607950,0.16043518,-0.04191792,0.01227421
1761623459623,-0.35737230,-1.70748149,0.18850982,-0.21633181,0.05751026,-0.02641425,0.98627435,0.15932107,-0.04162175,0.01213817
1761623459635,0.01018326,0.09077507,0.44301819,-0.17350022,0.04358550,-0.04706769,0.98645638,0.15828007,-0.04136023,0.01185577
1761623459646,0.29186267,0.40604466,-0.08353405,0.01550906,0.03561776,-0.00765385,0.98645153,0.15836304,-0.04116968,0.01181482
1761623459657,0.34055978,0.50914356,0.07223390,0.01844087,0.01146379,0.01628735,0.98643652,0.15846631,-0.04110548,0.01190603
1761623459668,0.02359382,-0.09009785,-0.10271920,-0.01533092,-0.02289316,0.02056118,0.98644363,0.15837969,-0.04123483,0.01202220
1761623459679,0.14059328,-0.00891357,0.01430366,-0.07715122,-0.02287316,0.02662147,0.98650128,0.15797851,-0.04135377,0.01216063
1761623459690,0.04919373,0.13914303,-0.01706102,-0.07733051,-0.03812486,0.06179093,0.98655624,0.15755319,-0.04156345,0.01250048
1761623459701,0.10546181,0.35518572,-0.01612739,-0.00046837,-0.04550333,0.07223661,0.98654040,0.15755052,-0.04182282,0.01291223
1761623459712,0.13731278,0.36523039,-0.15349980,0.10573735,-0.05949137,0.07325315,0.98642704,0.15813736,-0.04215300,0.01331878
1761623459724,-0.05516335,0.25485788,-0.05184676,0.12008670,-0.06249929,0.04014609,0.98629414,0.15884587,-0.04252175,0.01355565
1761623459735,0.01316824,-0.00395237,0.04253849,0.06666077,-0.04365568,0.02085738,0.98622241,0.15921584,-0.04276403,0.01367140
1761623459746,0.09912286,-0.19189430,0.15096313,-0.00269691,-0.04983190,0.07140733,0.98620764,0.15920128,-0.04303313,0.01405700
1761623459748,11.32593157,6.06223435,-3.59290395,-0.11138853,-0.27740285,0.27224339,0.98620973,0.15907875,-0.04333827,0.01435647
1761623459768,-1.41787258,-0.75414692,0.65107237,0.02775662,-0.02885126,0.02366665,0.98614873,0.15935632,-0.04362678,0.01459314
1761623459770,14.66037733,27.82177303,-2.38769989,0.96846082,-0.13581720,0.25703207,0.98597351,0.16037320,-0.04376939,0.01486302
1761623459790,-1.62179166,-2.71553647,0.22360534,0.11868932,-0.00131679,0.01425342,0.98578093,0.16153635,-0.04378229,0.01500271
1761623459792,3.96329529,21.66071717,-8.23033099,0.69171487,-0.00577057,0.12903838,0.98563606,0.16240100,-0.04378951,0.01516400
1761623459814,-0.51967335,-2.73180086,0.91619596,0.03526734,0.00020502,0.01596892,0.98557187,0.16277483,-0.04378733,0.01533327
1761623459824,-0.02773483,0.01158179,0.02621254,0.01176875,-0.01072186,0.03517404,0.98555731,0.16283250,-0.04383987,0.01550563
1761623459835,0.04186837,-0.37874826,0.09197227,-0.00214008,0.01208931,0.02163320,0.98556042,0.16282041,-0.04377157,0.01562785
1761623459837,-0.83307249,-1.06660138,-2.33688186,0.05686088,-0.07483904,0.09555202,0.98554261,0.16289148,-0.04386512,0.01574729
1761623459857,0.08463030,0.09577476,0.22339618,0.01372969,0.00277074,0.00963190,0.98551937,0.16303015,-0.04383713,0.01584458
1761623459868,0.14682694,0.22449081,-0.39800686,0.07508399,-0.02156719,0.02735245,0.98544741,0.16342059,-0.04394928,0.01598681
1761623459879,0.10631031,0.08577870,0.03539418,0.04542823,-0.01804516,0.03423647,0.98539576,0.16368407,-0.04405394,0.01618538
1761623459882,10.84931083,9.47248483,-13.81637875,0.10691264,-0.14595113,0.19641123,0.98536546,0.16380168,-0.04421449,0.01640143
1761623459893,-1.93935770,-1.89619934,2.54526604,-0.03498125,-0.02829180,0.01605220,0.98539023,0.16359879,-0.04437858,0.01649454
1761623459913,-0.12316085,-0.14460371,0.13583492,-0.02729292,-0.02055051,0.01309472,0.98542453,0.16332176,-0.04458717,0.01662745
1761623459915,20.13599540,-18.35211353,-36.24764961,-0.58323180,-0.24811420,0.05204476,0.98548784,0.16288434,-0.04477326,0.01666648
1761623459926,-2.48649395,2.37384793,4.36837822,-0.03140287,-0.02951161,-0.00380061,0.98551031,0.16270377,-0.04494295,0.01664463
1761623459937,0.09677712,0.27215510,-0.09240240,0.03064285,-0.02503914,0.02287730,0.98547471,0.16286924,-0.04507816,0.01676816
1761623459949,-0.02609280,0.16890434,0.18786425,0.06640952,-0.02293473,0.01057328,0.98540567,0.16324446,-0.04520774,0.01682790
1761623459968,-0.11314928,-0.14381941,0.17621980,0.00499736,-0.01208054,0.01772187,0.98538896,0.16329393,-0.04532734,0.01700335
1761623459970,15.93641560,-3.04268730,-15.75015109,-0.38866139,-0.07536734,0.26050109,0.98544529,0.16290527,-0.04540270,0.01726385
1761623459982,-2.59511187,0.28300235,2.40486150,-0.04732619,-0.03787301,0.00885027,0.98547929,0.16263315,-0.04562047,0.01731474
1761623460002,-0.13163561,0.08625544,0.10975668,-0.00194682,-0.02548561,-0.00716503,0.98547185,0.16261348,-0.04587788,0.01724237
1761623460004,17.06712411,5.52024144,-26.81346683,0.25298451,-0.12974349,0.00509541,0.98542634,0.16285382,-0.04600114,0.01724721
1761623460027,-1.39159550,-0.44930901,2.25848742,0.03030684,-0.01655852,-0.00123392,0.98536088,0.16319780,-0.04618907,0.01723321
1761623460036,0.70983056,-0.12203347,-0.84812401,-0.04641206,-0.03191299,-0.00722896,0.98539054,0.16297966,-0.04633907,0.01719923
1761623460072,-0.22163806,0.00814915,0.29609440,-0.00643927,-0.00528352,-0.00377111,0.98540645,0.16286343,-0.04643443,0.01713116
1761623460082,1.86946992,-0.13216737,-3.54637431,-0.01030713,-0.02603579,0.01556028,0.98540744,0.16281345,-0.04656071,0.01720663
1761623460094,-1.14139139,0.70641896,1.47459571,0.04082406,0.01254205,0.01669805,0.98536905,0.16305635,-0.04648608,0.01730599
1761623460114,-0.19317224,-0.20630450,0.56513601,0.07086466,0.00726261,-0.01634618,0.98525725,0.16376854,-0.04641309,0.01714171
1761623460124,0.36796138,-0.38016085,-0.56993438,-0.05152656,-0.00070492,-0.01410596,0.98530285,0.16350060,-0.04641676,0.01706836
1761623460136,-0.07647110,-0.24896066,0.28477317,-0.06790641,-0.01028352,-0.02350740,0.98536711,0.16311014,-0.04647589,0.01693319
1761623460148,-0.13351656,0.02671141,0.20276737,-0.09850909,-0.00835534,-0.01018592,0.98546345,0.16251908,-0.04652602,0.01687207
1761623460158,0.02764248,0.07154104,-0.10521331,-0.07423723,-0.00047911,0.02938302,0.98552312,0.16214047,-0.04652846,0.01702193
1761623460169,0.06998216,0.19914591,-0.04396538,-0.03919248,0.00310189,0.04483919,0.98555595,0.16191904,-0.04651094,0.01727527
1761623460181,-0.10362778,0.20856841,-0.18391597,0.01923817,-0.01658336,0.00786317,0.98553288,0.16202773,-0.04660463,0.01731969
1761623460192,0.14609419,-0.00778792,0.01320369,0.06599314,-0.00582730,0.01408555,0.98546911,0.16239729,-0.04663727,0.01739857
1761623460203,0.12306763,-0.18376990,-0.30909456,-0.02807573,-0.01947333,0.00317074,0.98548953,0.16224007,-0.04674632,0.01741633
1761623460205,19.60118910,-13.62591818,-37.63390862,-0.42395409,-0.14869542,-0.05143344,0.98554990,0.16183731,-0.04688758,0.01736747
1761623460225,-2.05239498,1.17282634,4.02022147,-0.05629159,-0.00898573,-0.00431830,0.98563821,0.16127721,-0.04697699,0.01732450
1761623460235,0.13190160,-0.12749660,-0.42649733,-0.05383156,0.00559886,-0.03666956,0.98568869,0.16099729,-0.04694787,0.01713382
1761623460238,3.02417156,1.48897784,-9.34334647,-0.05484007,-0.01400287,-0.07290295,0.98570302,0.16091503,-0.04696888,0.01702446
1761623460258,-0.49770580,0.02971656,1.56024717,0.04086643,0.00677069,0.00474201,0.98563766,0.16132982,-0.04690015,0.01707260
1761623460269,0.42701793,-0.06552896,-0.90274251,0.03042090,-0.01128552,0.00923039,0.98560812,0.16148801,-0.04695884,0.01712059
1761623460271,10.08693989,-3.25590923,-16.48385850,-0.02349532,0.02824262,0.11480802,0.98561227,0.16145747,-0.04692212,0.01726984
1761623460293,-1.45324781,0.32711695,2.50803943,-0.01894543,0.00584277,0.00431628,0.98564729,0.16125665,-0.04686019,0.01731560
1761623460303,0.22187811,-0.07493040,-0.45525016,-0.04406276,0.01622134,-0.01347509,0.98569122,0.16102091,-0.04677341,0.01724351
1761623460315,-0.01913406,0.01373557,-0.01255190,-0.00256761,0.00558858,-0.00690166,0.98569593,0.16100589,-0.04674071,0.01720313
1761623460327,0.10213239,0.17987660,0.05531685,-0.02162567,-0.00429677,-0.02313272,0.98571830,0.16087613,-0.04676649,0.01706433
1761623460338,0.29263886,0.04320643,-0.23176637,0.01946638,-0.00208032,-0.02989799,0.98570367,0.16097931,-0.04677752,0.01690587
1761623460340,9.53444734,4.69804773,-14.90324071,0.01995645,-0.10561848,-0.06649230,0.98569438,0.16100525,-0.04691482,0.01681943
1761623460360,-1.56297736,-0.51613925,2.28799227,0.02368557,-0.00939376,-0.00511332,0.98565185,0.16124329,-0.04700923,0.01676805
1761623460370,0.24475354,0.25084556,-0.65542684,0.10120177,-0.03261295,0.02140741,0.98556395,0.16172400,-0.04716414,0.01686973
1761623460381,-0.07916854,-0.12711017,0.31846231,0.01949899,-0.01070877,0.00521301,0.98554190,0.16183709,-0.04722625,0.01689997
1761623460392,0.20370724,-0.10128989,-0.22434974,0.01357189,-0.02100282,-0.01587640,0.98552559,0.16191174,-0.04734177,0.01681265
1761623460394,17.88214392,2.49882454,-27.53521446,0.02057374,-0.09856555,-0.04056313,0.98551853,0.16193128,-0.04743540,0.01677411
1761623460415,-1.82157796,-0.30032052,2.81117668,0.01377956,-0.00674527,0.00910562,0.98549039,0.16207252,-0.04750454,0.01686744
1761623460425,0.30731283,0.04944823,-0.59239748,0.01461521,-0.02178647,0.02975498,0.98547055,0.16214560,-0.04761348,0.01701622
1761623460437,-0.12701354,-0.01207634,0.22911617,-0.00189998,-0.00554637,-0.00409608,0.98547125,0.16213410,-0.04764703,0.01699144
1761623460448,0.02494810,-0.08102513,-0.19412829,0.02745912,-0.01659834,-0.01618257,0.98544300,0.16228788,-0.04773998,0.01690082
1761623460459,0.15438414,-0.02903995,-0.04860617,-0.00187594,-0.00488196,0.00825526,0.98544263,0.16227803,-0.04776561,0.01694416
1761623460470,-0.08438923,0.01335608,0.05982322,-0.00583156,-0.01715267,0.00109909,0.98544324,0.16224537,-0.04786167,0.01695031
1761623460481,0.04060434,0.00528116,-0.04849035,-0.00467394,-0.01328088,-0.00366302,0.98544427,0.16221966,-0.04793471,0.01693016
1761623460492,-0.09456437,0.03369982,0.00228421,-0.00239305,-0.01899022,-0.00962497,0.98544217,0.16220590,-0.04804391,0.01687482
1761623460503,-0.03699977,-0.01738732,0.10602896,-0.00223144,-0.01128581,0.01327760,0.98543999,0.16219408,-0.04810372,0.01694519
1761623460514,-0.06356942,0.04961868,0.08316873,-0.00704423,-0.00373766,-0.00278548,0.98544568,0.16215498,-0.04812447,0.01692973
1761623460525,0.00870776,-0.03613117,0.04426447,-0.02340776,-0.00844641,0.00158534,0.98546460,0.16202507,-0.04817134,0.01693853
1761623460537,0.05878194,-0.13078407,-0.15545488,-0.01896555,-0.02059444,-0.00103922,0.98547694,0.16191507,-0.04829079,0.01693250
1761623460548,0.14069686,-0.02338419,-0.01724951,-0.05063547,-0.01866211,0.01786122,0.98551593,0.16163657,-0.04839343,0.01703074
1761623460550,16.13515305,-8.15224221,-24.07506678,-0.07664877,-0.11716570,0.06202431,0.98552195,0.16155609,-0.04851646,0.01709587
1761623460570,-1.83377130,0.83993589,2.72394806,0.00621732,-0.02094526,0.00154994,0.98550126,0.16161795,-0.04872486,0.01711129
1761623460581,0.21297416,-0.11173303,-0.57407994,0.03186781,-0.03370946,-0.01123672,0.98546438,0.16179323,-0.04891026,0.01704949
1761623460583,8.56529583,-2.33514742,-16.18211920,-0.01937752,-0.05097198,0.02689296,0.98546461,0.16176901,-0.04897398,0.01708310
1761623460604,-1.19481107,0.37645721,2.28595227,-0.01959530,-0.01374047,-0.00039640,0.98549113,0.16156423,-0.04911757,0.01707896
1761623460614,0.35138792,-0.19235100,-0.62707081,-0.06558415,-0.01557432,0.02752977,0.98553856,0.16123631,-0.04919544,0.01721661
1761623460627,-0.25015654,-0.03050493,0.19741325,-0.01738466,-0.02269355,0.00379757,0.98554874,0.16112853,-0.04933614,0.01724015
1761623460637,0.05525362,-0.11443825,-0.04634070,-0.02049022,-0.00394798,0.01114165,0.98556485,0.16101686,-0.04935765,0.01730087
1761623460648,0.03843784,0.05880350,-0.07178260,-0.05785056,-0.01348404,0.02063245,0.98560939,0.16071025,-0.04942912,0.01741023
1761623460666,-0.03633950,0.14521126,0.22726864,-0.01139416,-0.00631990,0.00351306,0.98562276,0.16060713,-0.04948631,0.01744202
1761623460700,-0.01750340,0.04955386,0.02017291,0.01108852,-0.00897238,-0.01384620,0.98558860,0.16079508,-0.04963840,0.01720733
1761623460726,0.16921602,-0.07045596,-0.29214013,-0.01462009,-0.02906048,-0.02462859,0.98560589,0.16060648,-0.05001328,0.01688962
1761623460736,0.14101200,-0.07922073,-0.46908737,-0.08108334,-0.04116128,0.04713342,0.98565939,0.16018485,-0.05022732,0.01713471
1761623460759,-0.19844776,0.10701836,0.48662931,-0.00568549,-0.02513038,0.00485821,0.98565429,0.16011975,-0.05051506,0.01719034
1761623460770,0.14755425,0.20576955,-0.17886448,-0.01835436,-0.03404458,0.00296245,0.98566079,0.16001880,-0.05070230,0.01720663
1761623460793,-0.09759040,-0.05915770,0.15660574,0.01158219,-0.02188829,0.01313074,0.98562401,0.16015026,-0.05095074,0.01735567
1761623460804,0.17598045,-0.01591069,-0.04131839,0.01648674,-0.01415067,0.00618794,0.98560430,0.16024259,-0.05102998,0.01739032
1761623460815,-0.03479960,-0.10277729,0.09118489,0.02752499,-0.01574883,0.01369269,0.98557413,0.16039260,-0.05111581,0.01746494
1761623460826,0.11602895,-0.14989597,0.16113915,-0.00541082,-0.00079894,0.02116402,0.98557658,0.16036392,-0.05112005,0.01757711
1761623460837,-0.15134988,0.08429742,0.12589291,-0.01314240,-0.00816750,-0.00258688,0.98558635,0.16029098,-0.05116537,0.01756276
1761623460848,-0.08816197,0.04001532,-0.07850650,0.00141420,-0.00647851,0.00049619,0.98558304,0.16029911,-0.05120263,0.01756561
1761623460859,0.12703835,0.00859402,-0.10009445,0.01447235,0.00235771,0.00121999,0.98557042,0.16038016,-0.05118942,0.01757244
1761623460870,-0.01707787,0.08421594,-0.00806481,0.00444223,-0.01171567,-0.00875380,0.98556413,0.16040392,-0.05125210,0.01752561
1761623460881,0.00457630,0.02329869,-0.01985828,0.00920145,-0.01950501,-0.01735294,0.98555167,0.16045591,-0.05136231,0.01742756
1761623460893,0.17040327,0.30705435,-0.07727101,0.01057228,-0.01566855,-0.00755401,0.98553820,0.16051511,-0.05145005,0.01738526
1761623460904,-0.11396058,0.07257194,0.06103152,0.01107136,-0.02013516,-0.00425879,0.98552165,0.16058099,-0.05156985,0.01735992
1761623460915,0.06067951,-0.08109869,-0.08680407,0.05031215,-0.01116399,-0.00173501,0.98547479,0.16085016,-0.05162958,0.01735064
1761623460926,-0.00390905,-0.22661331,0.22994649,-0.01479936,-0.01785131,-0.00619162,0.98548305,0.16077320,-0.05172241,0.01731844
1761623460937,-0.06155209,-0.09663431,0.07350431,-0.00550487,-0.02234752,-0.01449634,0.98548293,0.16074238,-0.05184755,0.01723726
1761623460948,-0.05914590,-0.04612776,-0.02521487,-0.01299835,-0.03577768,-0.02185568,0.98548646,0.16066764,-0.05205328,0.01711159
1761623460960,-0.03515435,0.00878859,-0.11763185,-0.00453893,-0.01312298,-0.00557576,0.98548728,0.16064154,-0.05212873,0.01707953
1761623460970,0.09892098,0.07767690,0.02313811,-0.00232145,-0.01372714,0.00670580,0.98548487,0.16062946,-0.05220011,0.01711440
1761623460981,-0.09202227,0.05153838,-0.00430969,0.00837567,-0.01340258,-0.00622103,0.98547394,0.16067595,-0.05227450,0.01707988
1761623460993,0.03011130,0.01063500,0.17241196,0.00892014,-0.01712742,-0.00145080,0.98545979,0.16072992,-0.05237812,0.01707110
1761623461004,-0.03134730,0.03853758,-0.04973025,0.01549907,-0.01828750,-0.01922530,0.98544236,0.16081516,-0.05247870,0.01696536
1761623461015,-0.04088000,-0.02844191,0.02661208,-0.00043313,-0.01636821,-0.01280358,0.98543934,0.16081291,-0.05256381,0.01689878
1761623461026,-0.23262886,0.03051900,0.03174812,-0.01192028,-0.00629240,-0.01718680,0.98545028,0.16074437,-0.05260000,0.01679996
1761623461028,2.66539635,2.87602986,-6.56502435,0.02921038,0.01937010,-0.07119324,0.98544751,0.16077650,-0.05257869,0.01672164
1761623461041,-0.43723372,-0.42981672,1.01990668,0.02465166,-0.01015231,-0.00279433,0.98542017,0.16092564,-0.05264011,0.01670474
1761623461061,0.00506122,-0.05005783,0.11694142,0.03247377,-0.01652697,0.01004873,0.98535366,0.16126499,-0.05281282,0.01680975
1761623461063,30.20995351,8.84866759,-12.16555833,0.20584330,-0.30001303,0.18027518,0.98531398,0.16141937,-0.05303783,0.01694495
1761623461083,-2.18867835,-0.82675321,0.96750669,-0.02355676,-0.01551747,-0.01053200,0.98534631,0.16118145,-0.05319455,0.01683858
1761623461094,0.18931280,-0.53859693,0.07624194,-0.12912883,-0.04907247,-0.01335908,0.98544515,0.16049707,-0.05345464,0.01676778
1761623461105,-0.02886849,-0.21930302,0.04686647,-0.09494003,-0.04122890,-0.01958554,0.98552090,0.15996540,-0.05368552,0.01665810
1761623461117,0.06201435,0.05930319,-0.01052820,-0.04948925,-0.04116339,-0.01544448,0.98555592,0.15967837,-0.05392427,0.01656852
1761623461127,0.09339830,0.27909986,0.01203821,0.02193693,-0.04189340,-0.03674766,0.98552868,0.15979244,-0.05414211,0.01637743
1761623461138,0.00806269,0.28709688,-0.11120638,0.06058809,-0.05579713,-0.02492849,0.98546309,0.16011053,-0.05443505,0.01624656
1761623461149,0.00410154,0.23156734,0.04235853,0.02664377,-0.02910151,-0.00730424,0.98542991,0.16026240,-0.05460093,0.01620492
1761623461161,0.08380434,0.01542136,-0.04288974,0.03301629,-0.02365455,0.01316468,0.98538918,0.16045719,-0.05474049,0.01628260
1761623461171,0.09792287,-0.21151510,0.04927612,0.01358935,-0.02072046,-0.01313850,0.98537250,0.16052922,-0.05485031,0.01621296
1761623461182,0.01750581,-0.16955442,0.16338760,-0.05335876,-0.03063607,-0.01301418,0.98541061,0.16024641,-0.05501268,0.01614399
1761623461193,0.04475789,-0.11072299,0.11112247,-0.04242998,-0.05203995,0.00229136,0.98543368,0.15999820,-0.05531711,0.01615739
1761623461205,0.12204637,0.07294691,0.07180716,-0.01247922,-0.06898032,-0.01852550,0.98542472,0.15992644,-0.05571375,0.01605087
1761623461207,24.34002678,-8.05143926,11.16291335,-0.15702592,-0.34123356,-0.22544866,0.98543545,0.15975371,-0.05608910,0.01580288
1761623461218,-4.81759098,1.76760380,-2.41797396,-0.04363132,-0.11523944,-0.05341311,0.98544265,0.15951592,-0.05671716,0.01551177
1761623461238,-0.24595985,0.10847275,-0.04506444,-0.02793101,-0.04847201,-0.01945690,0.98546295,0.15923522,-0.05720430,0.01531623
1761623461249,0.53299023,0.11694136,0.15580683,-0.01860268,-0.09884247,-0.01793650,0.98544993,0.15913755,-0.05772323,0.01522207
1761623461261,-0.19875230,-0.03313591,0.13675269,-0.01388600,-0.07771678,0.02204629,0.98543404,0.15905493,-0.05818564,0.01535324
1761623461262,29.59779662,-0.15435085,24.32434076,-0.16661006,-0.34756191,0.21673756,0.98543665,0.15890498,-0.05849845,0.01554831
1761623461283,-2.83766764,-0.03376253,-2.13124326,-0.01953535,-0.02100905,0.01411556,0.98545390,0.15870377,-0.05871484,0.01569370
1761623461294,0.02037109,-0.11835240,0.42647571,-0.04483692,-0.06525123,-0.00657703,0.98547237,0.15846165,-0.05906720,0.01565818
1761623461305,-0.07011673,0.08637520,0.01866010,-0.04427512,-0.03886152,-0.01643293,0.98550135,0.15820707,-0.05929065,0.01556369
1761623461307,17.27380669,6.54702055,41.08337202,-0.09706436,-0.08948805,-0.06454829,0.98551032,0.15812942,-0.05936224,0.01551205
1761623461319,-2.21724549,-0.58565023,-5.34192480,0.02285777,0.00129827,0.00101894,0.98548795,0.15827113,-0.05935419,0.01551837
1761623461371,-0.07078282,-0.02428153,-0.12659648,0.00163265,0.00191372,0.00158935,0.98548349,0.15831350,-0.05930453,0.01555961
1761623461384,1.23662195,0.14336426,3.36318191,0.08878107,0.14239266,0.05287063,0.98544207,0.15886838,-0.05841458,0.01589005
1761623461416,-0.33463850,-0.02964470,-1.11409200,0.02998821,0.01668187,-0.02988914,0.98538696,0.15935719,-0.05814266,0.01540286
1761623461438,0.12224358,0.10446793,0.11252492,0.04982341,-0.00302480,-0.05378412,0.98530677,0.15989528,-0.05817533,0.01482199
1761623461449,0.35803837,-0.02015614,0.30376111,0.02526723,-0.00743985,-0.06777723,0.98528733,0.16003425,-0.05821625,0.01444922
1761623461472,-0.18364868,-0.13206759,-0.22684899,0.00531170,0.00567315,-0.02463818,0.98528538,0.16009534,-0.05815101,0.01416588
1761623461483,0.20191069,-0.00160031,0.14159348,0.00569401,-0.01541958,-0.03920529,0.98527855,0.16012580,-0.05823350,0.01395613
