UnixTime(ms),Ax,Ay,Az,Gx,Gy,Gz,QuatW,QuatX,QuatY,QuatZ
1761615105851,0.00000000,0.00000000,0.00000000,0.00000000,0.00000000,0.00000000,0.99488529,0.07931574,-0.02658153,0.05661886
1761615105916,0.05837330,-0.01677394,-0.04830894,-0.01023855,-0.01484545,-0.00671084,0.99491126,0.07898145,-0.02706623,0.05639975
1761615105923,35.65596930,-8.71194364,-28.14219673,-0.64214109,-0.82594520,-0.41067795,0.99507999,0.07679817,-0.02987444,0.05500345
1761615105954,-7.24579941,1.80804643,5.92639954,-0.04856162,-0.07026170,-0.02290740,0.99512365,0.07605275,-0.03095296,0.05465182
1761615105977,-0.08167426,0.09401725,0.19611045,-0.04403783,-0.06616642,-0.01501799,0.99514742,0.07555292,-0.03170395,0.05448137
1761615105995,-0.08154078,0.07530814,0.03639466,-0.02136345,-0.06293206,-0.00759136,0.99514754,0.07535851,-0.03227663,0.05441229
1761615106014,-0.05012192,0.06353389,0.15683986,-0.00617437,-0.04556974,-0.01834099,0.99514735,0.07529862,-0.03271866,0.05423438
1761615106027,0.08292860,-0.00390473,-0.02626788,-0.00904623,-0.03849743,-0.02007145,0.99515066,0.07523937,-0.03297082,0.05410291
1761615106042,-0.36879858,0.07429475,0.21625268,-0.00021323,-0.02043572,-0.01706817,0.99515260,0.07523780,-0.03312102,0.05397746
1761615106052,0.51911867,0.02098689,-0.07333136,0.00096863,-0.01105026,-0.03511557,0.99516005,0.07524274,-0.03317738,0.05379837
1761615106064,-0.39022136,-0.01630699,0.12354230,-0.00196797,-0.00079188,-0.01548279,0.99516561,0.07523133,-0.03318197,0.05370857
1761615106076,-0.12196115,0.03652137,0.29197764,-0.01609747,0.00462693,-0.01567959,0.99517913,0.07513313,-0.03315374,0.05361292
1761615106087,-0.01756974,-0.01310269,0.12329425,-0.00101557,0.03864816,-0.03439478,0.99519726,0.07512740,-0.03293538,0.05341859
1761615106099,-0.12655757,0.06585289,0.03339714,0.04396351,0.03070143,-0.05621272,0.99520137,0.07538678,-0.03275424,0.05308694
1761615106111,-0.04942447,0.16607458,0.12481677,0.05234207,0.03424505,-0.03391004,0.99519516,0.07569822,-0.03255049,0.05288517
1761615106123,-0.09295715,0.19605687,0.13331534,0.05072397,0.03596993,-0.04423867,0.99519316,0.07598988,-0.03234366,0.05263080
1761615106134,-0.10613190,-0.08202032,-0.07087371,0.07197465,0.03534374,-0.03039429,0.99517687,0.07641453,-0.03213513,0.05245148
1761615106146,-0.27507487,0.19491129,0.27241653,0.04260330,0.05863972,-0.03551216,0.99517955,0.07665524,-0.03180382,0.05225083
1761615106158,-0.21927616,-0.19270427,-0.01394974,0.02773161,0.05345671,-0.02172384,0.99518379,0.07682301,-0.03148040,0.05211940
1761615106170,-0.00195759,-0.07825505,0.04876704,-0.01301370,0.05873299,0.01079910,0.99519716,0.07674688,-0.03113681,0.05218258
1761615106181,0.19013192,-0.33478996,0.08792113,0.01924481,0.07081698,-0.00551580,0.99520274,0.07685369,-0.03074378,0.05215196
1761615106192,-0.11701477,0.10765606,0.01110649,0.04108393,0.07472024,-0.02594446,0.99520544,0.07708787,-0.03031788,0.05200408
1761615106203,-0.01467643,0.31026887,-0.12474964,0.07487159,0.07495083,-0.01828044,0.99519065,0.07751464,-0.02989066,0.05189988
1761615106215,-0.04402929,0.15226794,-0.00000000,0.08568033,0.06914090,-0.02013990,0.99517023,0.07800302,-0.02949655,0.05178508
1761615106226,0.05422125,0.05210996,0.05034830,0.07840110,0.08242591,-0.03290745,0.99515928,0.07842638,-0.02905145,0.05160738
1761615106237,0.01417471,-0.15888305,-0.14647198,0.04133671,0.06624799,-0.02296677,0.99515840,0.07866614,-0.02866721,0.05147418
1761615106248,0.11559484,-0.14668738,-0.03890753,0.01776599,0.06962187,-0.00466479,0.99516287,0.07876207,-0.02829126,0.05144899
1761615106260,-0.05474909,-0.17183724,-0.01664921,-0.00466596,0.07054896,-0.00189350,0.99517750,0.07873431,-0.02787149,0.05143772
1761615106271,-0.15591009,-0.21313245,0.13842484,-0.03633997,0.07804913,0.00914066,0.99520262,0.07853444,-0.02744222,0.05148799
1761615106282,-0.09111776,-0.15449748,0.05228068,-0.04784570,0.08915945,0.00791139,0.99523536,0.07826411,-0.02693847,0.05153269
1761615106293,-0.06402933,-0.23389145,0.01328713,-0.07274792,0.08779238,0.00989000,0.99527688,0.07786400,-0.02645561,0.05158709
1761615106307,-0.01325692,-0.08179418,-0.21296114,-0.06987159,0.07005410,-0.00188885,0.99532899,0.07737140,-0.02596173,0.05157377
1761615106315,0.06589165,-0.90139409,0.53130560,-0.15356139,0.12798471,-0.02735730,0.99539461,0.07676484,-0.02545619,0.05146571
1761615106326,-0.09307123,0.04166487,-0.37787328,-0.14628989,0.10288641,-0.01102011,0.99547306,0.07596756,-0.02489546,0.05140565
1761615106337,-0.06413462,-0.45987129,-0.06410036,-0.20392843,0.10580048,-0.00341852,0.99557608,0.07481536,-0.02429769,0.05138634
1761615106349,-0.04507756,-0.47108994,-0.02132774,-0.24874249,0.11526077,-0.00796474,0.99569762,0.07342240,-0.02365223,0.05134173
1761615106361,0.03803549,-0.21108900,-0.04251368,-0.26464998,0.11400757,-0.02404598,0.99583803,0.07182127,-0.02296248,0.05119626
1761615106372,-0.03348929,-1.07271153,-0.03009637,-0.27278414,0.10880458,-0.05205514,0.99597582,0.07029368,-0.02235317,0.05090475
1761615106383,-0.05474901,1.51970293,-0.40857682,-0.21097288,0.12425430,-0.07157905,0.99609218,0.06913333,-0.02166978,0.05051106
1761615106393,0.01572747,0.19334955,-0.02988219,-0.20477299,0.13387765,-0.03327628,0.99619010,0.06805827,-0.02096692,0.05033636
1761615106405,-0.01755604,0.36019536,0.12884766,-0.17280727,0.14731195,-0.05790716,0.99629697,0.06701279,-0.02007568,0.04998602
1761615106417,0.02723023,-0.50045787,-0.18215146,-0.16876110,0.15089394,-0.05543117,0.99639396,0.06605085,-0.01921559,0.04967007
1761615106426,0.01937289,-0.53957889,0.41123352,-0.23257262,0.18175698,-0.05644208,0.99649618,0.06494613,-0.01835224,0.04940197
1761615106438,-0.13288761,0.42910945,-0.18890246,-0.24985129,0.14719100,-0.05953817,0.99661662,0.06355945,-0.01753533,0.04907153
1761615106449,-0.10120230,-0.23513373,-0.21657931,-0.25100542,0.14972598,-0.03388575,0.99673296,0.06210362,-0.01666692,0.04887499
1761615106460,0.04509148,0.09130533,0.04784416,-0.27237730,0.15707953,-0.03872775,0.99685175,0.06057831,-0.01578727,0.04865812
1761615106471,-0.14600393,-0.06182354,-0.01620644,-0.24825059,0.17116450,-0.07357117,0.99696583,0.05923776,-0.01486299,0.04826083
1761615106482,-0.00822937,0.39354222,-0.01815301,-0.20537061,0.16317950,-0.07368397,0.99706748,0.05807741,-0.01394102,0.04784452
1761615106494,0.12628445,0.13249733,-0.08769940,-0.15051222,0.16276886,-0.06288321,0.99714538,0.05723454,-0.01302952,0.04749237
1761615106505,0.05019771,-0.02794269,0.07448792,-0.12321572,0.14345353,-0.03658908,0.99720728,0.05651373,-0.01219031,0.04727833
1761615106531,-0.03591211,-0.05735718,0.04415586,-0.15602683,0.13945859,-0.02959891,0.99735713,0.05450879,-0.01039827,0.04689798
1761615106543,0.10049383,0.21255064,0.10936466,-0.12838501,0.13103671,-0.02398816,0.99741404,0.05373206,-0.00960550,0.04675285
1761615106554,-0.00068841,0.01342830,0.22865538,-0.14665349,0.10590111,-0.01340521,0.99746465,0.05294746,-0.00903893,0.04668113
1761615106566,0.07910149,0.29562287,0.21805521,-0.07483609,0.10408482,-0.00159426,0.99749430,0.05249844,-0.00841442,0.04667157
1761615106578,-0.01116424,0.39199538,0.17387272,-0.03907663,0.09037307,0.00267541,0.99751081,0.05225617,-0.00785410,0.04668816
1761615106590,0.03140460,0.24210381,-0.14655479,-0.03222250,0.08753935,0.00800070,0.99752267,0.05206283,-0.00732887,0.04673616
1761615106603,0.01848206,0.56443711,-0.04040264,0.05928952,0.07737050,0.00291574,0.99750530,0.05244525,-0.00682983,0.04675497
1761615106612,-0.14793840,0.03912463,0.03989258,0.01481444,0.09117007,-0.01195584,0.99750713,0.05251562,-0.00639677,0.04669818
1761615106625,0.05159037,-0.13833510,-0.12431931,0.00850684,0.07620543,0.00042175,0.99750714,0.05257006,-0.00590906,0.04670088
1761615106636,-0.07000888,-0.01360574,0.13925125,0.03961996,0.08831980,-0.01535561,0.99750243,0.05278401,-0.00543213,0.04661796
1761615106647,-0.14717196,0.24579762,0.11446708,-0.00326319,0.07325854,-0.03093243,0.99751323,0.05276639,-0.00503653,0.04645092
1761615106659,0.12502498,-0.09394021,-0.03217600,0.01229153,0.09886853,-0.02562448,0.99751925,0.05283952,-0.00444827,0.04629845
1761615106671,-0.16225156,0.17763855,-0.15346923,0.04922738,0.06880496,-0.02005695,0.99751061,0.05314473,-0.00402167,0.04617410
1761615106681,-0.01841849,0.21715303,-0.00120121,0.05515533,0.11453825,-0.01585323,0.99750187,0.05341500,-0.00346044,0.04609642
1761615106693,-0.01486737,-0.17776224,-0.21692847,0.03623260,0.09309746,-0.01700434,0.99749670,0.05363239,-0.00290185,0.04599439
1761615106704,0.08277775,0.07826348,-0.13350245,0.01914611,0.11202508,-0.02313892,0.99749854,0.05374057,-0.00226891,0.04586366
1761615106716,-0.05382254,-0.17194081,-0.08267586,0.01632427,0.10267792,-0.03704416,0.99750451,0.05383606,-0.00166824,0.04564695
1761615106726,-0.03042531,-0.12200375,-0.01694136,-0.01501972,0.12115946,-0.03158316,0.99751696,0.05375871,-0.00104427,0.04548430
1761615106738,-0.17910942,-0.13282925,0.17561843,0.00873448,0.09435311,-0.03711671,0.99752432,0.05380850,-0.00050646,0.04527273
1761615106749,0.21280821,0.22587941,-0.33755785,0.02494725,0.09064089,-0.03748670,0.99752644,0.05395070,0.00001019,0.04505906
1761615106761,-0.06256648,0.00911063,-0.05673568,0.01200422,0.08511333,-0.04036670,0.99753293,0.05401852,0.00049108,0.04483099
1761615106772,-0.02987468,-0.06278350,-0.20912273,0.00379204,0.08099374,-0.02607811,0.99753805,0.05403995,0.00094870,0.04468365
1761615106783,-0.11949870,-0.22966156,0.16804505,0.02033600,0.09710811,-0.00869169,0.99753334,0.05415485,0.00149736,0.04463454
1761615106795,-0.00861878,0.06955444,-0.11269616,0.02056687,0.06431438,-0.03970581,0.99753667,0.05428030,0.00188968,0.04439233
1761615106806,-0.04047899,-0.10630343,-0.29427691,0.06817428,0.06256280,-0.03648362,0.99752462,0.05464844,0.00222751,0.04419532
1761615106817,0.14657126,0.16323323,-0.13467736,0.03060605,0.04721822,-0.00053308,0.99751534,0.05480913,0.00247541,0.04419252
1761615106828,-0.03294474,-0.05898376,-0.03902685,0.04901943,0.04667256,-0.02388382,0.99750545,0.05508363,0.00273678,0.04405877
1761615106839,0.01166979,-0.23312083,-0.06808492,0.03129584,0.02992365,-0.01504151,0.99749894,0.05526046,0.00290585,0.04397379
1761615106850,-0.01493734,-0.16734486,-0.05974935,0.00493148,0.04602746,-0.04433669,0.99750762,0.05528832,0.00316590,0.04372329
1761615106862,0.03994322,0.05389720,0.10394934,-0.03558594,0.04573899,-0.03072287,0.99752627,0.05507836,0.00343576,0.04354202
1761615106874,-0.07534054,-0.12200031,-0.31506046,0.02333489,0.02283666,-0.02748882,0.99752525,0.05521604,0.00357050,0.04337984
1761615106884,-0.09946795,-0.11125454,-0.30639221,0.00223532,0.02366986,-0.02964031,0.99753048,0.05522688,0.00368530,0.04323608
1761615106895,0.13126480,0.02697611,0.21297615,-0.01637575,0.03664335,-0.01084863,0.99753734,0.05513599,0.00388867,0.04317587
1761615106906,-0.05140597,-0.10914728,-0.10664721,-0.00205030,0.01693201,-0.00975361,0.99753999,0.05512441,0.00398433,0.04312076
1761615106918,0.12929544,0.05614059,0.03292455,-0.01760157,0.02748084,-0.01446829,0.99754845,0.05502408,0.00414097,0.04303829
1761615106929,-0.04175653,-0.18213740,-0.09940091,-0.00373779,0.01572808,-0.02235072,0.99755457,0.05500334,0.00422826,0.04291425
1761615106940,0.02843175,0.13905197,-0.06703114,-0.05382913,-0.00334191,-0.01766715,0.99757641,0.05468844,0.00420871,0.04281089
1761615106951,0.04763558,-0.31093981,-0.31043801,-0.02567109,0.01511529,-0.02698257,0.99758927,0.05455623,0.00428656,0.04267193
1761615106962,-0.00954680,0.01263927,0.18188797,-0.03025612,0.01094841,-0.01638361,0.99760241,0.05438377,0.00434896,0.04257855
1761615106973,-0.19510431,-0.18793136,-0.05558606,-0.01952778,0.00123546,-0.02009407,0.99761294,0.05427637,0.00435576,0.04246803
1761615106984,0.06715012,0.10422824,0.22765860,-0.03204638,0.02197990,-0.00511228,0.99762345,0.05409530,0.00447994,0.04243915
1761615106996,-0.09974358,-0.04608873,-0.00638155,-0.04617585,-0.00987362,0.00211034,0.99763755,0.05382979,0.00442317,0.04245128
1761615107007,0.08655602,-0.08056364,0.08312339,-0.07929387,0.01596430,0.00896012,0.99765868,0.05338971,0.00451177,0.04250101
1761615107018,0.00901623,0.02988309,0.00699767,-0.06927727,0.00210995,0.00280005,0.99767882,0.05299830,0.00452369,0.04251683
1761615107029,-0.04311787,-0.04227656,0.02134583,-0.04172226,-0.00285996,-0.00545494,0.99769221,0.05277091,0.00450811,0.04248710
1761615107040,0.00888664,0.06378650,0.06001851,-0.06552355,-0.01225557,0.00049322,0.99771209,0.05239743,0.00443825,0.04248991
1761615107052,-0.05336688,0.02346895,0.00315720,-0.05714670,-0.01440709,-0.02814458,0.99773569,0.05208026,0.00435829,0.04233371
1761615107063,0.09998596,0.06657250,0.09127252,-0.05535684,-0.01100310,-0.02585523,0.99775842,0.05176750,0.00429612,0.04218763
1761615107074,0.05733345,0.03133461,-0.07689797,-0.03258236,-0.01827150,-0.00472065,0.99776923,0.05158829,0.00419563,0.04216166
1761615107086,0.01650402,0.19219587,0.14140161,-0.03638566,-0.01442153,0.00299606,0.99778037,0.05136452,0.00410694,0.04218009
1761615107096,-0.13560784,-0.10299489,-0.19689886,-0.03205599,-0.00222324,0.00400107,0.99778780,0.05120424,0.00409582,0.04220009
1761615107107,0.06541733,0.16319850,0.15093275,-0.02696520,-0.01046329,0.00776526,0.99779383,0.05105593,0.00403827,0.04224280
1761615107118,0.00429231,0.05053802,0.04791909,-0.02545564,-0.01059460,-0.00462218,0.99780237,0.05091465,0.00397947,0.04221715
1761615107129,0.04979382,-0.12661852,0.09225898,-0.03166696,-0.02379923,-0.00363160,0.99781279,0.05073732,0.00384620,0.04219681
1761615107141,0.20533896,-0.00971740,0.11780455,-0.03990022,-0.01959114,-0.00545756,0.99782607,0.05050989,0.00373453,0.04216571
1761615107152,0.11766429,0.19577617,0.10541305,-0.02710160,-0.02179530,-0.00591943,0.99783567,0.05035676,0.00361139,0.04213226
1761615107164,-0.01289072,0.20045236,0.06145430,0.00634084,-0.01208160,-0.00160991,0.99783447,0.05039322,0.00354192,0.04212300
1761615107175,-0.13090319,0.13863488,-0.00342679,0.02029088,-0.01188835,0.01382091,0.99782585,0.05050482,0.00347653,0.04219902
1761615107186,-0.05667418,0.07479522,0.02951204,0.01251869,-0.00624786,0.00023526,0.99782236,0.05057493,0.00344154,0.04220034
1761615107197,-0.07215268,0.02289572,0.05718200,0.01654826,-0.00803344,-0.00570393,0.99781914,0.05066842,0.00339615,0.04216811
1761615107208,0.00746867,-0.17014561,0.02614034,0.01566405,-0.00804926,-0.00320241,0.99781556,0.05075693,0.00335068,0.04215002
1761615107220,-0.04831532,0.00955835,0.06279693,-0.00209554,-0.00938513,-0.02039060,0.99782124,0.05074498,0.00329718,0.04203379
1761615107231,-0.00705196,-0.11262400,0.01237550,0.01325158,0.00181526,-0.02166259,0.99782251,0.05081787,0.00330716,0.04191464
1761615107242,-0.08629707,0.30864698,-0.04925927,0.01375579,0.00480525,-0.02147609,0.99782355,0.05089559,0.00333431,0.04179330
1761615107254,-0.07643432,0.12217437,0.00753303,0.04173837,0.01379800,-0.02378962,0.99781679,0.05113349,0.00341296,0.04165770
1761615107265,0.03075725,0.00307445,-0.01201773,0.04246594,0.02647308,-0.01161997,0.99780686,0.05136918,0.00355989,0.04159321
1761615107276,0.07278715,-0.02500819,0.06306898,0.03300129,0.01564359,-0.00691875,0.99779848,0.05155729,0.00364906,0.04155378
1761615107287,0.00334125,-0.04036316,0.00032757,0.03230875,0.02874735,-0.01304477,0.99779149,0.05173983,0.00381148,0.04148007
1761615107298,-0.04695900,-0.08159488,0.03042567,0.01330546,0.02815767,-0.00173780,0.99778756,0.05181168,0.00396353,0.04147069
1761615107310,-0.01486818,-0.15424443,0.04560729,0.01270714,0.03062521,0.00054286,0.99778300,0.05188348,0.00413656,0.04147376
1761615107321,0.00000000,-0.09779288,0.05228068,-0.01234390,0.04075795,0.00221315,0.99778513,0.05181373,0.00436685,0.04148626
1761615107332,-0.06721802,-0.06301689,0.08588969,-0.01108110,0.04424984,-0.02177364,0.99779236,0.05175113,0.00461686,0.04136324
1761615107343,0.00711437,0.03002029,0.21587230,-0.00864152,0.05133590,-0.00690428,0.99779505,0.05170360,0.00489920,0.04132527
1761615107354,-0.05920617,0.18363377,-0.08317381,0.02112177,0.03648013,-0.02213176,0.99779299,0.05182294,0.00510532,0.04120022
1761615107366,0.06263762,0.07856825,-0.14485371,0.06027155,0.06247316,-0.00709242,0.99777520,0.05216046,0.00545517,0.04116050
1761615107377,-0.07702065,0.00381561,-0.11036292,0.03734623,0.04764676,-0.01133435,0.99776527,0.05237146,0.00572437,0.04109646
1761615107388,-0.00265045,-0.01665251,0.04680139,0.00460486,0.07318364,-0.01050689,0.99776393,0.05239679,0.00612688,0.04103868
1761615107399,-0.01982592,-0.04984063,-0.06049622,0.01675528,0.06745875,0.01693593,0.99775260,0.05249146,0.00650802,0.04113437
1761615107410,-0.08997586,0.09553396,0.05032371,0.04218244,0.08241154,0.00298901,0.99773663,0.05272346,0.00696129,0.04115080
1761615107421,-0.02392436,0.09534562,-0.05175402,0.06591578,0.09082463,-0.02427860,0.99771914,0.05308929,0.00746536,0.04101606
1761615107432,-0.06069134,0.40570305,-0.11017969,0.06154674,0.07618313,-0.01429416,0.99770058,0.05343703,0.00789580,0.04093530
1761615107444,-0.00006728,0.20901354,0.00376768,0.07720043,0.07278160,-0.01422695,0.99767728,0.05386935,0.00830337,0.04085563
1761615107455,0.05411253,0.00353321,0.02709082,0.07793927,0.07086501,-0.03220972,0.99765779,0.05430192,0.00869668,0.04067686
1761615107466,0.15924435,-0.22611627,0.13280636,0.04720653,0.07085498,-0.03473118,0.99764774,0.05456627,0.00909346,0.04048237
1761615107477,0.09123160,-0.04894195,0.09123160,0.02902777,0.06253173,-0.01265302,0.99763845,0.05472883,0.00944364,0.04041151
1761615107488,0.09883423,0.01591801,0.06082107,0.03890288,0.05735886,0.00303626,0.99762270,0.05494669,0.00976485,0.04042851
1761615107500,-0.05832820,0.06313129,-0.02812746,0.05323245,0.04904759,-0.00995310,0.99760592,0.05524213,0.01003706,0.04037327
1761615107511,0.12623111,-0.02550478,0.01647237,0.06988176,0.05742813,-0.00024301,0.99758094,0.05563346,0.01035866,0.04037191
1761615107522,0.03041053,-0.07745183,0.01140395,0.06711146,0.03461841,0.00773326,0.99755612,0.05600929,0.01055253,0.04041522
1761615107533,0.12924477,-0.17771155,0.21287373,0.05500139,0.03731679,-0.00266947,0.99753715,0.05631729,0.01076150,0.04040027
1761615107544,-0.01755375,-0.18073362,0.34920898,0.06320467,0.01622755,-0.00377814,0.99751716,0.05666808,0.01085156,0.04037930
1761615107556,0.01739702,0.09786678,0.06445115,0.04278902,0.02957350,-0.00426408,0.99750267,0.05690770,0.01101717,0.04035542
1761615107567,0.01520527,0.01924417,-0.16725793,0.04389181,0.02363442,0.00802309,0.99748533,0.05715349,0.01114953,0.04040035
1761615107578,0.08275686,0.11106819,-0.38380606,0.04370125,0.01891625,0.00323186,0.99746964,0.05739385,0.01125357,0.04041813
1761615107589,0.12296145,-0.00973685,0.00465094,0.04310254,0.01532326,0.00753474,0.99745289,0.05763738,0.01134014,0.04046070
1761615107600,0.02274062,0.01287780,-0.06489150,0.04138531,0.00892992,0.00503732,0.99743776,0.05786914,0.01139015,0.04048891
1761615107611,0.10643687,-0.08933094,0.02660922,0.04604656,0.01808894,0.00757696,0.99741988,0.05812700,0.01149145,0.04053134
1761615107622,0.00110575,-0.01540056,-0.00836222,0.01742270,0.01002521,0.00953610,0.99741144,0.05822369,0.01154709,0.04058426
1761615107634,-0.07712221,0.05256348,0.00448624,0.01270595,0.00245897,-0.00003762,0.99740713,0.05829485,0.01156086,0.04058405
1761615107645,-0.01520527,0.02637163,0.03041053,0.02435268,0.00291103,0.01119312,0.99739641,0.05843122,0.01157716,0.04064673
1761615107656,-0.04616497,0.03282905,-0.02747092,0.03596241,-0.00271169,-0.01190732,0.99738757,0.05863081,0.01156211,0.04058065
1761615107667,0.15979228,0.00096317,0.02342433,0.03642924,0.00717369,-0.01692533,0.99737894,0.05883482,0.01160228,0.04048587
1761615107678,0.01679354,0.07038344,-0.03911583,0.04350607,0.00264194,-0.01489710,0.99736785,0.05907628,0.01161695,0.04040319
1761615107689,0.02136956,0.05378777,0.07677975,0.04250860,0.01294812,0.00245495,0.99735231,0.05931432,0.01168945,0.04041694
1761615107701,0.00165862,-0.06975282,-0.03490017,0.04647137,0.01536844,0.00904377,0.99733390,0.05957224,0.01177475,0.04046713
1761615107712,-0.07791638,0.03779752,0.06048949,0.01730721,0.02204306,-0.00462106,0.99732764,0.05967003,0.01189929,0.04044102
1761615107723,-0.04436019,-0.08931324,-0.10587856,0.02171398,0.01524801,0.00015936,0.99731945,0.05978945,0.01198316,0.04044190
1761615107734,-0.01631110,-0.08061815,0.23720216,0.02141291,0.02110107,0.00420679,0.99730987,0.05990937,0.01210132,0.04046545
1761615107745,-0.03801317,-0.03611251,0.08362897,0.02579586,0.01897228,-0.01580951,0.99730347,0.06005382,0.01220757,0.04037692
1761615107757,0.00760263,-0.05203052,-0.05321843,0.02241430,0.00852014,-0.00598817,0.99729668,0.06017934,0.01225528,0.04034339
1761615107768,0.08528080,-0.01987754,-0.12992537,0.01752959,0.01198535,0.00120680,0.99728971,0.06027663,0.01232180,0.04035008
1761615107779,-0.03926936,0.00040286,-0.03807938,0.02546026,0.00479482,0.00320410,0.99727985,0.06042176,0.01234913,0.04036835
1761615107790,0.03908020,0.05825351,0.03447861,0.01473875,0.00570486,0.00399753,0.99727355,0.06050429,0.01238108,0.04039073
1761615107801,0.00279508,0.05565069,0.01745131,0.02356503,0.00315508,0.00418965,0.99726461,0.06063272,0.01239827,0.04041357
1761615107812,0.05049822,0.02709310,-0.05119571,0.03098731,0.00199601,0.01202907,0.99725117,0.06080625,0.01240945,0.04048093
1761615107823,-0.00635805,-0.00378805,0.05044974,0.02964300,-0.00199238,0.00670491,0.99723975,0.06097077,0.01239839,0.04051814
1761615107835,-0.25979088,0.06837661,0.11345732,0.01190145,-0.00439042,0.00117046,0.99723572,0.06103742,0.01237381,0.04052470
1761615107846,0.11303030,-0.09913908,-0.00903576,0.01418535,-0.00104976,0.01224438,0.99722807,0.06111756,0.01236787,0.04059388
1761615107857,-0.03096094,0.01475910,0.10370545,0.00525611,-0.01012720,0.01090610,0.99722451,0.06114674,0.01231167,0.04065441
1761615107868,0.18887452,-0.05774297,-0.01718332,-0.00476111,-0.01461957,0.00829056,0.99722524,0.06112055,0.01223126,0.04070001
1761615107879,0.03524857,-0.02419884,0.00684237,0.00027033,-0.01436906,0.01154280,0.99722349,0.06112206,0.01215079,0.04076464
1761615107891,0.00406223,0.04814884,-0.01919729,0.00598095,-0.00656692,0.01225047,0.99721900,0.06115616,0.01211336,0.04083447
1761615107902,-0.03098096,-0.03817832,-0.03270604,0.02678518,-0.02100940,0.01649199,0.99720774,0.06130213,0.01199886,0.04092435
1761615107913,0.02411900,0.08102264,0.05981787,0.02292325,-0.01416247,0.00571202,0.99719940,0.06143165,0.01191884,0.04095663
1761615107924,0.04729780,0.09314067,-0.00518056,0.02540526,-0.02080839,0.00756374,0.99719027,0.06157392,0.01180232,0.04099898
1761615107935,-0.21458418,-0.03131512,0.27332704,0.02399784,-0.02442188,0.01826103,0.99717946,0.06170711,0.01166678,0.04110033
1761615107946,-0.00040371,0.02760169,0.02792340,0.04085954,-0.01451623,0.01097896,0.99716355,0.06193796,0.01158476,0.04116236
1761615107957,0.02363169,-0.02761526,0.09541723,0.03834673,-0.01551312,0.01823719,0.99714712,0.06215079,0.01149866,0.04126358
1761615107969,0.11610352,0.06555011,-0.15867481,0.02446232,-0.03061861,-0.00236970,0.99714114,0.06228655,0.01132873,0.04125043
1761615107980,0.08030717,-0.03624829,0.04011808,0.01782931,-0.03169353,0.00738583,0.99713529,0.06238462,0.01115441,0.04129105
1761615107991,0.06837227,0.10655159,0.03428798,0.00466567,-0.01836125,0.03709191,0.99712610,0.06241098,0.01105067,0.04150062
1761615108002,0.00275848,0.00155164,-0.08988600,0.05014880,-0.01225625,0.01143380,0.99710657,0.06269181,0.01098204,0.04156465
1761615108013,-0.04561580,0.05393118,-0.09883423,0.06891713,-0.01995681,0.00665269,0.99708190,0.06307775,0.01087028,0.04160190
1761615108024,0.07982117,0.22292265,0.08866715,0.06996303,-0.00496728,0.02074868,0.99705275,0.06346604,0.01084271,0.04171706
1761615108036,-0.18530373,0.29038235,-0.18759143,0.10132308,-0.01683164,-0.00407576,0.99701814,0.06403852,0.01074761,0.04169403
1761615108047,-0.01260357,0.12695398,0.07873805,0.08770579,-0.02354657,-0.00629090,0.99698961,0.06452528,0.01061693,0.04165912
1761615108058,0.04644141,0.00653082,0.07740235,0.05375997,-0.03177835,-0.01491840,0.99697558,0.06482365,0.01044056,0.04157632
1761615108069,0.24768751,-0.21938728,0.07740235,0.04249037,-0.03451154,-0.00168171,0.99696259,0.06505947,0.01024902,0.04156699
1761615108080,0.03410911,-0.04959049,0.01438336,0.04620577,-0.03645481,0.01130952,0.99694511,0.06531823,0.01004487,0.04163032
1761615108091,0.02750548,-0.09751098,0.04740894,0.06702272,-0.02845971,-0.00361118,0.99692308,0.06569020,0.00988692,0.04161028
1761615108103,-0.03486253,-0.08962417,-0.01657511,0.06695789,-0.03727955,0.00340252,0.99689956,0.06606517,0.00967816,0.04162933
1761615108114,0.06082107,-0.01092879,-0.01520527,0.06720898,-0.03406501,0.01684943,0.99687243,0.06644154,0.00948739,0.04172369
1761615108125,-0.03041053,-0.06533513,0.04561580,0.08048167,-0.02709377,0.01565367,0.99684005,0.06689223,0.00933567,0.04181135
1761615108136,-0.22729989,-0.15566172,0.44446628,0.07732022,-0.02887021,0.00557151,0.99681161,0.06731749,0.00917688,0.04184199
1761615108147,-0.03869240,0.01169111,-0.03182117,0.05605300,-0.03295512,-0.00210066,0.99679220,0.06763700,0.00898904,0.04183002
1761615108158,0.04214793,0.02456684,-0.06582280,0.05261848,-0.02600784,-0.00410974,0.99677443,0.06793166,0.00884339,0.04180700
1761615108169,0.31244938,0.10941886,-0.35713527,0.06955250,-0.02183689,0.00439896,0.99674833,0.06831420,0.00872329,0.04183120
1761615108181,-0.02075790,0.03805689,-0.03623837,0.06197149,-0.03013524,-0.00384202,0.99672704,0.06865814,0.00855604,0.04180987
1761615108192,0.09383430,0.00283172,0.07876602,0.04687127,-0.02660400,-0.00377106,0.99671108,0.06892062,0.00840706,0.04178876
1761615108203,0.00000000,-0.10667445,0.00000000,0.05353860,-0.03744987,-0.00810878,0.99669395,0.06922044,0.00819734,0.04174335
1761615108214,0.09882621,0.03269731,0.09854977,0.04328622,-0.03803416,-0.00157850,0.99667932,0.06946067,0.00798625,0.04173459
1761615108226,0.03222279,0.04921933,-0.02442695,0.05215867,-0.04591105,-0.01822239,0.99666483,0.06976059,0.00772226,0.04162981
1761615108236,0.17282234,0.19559863,-0.02484845,0.07018823,-0.05283491,-0.01419459,0.99664340,0.07014311,0.00743431,0.04155245
1761615108248,-0.01032284,0.02462573,-0.02559786,0.08266908,-0.06125446,-0.02329264,0.99661864,0.07060606,0.00709128,0.04142201
1761615108259,0.09123160,0.03278636,0.14445003,0.07314905,-0.06285626,-0.04853303,0.99660324,0.07101569,0.00673929,0.04115022
1761615108270,0.08542900,-0.03415906,0.13473701,0.09051541,-0.08335903,-0.03327280,0.99657840,0.07150900,0.00628498,0.04096889
1761615108281,0.12364721,0.06222582,0.14909974,0.09789804,-0.09021433,-0.03516058,0.99655056,0.07204744,0.00578880,0.04077550
1761615108292,0.07943948,0.10293608,0.13246703,0.09112560,-0.08974980,-0.03410432,0.99652388,0.07256230,0.00528172,0.04058281
1761615108303,0.38002497,0.20369275,0.33920037,0.11147128,-0.10534988,-0.03306455,0.99648903,0.07318097,0.00469702,0.04039931
1761615108314,-0.31924210,-0.05681641,-0.18479193,0.11407570,-0.12629263,-0.04159384,0.99645441,0.07381979,0.00398979,0.04016638
1761615108326,0.18211549,-0.15357659,0.13003486,0.11697783,-0.11709414,-0.04350230,0.99641753,0.07448072,0.00332820,0.03992059
1761615108337,-0.20101583,-0.14936689,0.23038004,0.10202831,-0.14066697,-0.03307581,0.99638498,0.07504187,0.00255454,0.03973868
1761615108348,0.10491634,0.18214354,-0.05335666,0.10614783,-0.14334386,-0.04186246,0.99635109,0.07563630,0.00175181,0.03950425
1761615108359,-0.12924477,-0.09360742,0.05321843,0.11714509,-0.14957574,-0.03692063,0.99631037,0.07629231,0.00091419,0.03929749
1761615108370,0.44561637,0.22857881,0.03103005,0.11770697,-0.13669331,-0.04220121,0.99626975,0.07694559,0.00015554,0.03906327
1761615108381,-0.13578174,-0.07212564,0.11882585,0.09805194,-0.14615798,-0.03248405,0.99623377,0.07749958,-0.00067025,0.03887974
1761615108393,0.12274779,0.00448874,-0.01260357,0.09816071,-0.15623935,-0.01931665,0.99619446,0.07804437,-0.00153738,0.03877253
1761615108404,-0.12384376,-0.02128565,0.03096094,0.09173161,-0.16048688,-0.02932331,0.99615899,0.07855348,-0.00242808,0.03860979
1761615108415,0.00854523,-0.09646400,0.04171689,0.10118322,-0.14904323,-0.02827443,0.99611752,0.07912517,-0.00327018,0.03845004
1761615108426,0.14828579,0.13361458,0.10852902,0.09070416,-0.15284796,-0.02640242,0.99608024,0.07962404,-0.00411084,0.03830482
1761615108437,-0.32857199,0.07154683,-0.09703725,0.08992121,-0.15548301,-0.03004946,0.99604235,0.08012760,-0.00498155,0.03813655
1761615108448,0.00760263,0.08695512,0.06082107,0.08475599,-0.15035806,-0.02806526,0.99600549,0.08060223,-0.00582355,0.03797938
1761615108460,-0.22047636,0.04561580,-0.12164213,0.09846638,-0.14502026,-0.02183272,0.99596029,0.08115364,-0.00663567,0.03785712
1761615108471,0.24328426,-0.11855356,0.12164213,0.09795239,-0.13329088,-0.02011064,0.99591446,0.08170218,-0.00738210,0.03774450
1761615108482,0.03683522,-0.24801578,-0.02059455,0.09782338,-0.13475476,-0.00888130,0.99586581,0.08224510,-0.00812998,0.03769521
1761615108493,-0.12384376,-0.04982776,0.15867481,0.08530326,-0.12710290,-0.03541972,0.99582801,0.08271853,-0.00883541,0.03749863
1761615108504,-0.05061573,-0.11417006,-0.06462238,0.07367963,-0.13905445,-0.03270737,0.99579332,0.08313114,-0.00961411,0.03731547
1761615108515,0.09883423,0.07911490,0.03801317,0.06886883,-0.13645209,-0.03128969,0.99575993,0.08351680,-0.01037824,0.03714024
1761615108526,-0.09509431,-0.08944031,-0.01185223,0.08241459,-0.13783715,-0.03279378,0.99571997,0.08397420,-0.01114324,0.03695824
1761615108538,-0.08370292,-0.04266519,-0.04040483,0.08121484,-0.14232318,-0.03676255,0.99567952,0.08443307,-0.01194736,0.03675053
1761615108549,0.00404543,0.08542911,0.16725744,0.06976174,-0.13880295,-0.02966486,0.99564347,0.08481676,-0.01271078,0.03658737
1761615108560,-0.03490142,-0.02961519,-0.24459142,0.07863741,-0.14182677,-0.00927180,0.99559772,0.08525319,-0.01349792,0.03653591
1761615108571,-0.05678003,-0.09154838,-0.15444989,0.07731914,-0.12916126,-0.01763960,0.99555410,0.08568618,-0.01422122,0.03643713
1761615108582,0.09599273,0.04448043,0.07069875,0.07723712,-0.12215184,-0.00426788,0.99550807,0.08611485,-0.01489916,0.03641345
1761615108593,-0.12554619,-0.06997976,-0.09287541,0.06699157,-0.12129549,-0.00636683,0.99546645,0.08649000,-0.01557842,0.03637779
1761615108604,-0.01264699,-0.14369754,0.02017990,0.07784896,-0.12136803,-0.01723481,0.99542154,0.08692206,-0.01625201,0.03628214
1761615108616,-0.02547910,-0.09588051,-0.07701947,0.05516744,-0.12811804,-0.03261563,0.99538918,0.08723100,-0.01696947,0.03609949
1761615108627,-0.06082107,0.12449312,0.11784082,0.05058479,-0.14091696,-0.04442835,0.99535954,0.08751427,-0.01775861,0.03585069
1761615108638,-0.00000000,0.13233334,-0.16725793,0.04406257,-0.13646279,-0.02361220,0.99532864,0.08776102,-0.01852280,0.03571846
1761615108649,-0.02128565,0.05239560,-0.09302103,0.06416478,-0.13305794,-0.00545443,0.99528424,0.08811714,-0.01926127,0.03568819
1761615108660,-0.07740235,0.13617975,0.06192188,0.05006918,-0.14074781,-0.00593309,0.99524536,0.08839502,-0.02004242,0.03565526
1761615108672,0.00657525,-0.22870613,0.15626493,0.06016986,-0.12897451,-0.00570432,0.99520171,0.08873197,-0.02076468,0.03562332
1761615108683,0.08624833,-0.08368049,0.22546889,0.03510534,-0.13690283,0.01162104,0.99516586,0.08892681,-0.02152449,0.03568782
1761615108694,-0.02465719,-0.20644189,0.05404034,0.04272120,-0.14392928,0.01452402,0.99512378,0.08916605,-0.02233049,0.03576915
1761615108705,-0.09883423,0.24375943,-0.03041053,0.03954421,-0.14298203,-0.00500642,0.99508663,0.08938750,-0.02313119,0.03574111
1761615108716,-0.08514949,0.00484244,0.14060222,0.06109175,-0.15364481,-0.00930874,0.99503822,0.08972350,-0.02397624,0.03568992
1761615108727,0.05974935,0.13851410,0.11393115,0.05300375,-0.13418407,0.00173504,0.99499226,0.09002297,-0.02473438,0.03569972
1761615108738,-0.25841903,-0.05608669,-0.11703836,0.07900356,-0.14829606,-0.00002141,0.99493225,0.09045749,-0.02555001,0.03569960
1761615108749,-0.00985118,0.09775014,0.03677773,0.08850280,-0.13609023,0.00851245,0.99486729,0.09093983,-0.02629170,0.03574599
1761615108760,-0.07502929,0.24248335,0.05978361,0.06575089,-0.13316623,-0.00306601,0.99481371,0.09131132,-0.02704409,0.03572867
1761615108772,0.07233352,-0.10983384,-0.02407692,0.08303139,-0.13411573,0.00808813,0.99474918,0.09177215,-0.02778843,0.03577356
1761615108783,-0.02095861,0.26861781,0.18879873,0.08094628,-0.12315801,-0.00975505,0.99468971,0.09222545,-0.02847812,0.03571893
1761615108794,-0.05321843,0.14349970,-0.04561580,0.11930993,-0.13333906,-0.01947429,0.99460979,0.09289358,-0.02922481,0.03560988
1761615108805,0.12959810,0.21310305,0.05379173,0.15065970,-0.12876209,-0.02402770,0.99451226,0.09375234,-0.02995876,0.03547292
1761615108816,-0.07125622,0.34115365,0.16852940,0.18761987,-0.14134433,-0.03956409,0.99439950,0.09477487,-0.03072908,0.03525729
1761615108828,-0.05207512,0.23527591,-0.01020946,0.19288500,-0.16153409,-0.03438978,0.99427328,0.09586467,-0.03164175,0.03506299
1761615108839,0.13442569,0.21959444,-0.18037071,0.23449266,-0.15864793,-0.02865639,0.99412005,0.09720128,-0.03254605,0.03489965
1761615108850,-0.07315565,0.27360752,0.23861653,0.26455661,-0.17762699,-0.02161398,0.99395155,0.09862988,-0.03350523,0.03478294
1761615108861,0.00899006,0.14292906,0.06967300,0.24865640,-0.17419883,-0.01864593,0.99378115,0.10003479,-0.03448945,0.03467759
1761615108872,0.10480141,-0.01613762,0.40584859,0.26869938,-0.18067746,-0.01706298,0.99359790,0.10152608,-0.03549221,0.03458289
1761615108883,-0.06192188,0.08877082,-0.00387012,0.27795112,-0.19584160,-0.02076090,0.99340364,0.10306870,-0.03657914,0.03446766
1761615108894,0.06219091,-0.05436996,0.07082093,0.30306961,-0.18366163,-0.03186434,0.99319385,0.10476589,-0.03760764,0.03428922
1761615108906,-0.17486057,0.11784082,-0.08362897,0.29801579,-0.21035138,-0.03460910,0.99297775,0.10643478,-0.03878561,0.03409541
1761615108917,0.14464564,0.15873096,0.09032577,0.31889548,-0.20331087,-0.03638505,0.99274864,0.10820465,-0.03991398,0.03389347
1761615108928,-0.20898634,0.29872468,-0.02322070,0.36452055,-0.21791106,-0.03454812,0.99248320,0.11022774,-0.04112339,0.03370173
1761615108939,0.05059855,-0.08624925,-0.39207147,0.37935724,-0.20205449,-0.02735878,0.99220008,0.11237111,-0.04226500,0.03354716
1761615108950,0.04137258,0.06482447,-0.11171967,0.39300880,-0.20020693,-0.01192245,0.99190489,0.11455231,-0.04337615,0.03348099
1761615108961,-0.24876364,-0.13148146,-0.02397227,0.36282009,-0.20794600,-0.01341015,0.99161904,0.11658410,-0.04454064,0.03340589
1761615108973,-0.07967204,-0.21875823,0.13025330,0.34169512,-0.18911444,-0.02013457,0.99134296,0.11853176,-0.04561860,0.03329112
1761615108984,-0.00000000,-0.32458787,0.04647536,0.32466249,-0.19935574,0.00267757,0.99108115,0.12028494,-0.04669512,0.03330558
1761615108994,-0.21379719,-0.17041061,-0.14715911,0.28394078,-0.18084099,0.00693208,0.99084828,0.12180402,-0.04766262,0.03334267
1761615109006,0.00328063,-0.34854079,-0.15691185,0.23754958,-0.15800980,0.01065001,0.99063699,0.12314618,-0.04855537,0.03340284
1761615109017,-0.16103798,-0.07643054,-0.18990974,0.22955537,-0.15606040,0.00765728,0.99043351,0.12442021,-0.04942151,0.03344534
1761615109028,-0.06230172,-0.31135228,-0.36448780,0.20492085,-0.14733441,0.01112176,0.99023997,0.12559851,-0.05026868,0.03350929
1761615109039,-0.21386148,0.41904017,-0.36995619,0.19352698,-0.14545170,0.03095359,0.99006100,0.12664355,-0.05105412,0.03367644
1761615109050,-0.02959806,-0.39132712,-0.31378782,0.16778515,-0.13379426,0.02767679,0.98989467,0.12759154,-0.05181006,0.03383281
1761615109062,-0.20035563,-0.18770283,-0.16980568,0.13777827,-0.13610812,0.01986627,0.98975220,0.12835621,-0.05256546,0.03394307
1761615109073,0.03996747,-0.62433613,0.16680027,0.08695373,-0.11591237,0.02375733,0.98964875,0.12884750,-0.05322036,0.03407730
1761615109084,0.02897451,-0.37959472,-0.30912990,0.05460665,-0.11247344,0.04618925,0.98956662,0.12915056,-0.05384459,0.03433365
1761615109095,0.10062305,0.39523573,0.37153127,0.02308710,-0.09684400,0.04592839,0.98951162,0.12927870,-0.05438207,0.03458855
1761615109106,-0.28414584,-1.02293428,-0.81563246,0.00069933,-0.09239267,0.02560770,0.98947721,0.12928265,-0.05490409,0.03473323
1761615109117,0.01227578,-0.25864353,-0.20167844,-0.01586893,-0.10458153,0.03250538,0.98945023,0.12919537,-0.05547929,0.03491201
1761615109128,0.03715313,-0.13015249,-0.15793597,-0.01950133,-0.10773095,0.02847908,0.98942506,0.12908714,-0.05607720,0.03507007
1761615109140,-0.03986246,-0.03711849,-0.72772954,-0.01914995,-0.10206795,0.04008099,0.98939850,0.12897990,-0.05664878,0.03529453
1761615109151,0.15744050,-0.01956932,-0.08479512,-0.02042915,-0.09075243,0.06780430,0.98936956,0.12886141,-0.05717514,0.03568779
1761615109162,-0.08753430,-0.09795323,-0.26350049,-0.01587797,-0.10832207,0.06376536,0.98933459,0.12877646,-0.05775467,0.03602894
1761615109173,0.20775658,-0.03126160,0.44607624,-0.04710059,-0.10695567,0.05675746,0.98932223,0.12851505,-0.05834827,0.03634394
1761615109184,0.02193501,-0.04779780,-0.04461016,-0.07341740,-0.10999655,0.06164507,0.98932632,0.12810024,-0.05896975,0.03669223
1761615109195,0.20987681,-0.18354802,-0.03972864,-0.07453490,-0.11628833,0.05409604,0.98932994,0.12768657,-0.05961515,0.03699247
1761615109206,0.03096094,-0.03458917,-0.00774023,-0.08431483,-0.13311244,0.03041428,0.98933911,0.12721863,-0.06035392,0.03716127
1761615109218,0.15328552,-0.03954782,-0.01047931,-0.09980406,-0.13483380,0.02991116,0.98935816,0.12665972,-0.06110899,0.03732877
1761615109229,0.09695933,0.04108393,-0.11476410,-0.11337929,-0.14643692,0.05076247,0.98937765,0.12601913,-0.06193636,0.03761558
1761615109240,0.04254672,0.06295258,-0.44775194,-0.13129520,-0.13847799,0.05651748,0.98940953,0.12529701,-0.06269799,0.03792642
1761615109251,0.02004331,-0.11016907,0.04997004,-0.14735158,-0.12509308,0.05454387,0.98945728,0.12447184,-0.06339851,0.03823187
1761615109263,-0.00900241,-0.15560838,0.21455752,-0.16349599,-0.12035923,0.06047171,0.98951599,0.12354809,-0.06407854,0.03857353
1761615109273,0.03612984,-0.27057492,0.46564249,-0.17111394,-0.12907863,0.05961645,0.98957398,0.12260696,-0.06478847,0.03890142
1761615109284,0.00788161,-0.02315222,0.07881606,-0.15003384,-0.14676047,0.03541346,0.98961502,0.12178177,-0.06559566,0.03909620
1761615109296,0.11754485,0.12018827,0.14956615,-0.15454051,-0.13438956,0.03519644,0.98966401,0.12090089,-0.06636168,0.03929682
1761615109307,0.00122214,0.00380010,0.01548047,-0.15245375,-0.14289612,0.05323850,0.98970174,0.12005477,-0.06715475,0.03959229
1761615109318,0.05034287,0.04081483,0.10917089,-0.16270658,-0.13054533,0.05051716,0.98974976,0.11915989,-0.06787275,0.03987014
1761615109329,-0.02197852,-0.01103246,0.01935216,-0.15533641,-0.12388200,0.05044051,0.98979487,0.11829000,-0.06856649,0.04015260
1761615109340,0.08362897,0.01259186,-0.24708558,-0.17594697,-0.11216493,0.06443236,0.98985371,0.11730470,-0.06919461,0.04051342
1761615109352,0.03041053,-0.08267864,-0.35732376,-0.17295479,-0.11238471,0.05807235,0.98991046,0.11633615,-0.06982397,0.04083863
1761615109363,0.03524571,-0.09429308,0.02159664,-0.21440344,-0.10263551,0.06876487,0.98999342,0.11514622,-0.07039359,0.04122027
1761615109374,-0.08514258,-0.19471528,0.24768751,-0.24649152,-0.10249532,0.06740866,0.99009533,0.11377819,-0.07096244,0.04159439
1761615109385,-0.02233872,-0.22308232,0.36441721,-0.27465974,-0.08763571,0.06359297,0.99022166,0.11222636,-0.07145758,0.04195369
1761615109397,-0.05958395,-0.76650632,-0.31259620,-0.30879786,-0.08454300,0.06560461,0.99037132,0.11043533,-0.07194793,0.04233420
1761615109407,0.04634137,-0.45748295,0.05409076,-0.42055097,-0.09023662,0.08261419,0.99055829,0.10826949,-0.07241265,0.04275966
1761615109418,0.03733227,-0.26631083,-0.01724124,-0.45120885,-0.06269008,0.07455977,0.99079142,0.10569760,-0.07276999,0.04318465
1761615109429,-0.11243709,-0.54173368,-0.49089383,-0.56278066,-0.07128928,0.07799884,0.99107156,0.10257417,-0.07316564,0.04361755
1761615109441,0.16451824,-0.67495630,-0.45328132,-0.65878105,-0.05107055,0.09738609,0.99140116,0.09888500,-0.07345164,0.04416291
1761615109452,-0.14755052,-0.73201963,-0.19944218,-0.73843807,-0.04821497,0.09124577,0.99176827,0.09467590,-0.07372646,0.04468301
1761615109463,0.08030182,-1.41371888,0.24119772,-0.90122641,-0.02727332,0.10759614,0.99217978,0.08985434,-0.07387237,0.04525865
1761615109474,-0.13297022,-0.24387036,0.05430490,-0.89145702,-0.00183213,0.06832328,0.99260459,0.08481761,-0.07388273,0.04564468
1761615109485,-0.18097080,-0.16033588,-0.40735554,-0.86568765,-0.00026434,0.02011129,0.99299819,0.08001304,-0.07388419,0.04575629
1761615109496,0.16650452,0.42180488,-0.00160957,-0.83009902,0.02844843,0.03123690,0.99336557,0.07536449,-0.07372488,0.04593122
1761615109507,-0.18451402,-0.34533925,-0.45382568,-0.80410064,0.04244133,0.03349300,0.99369996,0.07094193,-0.07349145,0.04611543
1761615109519,-0.17361260,0.15145060,0.14146338,-0.83227365,0.06739430,0.03682704,0.99404290,0.06623959,-0.07311068,0.04632350
1761615109530,-0.04835934,-0.76389224,-0.12997430,-0.88695743,0.10649517,0.04830428,0.99438944,0.06131697,-0.07251963,0.04659159
1761615109541,-0.02322070,-0.52343337,-0.22446681,-0.96625850,0.13424128,0.04505635,0.99474790,0.05595424,-0.07177459,0.04684166
1761615109552,-0.37033831,-0.60706063,-0.10368665,-1.02152035,0.13244659,0.02761507,0.99510210,0.05018265,-0.07102627,0.04699768
1761615109563,0.05590963,-0.96732155,0.51179851,-1.13249867,0.15847880,0.04501639,0.99545266,0.04384066,-0.07013878,0.04724977
1761615109574,0.03025974,-0.77750811,0.40857682,-1.27982408,0.18477689,0.04678032,0.99579656,0.03680162,-0.06912251,0.04750707
1761615109586,-0.18943260,-0.64913977,0.16302067,-1.34413041,0.18736718,0.02872875,0.99611338,0.02920729,-0.06806389,0.04766938
1761615109597,-0.05836000,-1.31326910,0.05548310,-1.49216708,0.20117100,0.01798212,0.99639263,0.02092576,-0.06694739,0.04776918
1761615109608,-0.02482828,-0.76292494,0.16955897,-1.57379319,0.21225880,0.00797518,0.99661736,0.01203383,-0.06574813,0.04781424
1761615109619,-0.06779576,-1.59555222,0.21712778,-1.71630915,0.24489881,0.01562351,0.99677045,0.00259413,-0.06440118,0.04790017
1761615109630,-0.24411364,0.20071816,0.17334004,-1.74626718,0.22830766,-0.04855694,0.99684274,-0.00718497,-0.06312266,0.04762825
1761615109641,0.28459184,-0.30389492,-0.60138859,-1.70057528,0.24659683,-0.04322617,0.99682719,-0.01662316,-0.06175405,0.04738835
1761615109652,0.29412892,-0.09409223,-0.16254493,-1.69056836,0.28121022,-0.01922838,0.99672710,-0.02600582,-0.06019333,0.04728163
1761615109663,-0.37017684,-0.15863043,-0.16993858,-1.78223382,0.27187881,-0.04200592,0.99652554,-0.03571899,-0.05871159,0.04705270
1761615109675,-0.06884219,-0.67972293,0.86928090,-1.67464983,0.29029671,-0.05839457,0.99625507,-0.04509703,-0.05708593,0.04672569
1761615109686,-0.06842370,0.34758289,0.46376063,-1.72332609,0.28782636,-0.11136672,0.99589152,-0.05474766,-0.05547410,0.04610204
1761615109697,-0.15205267,0.94391444,-0.72225016,-1.58572379,0.28909784,-0.16081291,0.99549383,-0.06362771,-0.05385515,0.04520148
1761615109708,0.10790968,1.56640258,-0.36281088,-1.33336916,0.28555015,-0.17199490,0.99510608,-0.07129458,-0.05221324,0.04421251
1761615109719,0.09492195,0.38624152,-0.46107395,-1.23814104,0.31753874,-0.16750363,0.99472543,-0.07810436,-0.05046678,0.04329124
1761615109731,0.02441624,0.68159085,0.12201449,-1.16037335,0.30207514,-0.15939000,0.99430901,-0.08471849,-0.04874495,0.04238272
1761615109742,-0.16265006,-0.35448339,-0.32051215,-1.20184952,0.31190269,-0.15521482,0.99384682,-0.09126857,-0.04704508,0.04153680
1761615109753,0.14989045,0.08852447,0.84964658,-1.16138420,0.34223659,-0.12390404,0.99334578,-0.09777232,-0.04512855,0.04084294
1761615109764,-0.32815463,1.12050454,0.49483265,-1.14859583,0.33962524,-0.14207210,0.99280369,-0.10426188,-0.04320967,0.04004023
1761615109775,0.05513522,0.02070962,0.37332042,-1.11756607,0.36428385,-0.13188988,0.99226357,-0.11029674,-0.04124254,0.03932802
1761615109786,0.03225098,1.18738022,-0.29617148,-0.93383077,0.35680074,-0.13989353,0.99178462,-0.11547950,-0.03926230,0.03855161
1761615109798,0.02974952,1.28928829,-0.07506795,-0.83313315,0.34431092,-0.11514217,0.99132125,-0.12022836,-0.03729972,0.03789530
1761615109809,-0.29372154,-0.10093495,-0.36796668,-0.76884730,0.31705921,-0.10726965,0.99088168,-0.12449546,-0.03554004,0.03729996
1761615109820,0.23307893,0.80370664,0.20609300,-0.70677902,0.34710632,-0.10621372,0.99046643,-0.12845342,-0.03359625,0.03670516
1761615109831,-0.22673691,0.00238823,-0.02941528,-0.62074189,0.33891200,-0.08473474,0.99009634,-0.13186750,-0.03173223,0.03623912
1761615109842,-0.19545679,1.18033905,-0.70096279,-0.53582774,0.34490383,-0.09748078,0.98977194,-0.13486814,-0.02980077,0.03569323
1761615109853,-0.28129743,0.89330941,0.27369480,-0.50867947,0.32938447,-0.14224842,0.98946186,-0.13771675,-0.02795622,0.03489664
1761615109864,0.11498700,0.49154920,0.30104920,-0.46327230,0.33452336,-0.16046031,0.98918491,-0.14026474,-0.02611634,0.03401410
1761615109875,0.06248480,0.34286601,0.64286167,-0.40214035,0.30843482,-0.14166181,0.98893632,-0.14249662,-0.02440453,0.03322788
1761615109887,0.03041053,0.34537830,0.05554717,-0.34588083,0.29336115,-0.11507733,0.98871592,-0.14443355,-0.02276170,0.03258345
1761615109898,-0.01520527,0.29175105,0.08362897,-0.30931480,0.28279234,-0.10680241,0.98851606,-0.14616572,-0.02117807,0.03198535
1761615109909,-0.30173093,0.41633349,-0.00884598,-0.30571961,0.27472389,-0.10196180,0.98831334,-0.14786246,-0.01965335,0.03141947
1761615109920,0.34831056,-0.43345314,0.39862209,-0.24412606,0.29266961,-0.05211526,0.98814981,-0.14921736,-0.01802903,0.03113023
1761615109931,-0.19821640,0.32986268,0.35496078,-0.24777320,0.27256867,-0.04832467,0.98797445,-0.15060489,-0.01650265,0.03085961
1761615109942,-0.23568163,0.26300359,0.55499223,-0.26994699,0.26858820,-0.05795106,0.98777689,-0.15211659,-0.01499855,0.03053508
1761615109953,0.01674841,0.46248577,-0.00584083,-0.26798706,0.24767338,-0.06717269,0.98757989,-0.15359052,-0.01363635,0.03016563
1761615109965,0.17368050,0.33800182,-0.04942901,-0.22513341,0.21039919,-0.02425542,0.98740110,-0.15486253,-0.01244760,0.03002859
1761615109976,0.24927218,0.70651086,-0.07743921,-0.19581216,0.20177235,-0.01980452,0.98724547,-0.15595907,-0.01131767,0.02991768
1761615109987,0.04067472,-0.26289906,-0.04377106,-0.14244413,0.20126323,0.00131331,0.98713324,-0.15674252,-0.01021072,0.02992491
1761615109998,0.04196034,0.17112587,0.25753328,-0.11957763,0.19725978,0.01025129,0.98703486,-0.15741813,-0.00909621,0.02998283
1761615110009,-0.20861844,0.12814149,0.32656353,-0.14058414,0.18066162,0.00922473,0.98691835,-0.15819134,-0.00810257,0.03003356
1761615110020,0.17077772,0.38826512,0.25655360,-0.12634818,0.18013492,-0.01129137,0.98681530,-0.15889258,-0.00710282,0.02997090
1761615110032,-0.01031317,0.49926507,-0.07308465,-0.11130358,0.15001539,-0.02545307,0.98672312,-0.15952701,-0.00624773,0.02982581
1761615110043,0.21183800,0.42598662,-0.61382098,-0.08084116,0.12808560,-0.02319701,0.98665861,-0.15997568,-0.00553685,0.02969707
1761615110054,0.08619863,0.44762092,-0.01442670,-0.03165282,0.12286762,-0.02499099,0.98663824,-0.16014818,-0.00486723,0.02956087
1761615110065,0.04254685,-0.04676666,-0.03044541,0.02208915,0.10328104,-0.00632318,0.98666206,-0.16002448,-0.00428885,0.02952546
1761615110076,0.04094431,0.26213694,0.44588619,0.03264231,0.10055778,0.00793991,0.98669292,-0.15984005,-0.00372070,0.02957032
1761615110087,0.01951118,0.14060036,0.06331042,0.03169526,0.08231830,0.01093552,0.98672145,-0.15966256,-0.00325972,0.02963156
1761615110099,0.09883423,-0.00237582,0.12544345,0.03843407,0.08628304,0.00314260,0.98675720,-0.15944733,-0.00277653,0.02964916
1761615110109,-0.07933717,0.05868988,0.05737073,0.03279614,0.07185914,0.01182388,0.98678515,-0.15926859,-0.00238490,0.02971360
1761615110121,0.07284356,-0.13499747,-0.00787680,0.03063391,0.05889880,0.00661071,0.98681293,-0.15909398,-0.00204918,0.02975128
1761615110132,-0.04881065,0.21376263,-0.09914231,0.02630771,0.04805219,-0.01564088,0.98683935,-0.15894929,-0.00178489,0.02966525
1761615110143,0.01576321,0.24974839,-0.07487526,0.04362918,0.03669477,-0.01746998,0.98688120,-0.15870933,-0.00158307,0.02956917
1761615110154,-0.02061717,0.37320465,-0.18502679,0.05667453,0.03131125,0.00253687,0.98693158,-0.15839478,-0.00140929,0.02958325
1761615110165,0.13981886,-0.16967041,-0.13352769,0.06365322,0.02541372,0.00636776,0.98698835,-0.15803514,-0.00126570,0.02961923
1761615110176,0.12016197,-0.09537773,0.11807630,0.04817013,0.02436341,0.02244379,0.98702789,-0.15776539,-0.00112927,0.02974491
1761615110187,-0.11651818,-0.50626836,0.15224765,0.04205487,0.01729608,0.01745073,0.98706235,-0.15753198,-0.00103328,0.02984176
1761615110199,0.06986204,0.06744769,-0.01404090,0.01580718,0.02119159,0.01584287,0.98707390,-0.15744346,-0.00091460,0.02993048
1761615110210,-0.03953048,-0.20834708,-0.00131308,0.00897104,0.01477228,0.01649704,0.98707913,-0.15739367,-0.00083262,0.03002204
1761615110221,-0.02164353,0.13022292,-0.12794341,0.00208972,0.01832311,-0.00487299,0.98708191,-0.15738197,-0.00073001,0.02999475
1761615110232,0.10004940,0.03444797,-0.30473499,0.01546213,0.01918285,0.00081537,0.98709528,-0.15729770,-0.00062546,0.02999920
1761615110243,0.02415098,-0.14015384,-0.51490748,0.01049820,0.02930381,0.00144548,0.98710433,-0.15723996,-0.00046429,0.03000715
1761615110254,-0.02225498,-0.13488195,-0.06441504,0.00394000,0.01811555,0.00217414,0.98710751,-0.15721790,-0.00036284,0.03001932
1761615110265,-0.06675123,0.11231136,0.48052881,0.00077729,0.02920100,-0.00233512,0.98710866,-0.15721351,-0.00019786,0.03000613
1761615110277,-0.06285824,-0.07799447,0.13008783,0.03634693,0.02088754,0.01545087,0.98713924,-0.15700451,-0.00007775,0.03009497
1761615110288,-0.04257739,0.17214180,0.05074388,0.04318707,0.02613308,0.00822140,0.98717528,-0.15676914,0.00006467,0.03013978
1761615110299,0.00209694,-0.02249692,-0.00744776,0.03495518,0.02589010,0.01115886,0.98720389,-0.15657689,0.00020707,0.03020115
1761615110310,-0.01879924,0.00783590,0.03517946,0.01453287,0.02187809,0.01317390,0.98721450,-0.15649551,0.00032958,0.03027493
1761615110321,0.06188326,-0.09774704,0.07485340,0.01904329,0.02771352,0.00859622,0.98723000,-0.15638791,0.00048617,0.03032349
1761615110332,0.18582596,0.03621866,-0.29887719,-0.00982332,0.01452384,0.01197004,0.98721947,-0.15644145,0.00056532,0.03038873
1761615110344,0.13701181,-0.06209071,-0.13231464,-0.00567433,0.01663748,0.00682375,0.98721303,-0.15647408,0.00066099,0.03042797
1761615110355,-0.24087638,-0.07170103,0.26000130,0.00020089,0.01210684,0.01322144,0.98721093,-0.15647298,0.00072697,0.03050002
1761615110366,0.05588591,0.44656139,0.35044090,-0.00689657,0.02006691,0.01175952,0.98720276,-0.15651126,0.00083834,0.03056529
1761615110377,-0.26044802,-0.09309259,-0.16732436,0.04426002,0.01732327,0.00349415,0.98724064,-0.15626783,0.00093362,0.03058451
1761615110388,0.12755150,0.13704115,0.06744486,0.04758771,0.01486978,0.01813287,0.98728025,-0.15599658,0.00101838,0.03068786
1761615110399,-0.06913689,0.00403155,-0.01078536,0.06673488,0.01231649,0.01011260,0.98733637,-0.15562953,0.00108612,0.03074348
1761615110410,0.02851674,0.04621875,0.03781862,0.05279677,0.00313321,0.02039234,0.98737973,-0.15533123,0.00110382,0.03085870
1761615110421,0.00838206,0.09180085,0.07032404,0.04945349,0.00196312,0.02271112,0.98741820,-0.15506171,0.00111452,0.03098248
1761615110433,0.08900735,-0.13499704,-0.14999005,0.05468164,-0.00078595,0.01530579,0.98746396,-0.15475276,0.00111008,0.03106895
1761615110444,-0.06383981,0.36571753,-0.05274319,0.04561607,-0.00520869,-0.00518581,0.98750454,-0.15449959,0.00108117,0.03104017
1761615110455,0.13835423,0.03905767,-0.14088844,0.06268554,-0.00681728,0.02781671,0.98755453,-0.15414855,0.00104299,0.03119595
1761615110466,-0.11090545,0.28697490,0.13975776,0.09118938,-0.00052560,0.03573712,0.98762646,-0.15364701,0.00104010,0.03139250
1761615110477,0.01769340,0.31923284,-0.28931475,0.13119429,0.00320907,0.02487159,0.98773602,-0.15291232,0.00105807,0.03153178
1761615110488,-0.00640172,0.23884319,-0.07608706,0.15596423,0.00673057,0.03260706,0.98786610,-0.15203112,0.00109610,0.03171601
1761615110500,-0.01780939,-0.36537932,-0.05267469,0.19731729,0.00312523,0.02851311,0.98802890,-0.15093601,0.00111344,0.03187426
1761615110511,-0.01390391,0.17507246,0.15558001,0.16494041,0.00242676,0.01953571,0.98816601,-0.15001235,0.00112703,0.03198366
1761615110522,0.01280761,0.24491475,0.12955390,0.13292910,-0.00223246,0.01897123,0.98827336,-0.14928124,0.00111476,0.03208800
1761615110533,0.63603619,0.04965185,-0.57949730,0.14224056,-0.00597121,0.02003059,0.98838870,-0.14849180,0.00108162,0.03219917
1761615110544,-0.03088395,0.04500966,-0.01036194,0.13880470,0.00056968,0.01375529,0.98850367,-0.14770756,0.00108483,0.03227689
1761615110555,0.01924206,0.04069385,-0.13926948,0.15730671,0.00349114,0.01967856,0.98863127,-0.14682664,0.00110438,0.03238709
1761615110567,-0.59945353,-0.05229194,0.27491655,0.16406411,0.00677129,0.02298113,0.98876185,-0.14591608,0.00114197,0.03251463
1761615110578,0.11513537,-0.11970937,0.06205393,0.17041826,0.00733351,0.04497501,0.98889385,-0.14496174,0.00118303,0.03276649
1761615110589,-0.05221400,-0.07990684,-0.09642585,0.16098362,-0.00951565,0.03749861,0.98901978,-0.14405218,0.00112927,0.03297836
1761615110600,-0.04108200,-0.03620395,0.05824019,0.14673395,-0.00591171,0.03224794,0.98913110,-0.14324515,0.00109676,0.03315572
1761615110611,0.04749826,0.02889422,0.04803195,0.12367862,-0.01467110,0.02824906,0.98922761,-0.14254018,0.00101313,0.03331674
1761615110622,0.07138751,-0.08987374,-0.06291161,0.14582555,-0.00897412,0.01664467,0.98933676,-0.14176001,0.00096512,0.03340579
1761615110633,-0.03818095,-0.06844826,-0.07545449,0.14153023,-0.01409941,0.03005530,0.98944533,-0.14096036,0.00088546,0.03357561
1761615110645,0.11569253,0.16171439,-0.20881509,0.16202215,-0.00382329,0.02997293,0.98956739,-0.14006114,0.00086424,0.03374196
1761615110656,-0.00237996,-0.20705664,-0.07744791,0.17929533,-0.00365994,0.03266939,0.98970515,-0.13903916,0.00084338,0.03392817
1761615110667,0.02151637,0.41425734,0.09036875,0.16292378,0.00404540,0.03160316,0.98982246,-0.13815937,0.00086522,0.03409883
1761615110678,0.08235107,-0.21381467,-0.01223036,0.14097225,0.00564676,0.03604201,0.98992716,-0.13735583,0.00089741,0.03430427
1761615110689,-0.04114546,0.05724336,0.03513659,0.12369231,0.00114914,0.01809639,0.99001868,-0.13666934,0.00090379,0.03440470
1761615110700,-0.03178038,-0.04284829,-0.10684782,0.13159211,-0.00568906,0.01205158,0.99011781,-0.13593242,0.00087193,0.03447219
1761615110711,0.17564722,-0.13510005,-0.00900755,0.12674372,-0.01107021,0.00012738,0.99021329,-0.13523533,0.00081104,0.03447289
1761615110722,0.12891009,-0.05436415,-0.08063917,0.13183795,-0.03103738,-0.00529034,0.99031410,-0.13450363,0.00063878,0.03444353
1761615110734,0.73946549,-0.22696805,-0.28491962,0.13176134,-0.04093203,-0.01548353,0.99041808,-0.13375918,0.00040752,0.03435605
1761615110745,0.07124946,0.00050460,0.02650830,0.12818789,-0.04270780,-0.00038135,0.99051491,-0.13304133,0.00016835,0.03435391
1761615110756,-0.02916913,-0.00842106,0.00043001,0.12248444,-0.04806650,-0.00288307,0.99060490,-0.13237379,-0.00009361,0.03433820
1761615110767,-0.34570394,0.04330135,0.08371623,0.09389244,-0.05499836,0.00647954,0.99067491,-0.13183860,-0.00040710,0.03437513
1761615110778,0.01640583,-0.01292927,0.01679309,0.10981330,-0.06000383,-0.00567031,0.99075525,-0.13124012,-0.00073412,0.03434423
1761615110789,0.07539859,-0.11904180,-0.12478083,0.10324538,-0.06457525,0.00467951,0.99083042,-0.13066194,-0.00109574,0.03437044
1761615110801,-0.02232228,0.02117550,-0.04651052,0.11154388,-0.06736396,-0.00984891,0.99091328,-0.13004287,-0.00146961,0.03431577
1761615110812,0.04938420,-0.02407852,-0.10134669,0.12498541,-0.06786565,-0.01228394,0.99100828,-0.12933046,-0.00185645,0.03424576
1761615110823,0.00731557,0.24361909,-0.08671097,0.12781295,-0.07141520,-0.00448404,0.99109815,-0.12864027,-0.00224209,0.03422154
1761615110834,-0.09347016,0.18893600,-0.42119629,0.12858101,-0.05867745,-0.00069172,0.99119479,-0.12788807,-0.00258535,0.03421750
1761615110845,-0.02975932,0.08032524,-0.15402938,0.12990981,-0.07006053,0.00583317,0.99128209,-0.12719305,-0.00296018,0.03424870
1761615110856,-0.01515650,-0.18776527,0.11597122,0.11145545,-0.06194178,0.00465988,0.99136137,-0.12655775,-0.00331324,0.03427526
1761615110867,0.21637386,-0.27321557,0.51238288,0.10439224,-0.06117407,0.00557376,0.99143161,-0.12598882,-0.00364664,0.03430564
1761615110879,-0.03076664,-0.07150972,0.03110326,0.10059983,-0.05360231,-0.00816071,0.99150475,-0.12541540,-0.00395218,0.03425912
1761615110890,-0.00795647,0.02838455,-0.01647624,0.10785186,-0.06547214,-0.00054622,0.99157754,-0.12482760,-0.00430900,0.03425615
1761615110901,0.00475776,0.02217107,0.09256327,0.09904111,-0.05996449,-0.00196211,0.99164546,-0.12427793,-0.00464180,0.03424526
1761615110912,-0.01042922,0.03221074,0.06903472,0.08807978,-0.06202567,-0.00977799,0.99170790,-0.12378028,-0.00499225,0.03419001
1761615110923,0.02015738,0.11284254,-0.00488241,0.10140682,-0.06338145,-0.01807686,0.99177896,-0.12322254,-0.00534084,0.03409059
1761615110934,0.53245778,0.33358432,-0.43697143,0.12587185,-0.06423884,-0.00631784,0.99186473,-0.12252395,-0.00569737,0.03405553
1761615110945,0.04736885,0.09554934,-0.02906725,0.13741401,-0.05867087,-0.01210835,0.99196072,-0.12174756,-0.00602886,0.03398711
1761615110957,0.05240070,0.08655963,-0.03620101,0.13148351,-0.06993080,-0.00435726,0.99204840,-0.12101783,-0.00641698,0.03396293
1761615110968,-0.47855494,-0.12999390,0.43054192,0.12417421,-0.07239845,-0.00061551,0.99213039,-0.12032245,-0.00682241,0.03395948
1761615110979,0.08811428,-0.05968015,-0.03192847,0.13004213,-0.07315796,-0.00242196,0.99221524,-0.11960072,-0.00722843,0.03394604
1761615110990,0.00767052,-0.02546118,0.06964029,0.12410090,-0.06770671,-0.00265826,0.99229716,-0.11889955,-0.00761098,0.03393102
1761615111001,-0.02062144,0.19428698,-0.03596090,0.13754326,-0.07975433,-0.00730502,0.99238383,-0.11815681,-0.00804165,0.03389158
1761615111013,-0.02677445,-0.02280422,-0.04278662,0.14693704,-0.06654644,-0.00954998,0.99248361,-0.11730458,-0.00842762,0.03383619
1761615111023,0.03273032,0.21412453,-0.04179516,0.17630971,-0.06678463,-0.01271146,0.99259591,-0.11634369,-0.00879160,0.03376691
1761615111035,-0.09833930,0.26746618,-0.44357534,0.16776493,-0.07111922,-0.00759335,0.99270151,-0.11542098,-0.00918275,0.03372515
1761615111046,-0.06789699,-0.07510892,0.09481814,0.15453889,-0.07274399,-0.01276904,0.99280120,-0.11454784,-0.00959376,0.03365300
1761615111057,0.04481201,-0.05321427,-0.01867167,0.13717647,-0.07243822,-0.00826383,0.99288786,-0.11377279,-0.01000303,0.03360631
1761615111068,0.09464902,-0.30117281,0.41043637,0.13610162,-0.07605530,-0.00065913,0.99296917,-0.11302423,-0.01042134,0.03360268
1761615111079,-0.03718379,-0.13349965,0.01015988,0.12216635,-0.07958835,0.00752832,0.99304060,-0.11234010,-0.01086703,0.03364484
1761615111090,-0.02243228,-0.08056673,-0.06797769,0.12252700,-0.07763890,0.00168688,0.99311088,-0.11167233,-0.01129016,0.03365404
1761615111101,-0.00376859,-0.09008225,0.02192637,0.13110865,-0.07054993,0.00560827,0.99318822,-0.11093157,-0.01168877,0.03368572
1761615111113,-0.00198643,0.03897945,-0.02644009,0.13094610,-0.06688073,-0.00219416,0.99326509,-0.11020481,-0.01205996,0.03367355
1761615111124,-0.05216082,-0.09610334,-0.02409711,0.11529825,-0.07568731,0.00344128,0.99333180,-0.10954761,-0.01249138,0.03369316
1761615111135,0.35028648,0.12931338,-0.10715152,0.10447818,-0.06652536,0.01169799,0.99338713,-0.10898343,-0.01285061,0.03375633
1761615111146,0.03347070,-0.18886050,-0.09750762,0.12110970,-0.06599761,0.00968042,0.99345521,-0.10829916,-0.01322350,0.03381102
1761615111158,-0.04677674,-0.09008351,-0.01435848,0.10246953,-0.05874442,0.02018563,0.99351075,-0.10770996,-0.01356128,0.03392709
1761615111168,-0.31226051,0.02728813,0.09278232,0.08947900,-0.05255691,0.02482276,0.99355451,-0.10722678,-0.01384509,0.03406113
1761615111180,-0.09288282,-0.26248265,-0.06772705,0.08077700,-0.04291544,0.01205340,0.99359715,-0.10677846,-0.01408327,0.03412803
1761615111191,-0.00495825,-0.17355744,0.01824637,0.06234149,-0.03314336,0.01205500,0.99363022,-0.10642312,-0.01427218,0.03419674
1761615111202,-0.09553268,-0.00157338,0.02173153,0.04973516,-0.03114898,-0.00564236,0.99365756,-0.10615455,-0.01444039,0.03416628
1761615111213,-0.07224219,0.01795976,0.01429793,0.03714193,-0.03444157,0.00735199,0.99367536,-0.10594841,-0.01463154,0.03420708
1761615111225,-0.02221981,-0.10097883,-0.00593805,0.03822500,-0.02558912,0.01040116,0.99369470,-0.10572670,-0.01477996,0.03426741
1761615111235,-0.09336434,0.02826174,-0.05853564,0.02297347,-0.01851133,0.00637692,0.99370502,-0.10560495,-0.01487807,0.03430120
1761615111246,-0.12283408,-0.10212628,0.02773433,0.02113556,-0.01671074,0.01489317,0.99371316,-0.10548870,-0.01496998,0.03438312
1761615111257,0.06305285,-0.12684460,-0.07881606,0.01078128,-0.01058781,0.02155963,0.99371446,-0.10542940,-0.01502821,0.03450169
1761615111268,-0.01853588,-0.26435056,-0.01724584,0.00745604,-0.02158971,0.00818547,0.99371547,-0.10538728,-0.01515019,0.03454794
1761615111280,0.06083835,-0.16667629,0.02304958,-0.00656897,-0.00960330,-0.00227042,0.99371103,-0.10542538,-0.01520589,0.03453477
1761615111290,-0.03040433,-0.12829676,-0.01474610,-0.01995697,-0.00532443,0.00983219,0.99369782,-0.10552915,-0.01523358,0.03458590
1761615111302,-0.02486589,-0.10613535,0.04095749,-0.02865620,-0.00425241,0.00347974,0.99367859,-0.10569966,-0.01525888,0.03460661
1761615111313,-0.02238851,-0.03060929,-0.08039511,-0.02713538,-0.00111278,0.00163523,0.99366303,-0.10584212,-0.01526472,0.03461519
1761615111324,0.00672729,0.04875855,-0.08076576,-0.02456723,0.00128514,0.00561167,0.99364780,-0.10597601,-0.01525772,0.03464577
1761615111334,0.04661609,-0.00536849,-0.04501128,-0.01282876,-0.00866751,0.00951742,0.99363799,-0.10604464,-0.01530409,0.03469669
1761615111346,0.18890512,-0.15322847,-0.11163801,-0.00795333,-0.00801831,0.01197772,0.99362999,-0.10609037,-0.01535019,0.03476556
1761615111357,0.06434491,0.03152463,-0.12808406,-0.01188924,-0.00745354,0.01800217,0.99361880,-0.10615636,-0.01539156,0.03486548
1761615111368,0.00908870,0.16865572,0.02336080,0.00149949,-0.00587358,0.01149380,0.99361696,-0.10614811,-0.01542386,0.03492869
1761615111379,-0.24386791,0.30536753,0.13733959,0.04296886,-0.00043551,0.01958238,0.99363932,-0.10590104,-0.01542637,0.03504129
1761615111391,-0.04859074,0.20866749,-0.00023138,0.06039817,0.01539086,0.00050405,0.99367655,-0.10556281,-0.01534018,0.03504411
1761615111527,0.01153507,-0.02284351,0.05483819,0.00282590,0.00050984,-0.00026877,0.99369815,-0.10537037,-0.01530546,0.03502581
1761615111533,-14.47772866,48.71991524,-14.16897088,2.70031021,0.60614361,0.08655256,0.99463471,-0.09632433,-0.01327488,0.03531576
1761615111570,2.62115536,-8.50452190,2.48785716,0.16679679,0.03781620,0.00645152,0.99492879,-0.09328863,-0.01258662,0.03543318
1761615111592,-0.16056881,-0.00444598,0.15301375,0.11810282,0.03119766,0.01497738,0.99504976,-0.09197178,-0.01223877,0.03560018
1761615111610,0.01103872,-0.36370754,-0.01761676,0.09478738,0.02629804,0.01823033,0.99512608,-0.09110922,-0.01199946,0.03576607
1761615111629,0.02885423,-0.08746438,-0.03106194,0.09684253,0.02669583,0.00922013,0.99520932,-0.09019405,-0.01174718,0.03585320
1761615111642,-0.26122655,-0.50720283,-0.50796832,0.08867761,0.02559720,0.01741130,0.99525811,-0.08963095,-0.01158464,0.03596376
1761615111655,0.09460468,-0.32187765,0.04730234,0.04341969,0.02114335,0.02431078,0.99527886,-0.08935524,-0.01145038,0.03611814
1761615111667,0.06407851,-0.09351814,0.23335794,0.02332848,0.02931761,0.01907932,0.99528952,-0.08921177,-0.01127008,0.03623548
1761615111679,0.13867959,0.38353574,0.42234238,0.03204398,0.04040037,0.02343402,0.99530469,-0.08901469,-0.01102161,0.03637959
1761615111691,-0.14261348,0.06749218,0.01922343,0.05444314,0.05756032,0.01838396,0.99533382,-0.08868531,-0.01067337,0.03649082
1761615111703,-0.09687807,0.20551698,0.03973643,0.06611920,0.09261061,0.00709895,0.99537333,-0.08828860,-0.01011771,0.03653341
1761615111716,-0.09310879,0.17593057,0.00420491,0.07953762,0.08582133,0.00288111,0.99542233,-0.08778751,-0.00957704,0.03655156
1761615111727,-0.20467154,0.33713804,0.05823631,0.09122971,0.10486618,-0.01559109,0.99547498,-0.08728575,-0.00900027,0.03646581
1761615111740,0.08933327,-0.03847642,0.06505793,0.09598370,0.10279656,-0.02205072,0.99553804,-0.08668585,-0.00835779,0.03632799
1761615111750,0.03381685,-0.07060779,-0.06920353,0.13977091,0.10454552,-0.03403775,0.99561474,-0.08593109,-0.00779325,0.03614419
1761615111761,-0.02429574,0.36717066,0.04343132,0.15752921,0.11439794,-0.02438142,0.99569948,-0.08505680,-0.00715834,0.03600887
1761615111773,-0.11045010,0.39793660,-0.03945969,0.19403338,0.13725738,0.02054590,0.99579771,-0.08391200,-0.00634852,0.03613009
1761615111784,-0.78088064,2.04407346,-0.10424628,0.28346691,0.16260894,0.01785734,0.99593196,-0.08232459,-0.00543791,0.03623010
1761615111796,0.13057329,-1.32589953,-0.16604956,0.32616896,0.17551232,0.00362709,0.99608945,-0.08044912,-0.00442871,0.03625095
1761615111807,-0.01171131,0.41564640,0.35012783,0.28085797,0.18878567,0.02378184,0.99621341,-0.07889036,-0.00338095,0.03638294
1761615111819,-0.11126145,-0.01420109,-0.04665235,0.28706119,0.18898612,-0.00309701,0.99635333,-0.07715364,-0.00223759,0.03636420
1761615111830,-0.81389970,1.58832005,-0.45846123,0.41525969,0.22685310,-0.03764723,0.99653547,-0.07489047,-0.00100124,0.03615903
1761615111841,0.19683148,0.66302678,-0.42498022,0.59222049,0.29108356,-0.04093849,0.99678775,-0.07157404,0.00062883,0.03592977
1761615111853,-0.22730156,1.09808896,0.06707674,0.71435934,0.33264531,0.02763640,0.99706773,-0.06743075,0.00255817,0.03609006
1761615111865,-0.23915708,0.01649775,0.20481323,0.78196105,0.34309499,-0.01112025,0.99737614,-0.06262169,0.00466821,0.03602167
1761615111876,-0.82525582,1.12787416,1.23009574,0.81006287,0.38365900,-0.07765148,0.99764200,-0.05828785,0.00672078,0.03560624
1761615111886,-0.14160593,-0.65622897,0.31653091,0.73621643,0.36333765,-0.03936494,0.99785683,-0.05434910,0.00866464,0.03539563
1761615111898,0.06849475,-0.31617984,0.35675534,0.66956092,0.34926730,-0.03822403,0.99804266,-0.05059955,0.01062053,0.03518158
1761615111909,0.15924269,-0.14061686,0.02887441,0.69267534,0.36824592,-0.01263112,0.99821159,-0.04668594,0.01270112,0.03511021
1761615111920,-0.38874350,0.69947800,0.27877443,0.72804956,0.38428496,-0.00825692,0.99836586,-0.04260886,0.01485312,0.03506398
1761615111931,-0.02070425,0.13784950,-0.05497109,0.73608797,0.38446042,0.02402224,0.99849627,-0.03841316,0.01704454,0.03520090
1761615111943,-0.08536290,0.01554288,-0.08469600,0.74872601,0.37159780,0.00949964,0.99860920,-0.03422029,0.01912549,0.03525410
1761615111954,0.41054220,0.47730282,0.09883423,0.74018272,0.38247018,0.00168624,0.99869898,-0.03007527,0.02126733,0.03526354
1761615111965,0.13549488,-0.17805816,0.29431481,0.69976542,0.36639632,0.03542010,0.99875733,-0.02608661,0.02335578,0.03546544
1761615111976,-0.53259092,-0.51620270,0.18053452,0.74330183,0.35688922,0.03341624,0.99880106,-0.02203561,0.02530083,0.03564756
1761615111987,0.11887296,0.28274048,0.22439579,0.74776801,0.35001419,0.02388839,0.99882816,-0.01788550,0.02724341,0.03578014
1761615111999,-0.22396947,0.06341735,-0.41256272,0.81488904,0.30357898,0.04349108,0.99884288,-0.01332212,0.02894345,0.03602369
1761615112010,0.47136326,0.00546439,0.35732376,0.79826016,0.30733090,0.04708538,0.99883160,-0.00885187,0.03066450,0.03628736
1761615112021,-0.24962257,-0.26978087,0.45048857,0.76531718,0.27425135,0.03774308,0.99880469,-0.00460436,0.03218660,0.03649684
1761615112032,0.11054640,-0.50738373,-0.03972547,0.66892190,0.24097298,0.02433469,0.99876554,-0.00085839,0.03353605,0.03663311
1761615112043,0.69183963,-0.05559426,-0.26609216,0.64366214,0.22081890,0.03254004,0.99871315,0.00274612,0.03477263,0.03681534
1761615112055,0.32432286,0.13164969,-0.24019548,0.74712705,0.19171256,0.03134339,0.99864711,0.00700474,0.03586540,0.03699399
1761615112066,0.35116223,0.82638463,0.16050802,0.79165685,0.16157675,0.05204851,0.99856327,0.01139844,0.03676215,0.03728286
1761615112077,-0.36643322,-0.42771233,0.20705189,0.76045732,0.11265818,0.05542442,0.99847051,0.01565700,0.03739303,0.03759324
1761615112088,0.19766846,-0.16298145,0.37252903,0.67949184,0.07857747,0.07205156,0.99837174,0.01946215,0.03783307,0.03799673
1761615112099,0.44095273,-0.79637583,0.06082107,0.65716232,0.07878957,0.06057223,0.99826343,0.02314226,0.03827429,0.03833593
1761615112111,0.27369480,-0.61842670,-0.17486057,0.58900004,0.02939841,0.08397392,0.99815701,0.02644066,0.03843892,0.03880619
1761615112122,0.20000214,-0.08371504,0.00628894,0.54382488,0.00319985,0.07123371,0.99805636,0.02945889,0.03845668,0.03920153
1761615112133,0.24273633,-0.18597556,-0.46619210,0.50989505,-0.05502715,0.04553509,0.99796977,0.03231430,0.03814853,0.03945653
1761615112144,0.32785423,-0.28353577,-0.10625545,0.52831671,-0.07970984,0.04227628,0.99787802,0.03524646,0.03770614,0.03969116
1761615112155,0.56458113,-0.43031718,-0.24821570,0.51924394,-0.07993907,0.06225262,0.99777396,0.03815422,0.03725848,0.04003978
1761615112166,0.03801317,-0.02257032,0.47136326,0.44567270,-0.09420173,0.08492954,0.99767576,0.04064999,0.03673095,0.04051538
1761615112177,-0.21327111,-0.36881873,-0.07422332,0.43497265,-0.11872093,0.04831569,0.99758759,0.04306409,0.03607205,0.04078354
1761615112189,0.23994728,-0.20971198,-0.05418164,0.36746689,-0.12844032,0.05395723,0.99751069,0.04510353,0.03535920,0.04108300
1761615112200,-0.14047748,-0.21255696,-0.35931004,0.36218192,-0.15875549,0.05046687,0.99743636,0.04713175,0.03447017,0.04136561
1761615112211,0.44095273,-0.33974267,-0.21287373,0.35677875,-0.14867655,0.04879772,0.99735700,0.04912971,0.03363758,0.04163888
1761615112222,-0.11403950,-0.00118791,0.00000000,0.33252772,-0.15281120,0.04384028,0.99728174,0.05099187,0.03278184,0.04188439
1761615112233,0.15245498,-0.65698481,-0.21603548,0.30989494,-0.14992999,0.05232706,0.99720708,0.05271178,0.03194973,0.04217480
1761615112245,0.08403935,-0.61424965,-0.11334210,0.28651829,-0.13380417,0.05143190,0.99713180,0.05433061,0.03119374,0.04246539
1761615112256,-0.15037825,-0.25114772,0.01663507,0.22057312,-0.13263117,0.05048109,0.99707565,0.05554376,0.03046426,0.04274304
1761615112267,0.04865685,0.03571510,0.06883839,0.17324154,-0.12593634,0.03936402,0.99703296,0.05651392,0.02975902,0.04296348
1761615112278,-0.03627639,0.31387581,0.14337177,0.14023303,-0.10393894,0.03523789,0.99699649,0.05730623,0.02917177,0.04316257
1761615112289,-0.02422078,-0.14728210,-0.39173745,0.18999836,-0.12857047,0.02168577,0.99695030,0.05837022,0.02845177,0.04328401
1761615112300,0.11444490,-0.17039531,-0.05794810,0.21206073,-0.12387607,0.02764904,0.99689341,0.05954716,0.02776426,0.04343746
1761615112312,0.02342433,0.19833412,-0.01099300,0.18299298,-0.12756926,0.02290756,0.99684571,0.06057192,0.02704987,0.04356575
1761615112323,-0.06842370,0.02185757,-0.09503292,0.19664835,-0.13678724,0.03845581,0.99678924,0.06167315,0.02628386,0.04378110
1761615112334,0.34727392,-0.67425349,-0.73670448,0.18945285,-0.12295768,0.04952576,0.99672928,0.06272461,0.02560145,0.04405597
1761615112345,-0.02486267,-0.22198747,0.02688319,0.14905602,-0.12902842,0.05053897,0.99668215,0.06355933,0.02487889,0.04433898
1761615112356,0.15667064,-0.11900179,-0.04260585,0.12733921,-0.12410114,0.06017321,0.99663887,0.06426606,0.02419013,0.04467295
1761615112367,-0.33773500,0.16830672,0.58581371,0.10074205,-0.14037393,0.05966447,0.99660607,0.06483022,0.02340403,0.04500707
1761615112378,0.03116827,0.47237460,0.14036086,0.10431254,-0.12636709,0.04270820,0.99657373,0.06540915,0.02270270,0.04524410
1761615112390,0.02232845,-0.17735625,-0.14671027,0.17938829,-0.14397242,0.05268106,0.99651189,0.06641373,0.02189645,0.04553911
1761615112401,0.16364387,1.67535328,-0.07935461,0.30249390,-0.13979082,0.06290974,0.99639725,0.06812282,0.02110663,0.04589455
1761615112412,-0.10397944,-0.28040798,-0.11175392,0.36674159,-0.14329822,0.06186521,0.99625666,0.07015823,0.02031133,0.04623790
1761615112423,0.00774023,0.05393976,0.20511622,0.34763575,-0.13717132,0.06249608,0.99611798,0.07208761,0.01955003,0.04658476
1761615112434,-0.07732768,-0.07672196,0.07116339,0.31306824,-0.13702678,0.07460503,0.99598469,0.07384079,0.01878268,0.04700254
1761615112445,-0.16089633,-0.64051012,-0.22163397,0.30922812,-0.13355855,0.06553064,0.99585606,0.07551062,0.01806146,0.04735641
1761615112456,0.09432897,-0.22126831,0.00464605,0.26388813,-0.11717653,0.07034695,0.99573578,0.07698840,0.01740527,0.04775035
1761615112467,-0.14172816,0.08399716,0.13757625,0.24013278,-0.13884648,0.07920054,0.99562485,0.07830913,0.01664162,0.04818596
1761615112479,0.19764813,0.16387787,0.20233303,0.22583358,-0.12028522,0.04648405,0.99552206,0.07958509,0.01596200,0.04844859
1761615112490,0.06315484,0.11553841,-0.09480075,0.22153832,-0.12150736,0.04597272,0.99542113,0.08081463,0.01528764,0.04870374
1761615112501,0.05637833,-0.28173413,-0.09248461,0.22206439,-0.12303498,0.06362067,0.99531420,0.08203598,0.01461095,0.04905365
1761615112512,0.03992343,-0.27288861,0.00016974,0.16201706,-0.10743596,0.07483120,0.99522613,0.08295138,0.01400393,0.04947645
1761615112523,-0.05007178,-0.57404029,-0.24135148,0.11704409,-0.10262758,0.08201878,0.99515689,0.08360097,0.01343435,0.04993165
1761615112534,-0.00157532,0.46589673,-0.35639912,0.07329443,-0.08854472,0.08173793,0.99510582,0.08401142,0.01293850,0.05038939
1761615112545,0.07899186,-1.27169205,-0.37184226,-0.01235369,-0.09995310,0.08033455,0.99509598,0.08394286,0.01238376,0.05083524
1761615112557,0.06616346,-0.65410043,-0.00020548,-0.08458519,-0.09675128,0.08870179,0.99511692,0.08346918,0.01184195,0.05133197
1761615112568,0.05320084,-0.57630725,0.39450252,-0.16991358,-0.10013576,0.08417074,0.99517728,0.08253465,0.01129121,0.05179491
1761615112579,0.01617287,-0.58863388,-0.23540517,-0.19980190,-0.08831598,0.08496659,0.99525006,0.08141576,0.01079664,0.05227072
1761615112590,-0.02280790,-0.31717236,-0.18246320,-0.21869397,-0.05882759,0.07725888,0.99533019,0.08019108,0.01046720,0.05270337
1761615112601,-0.00442299,-0.22367853,-0.25549685,-0.22124672,-0.05173246,0.07409276,0.99540948,0.07896316,0.01018009,0.05311459
1761615112612,0.00000000,-0.00459576,-0.27090821,-0.18997841,-0.03670779,0.05104164,0.99547946,0.07790878,0.00997636,0.05339787
1761615112623,-0.08848018,0.00361448,-0.30439872,-0.19375716,-0.03809965,0.05463502,0.99555006,0.07681405,0.00976110,0.05370656
1761615112635,-0.56784554,-0.75399861,-1.05239793,-0.21241794,-0.03112882,0.05617047,0.99562514,0.07563513,0.00958833,0.05401830
1761615112646,0.02322070,0.22761128,0.56116702,-0.20804737,-0.01925593,0.00669351,0.99571119,0.07448047,0.00948146,0.05405545
1761615112657,0.16205253,-0.32270524,0.04222544,-0.21276206,-0.03476212,0.00972726,0.99579847,0.07328900,0.00928679,0.05410993
1761615112668,0.50083312,0.64935825,0.30460141,-0.22943555,-0.03895749,-0.02976304,0.99590511,0.07198122,0.00906473,0.05394028
1761615112681,0.11273905,0.26648195,0.19188104,-0.20627590,-0.03268486,-0.01781619,0.99600770,0.07066105,0.00885555,0.05382625
1761615112691,0.27746662,-0.29083168,-0.28245532,-0.25705792,-0.04616583,-0.01664787,0.99610168,0.06941432,0.00863165,0.05374551
1761615112702,-0.04566456,0.42197824,0.08048176,-0.18754948,-0.04099183,-0.01783118,0.99618025,0.06838280,0.00840619,0.05364744
1761615112713,-0.02925144,0.28209279,0.11313994,-0.15252773,-0.04481640,-0.02675187,0.99625108,0.06749814,0.00814626,0.05349228
1761615112724,0.22155513,-0.03260072,-0.22666973,-0.14681783,-0.05148000,-0.02497895,0.99631105,0.06674203,0.00788113,0.05336364
1761615112735,0.02826102,0.39850942,0.05319721,-0.12458261,-0.04660276,-0.02204177,0.99636911,0.06600699,0.00760618,0.05323359
1761615112747,0.06893066,0.03066229,-0.70894377,-0.14055917,-0.06041193,-0.03272909,0.99643211,0.06523391,0.00727391,0.05305358
1761615112757,-0.07893769,-0.13218997,-0.07254537,-0.15499822,-0.06302654,-0.03151219,0.99649802,0.06439692,0.00693357,0.05288341
1761615112768,0.18805306,0.33905763,0.66227383,-0.12492633,-0.07375517,-0.02862975,0.99655227,0.06372232,0.00653529,0.05272881
1761615112780,-0.07985679,0.19071149,0.69140219,-0.07089563,-0.05837107,-0.03214487,0.99659016,0.06331467,0.00619966,0.05254398
1761615112791,-0.05517124,0.38173316,-0.05260115,-0.01350669,-0.06893556,-0.03020601,0.99660591,0.06324038,0.00582051,0.05237785
1761615112802,-0.06981702,0.31338789,0.03949742,0.00830395,-0.05279410,-0.01395593,0.99660882,0.06328813,0.00551695,0.05229760
1761615112814,-0.07039416,0.07887349,0.01668984,0.00754893,-0.04908476,-0.01411999,0.99661189,0.06333229,0.00522980,0.05221500
1761615112825,0.04654156,-0.07484386,0.03396276,-0.01282182,-0.04864941,-0.01002258,0.99662047,0.06326306,0.00496709,0.05216088
1761615112835,-0.38570735,-0.18492561,-0.35907240,-0.04022856,-0.05747507,-0.00826922,0.99663726,0.06305588,0.00467110,0.05211829
1761615112846,-0.19084199,-0.19764275,-0.04384622,-0.04094046,-0.04339220,-0.01232071,0.99665611,0.06283071,0.00443244,0.05205053
1761615112858,-0.07701833,-0.14321170,0.07034504,-0.04220835,-0.03969974,-0.01277785,0.99667690,0.06257957,0.00419623,0.05197450
1761615112868,0.23176785,0.03445398,0.30338026,-0.04442386,-0.03337286,-0.01733244,0.99669679,0.06234856,0.00402269,0.05188437
1761615112880,-0.05163198,0.12744999,0.08370440,0.00866168,-0.02353878,-0.01851654,0.99669982,0.06239967,0.00388381,0.05177512
1761615112891,-0.06958342,0.22986288,-0.01011537,0.00017037,-0.02531072,0.00352124,0.99669928,0.06240062,0.00374207,0.05179484
1761615112903,-0.12515215,0.13451951,-0.00289243,0.00484700,0.00476330,0.00155532,0.99669693,0.06242898,0.00376993,0.05180394
1761615112913,0.01972557,-0.17089467,-0.09964674,-0.00488184,-0.02368690,0.00704956,0.99669706,0.06240457,0.00365150,0.05183919
1761615112924,-0.14412253,-0.08777880,0.05466970,-0.00555532,0.01133537,0.01148549,0.99669540,0.06237290,0.00371611,0.05190466
1761615112936,-0.13551360,0.42190446,-0.94059245,-0.02474920,0.01655094,0.00848571,0.99670124,0.06223430,0.00380880,0.05195218
1761615112947,-0.03801317,-0.12639378,0.07602633,-0.05137695,0.02624730,0.01780178,0.99671339,0.06194659,0.00395578,0.05205187
1761615112958,0.00523181,0.00841658,0.03913107,-0.03672773,0.03332393,-0.01271228,0.99672869,0.06174643,0.00413740,0.05198258
1761615112969,0.02451252,-0.39231326,0.94839581,-0.00999147,0.01530754,-0.00898018,0.99673431,0.06169147,0.00422159,0.05193319
1761615112980,0.08398858,0.14469697,0.05757665,0.01273300,0.01096091,0.00919764,0.99672688,0.06176342,0.00428352,0.05198516
1761615112991,0.03054509,0.15082481,0.08235065,0.00817879,0.02093079,0.00254366,0.99672279,0.06180922,0.00440073,0.05199940
1761615113003,0.02856662,0.02155600,0.09644510,0.01258473,0.02022901,0.01329116,0.99671387,0.06188095,0.00451604,0.05207516
1761615113014,-0.01344357,-0.03967507,0.07842080,0.00521693,0.01544357,-0.00235192,0.99671236,0.06190990,0.00460175,0.05206211
1761615113025,0.02225996,-0.04272843,0.03698578,-0.00112820,0.01401242,-0.01070286,0.99671551,0.06190359,0.00468022,0.05200217
1761615113036,-0.06082107,0.22594076,0.14825135,-0.02362851,0.00778584,0.00937693,0.99672078,0.06177127,0.00472382,0.05205468
1761615113049,-0.03193964,-0.02512607,-0.02536694,-0.01228386,0.00545821,-0.00097115,0.99672576,0.06169326,0.00475848,0.05204852
1761615113058,0.06025456,0.11766841,0.11404088,0.00526607,0.00382631,-0.01414244,0.99672760,0.06171775,0.00477627,0.05198276
1761615113069,0.11785132,0.14754822,0.01747795,0.02965286,-0.01168469,-0.00756238,0.99671989,0.06188233,0.00471142,0.05194078
1761615113080,0.09288282,0.31928468,-0.10836329,0.11743499,-0.02251012,-0.02643109,0.99668743,0.06253409,0.00458649,0.05179409
1761615113092,-0.00634656,0.04536801,-0.03649274,0.10125280,-0.01884871,-0.01531732,0.99665607,0.06311123,0.00447905,0.05170678
1761615113103,-0.00896238,0.05499640,0.12649173,0.05516144,-0.01967488,-0.02870665,0.99664537,0.06341738,0.00436986,0.05154746
1761615113114,-0.03391179,-0.16197886,0.01601390,0.03154609,-0.01567652,-0.02049927,0.99664038,0.06359561,0.00428128,0.05143164
1761615113125,-0.00585335,-0.12440692,0.05281475,0.02637083,-0.01678511,0.00516732,0.99662986,0.06374329,0.00418729,0.05146058
1761615113137,-0.01925119,-0.02547845,-0.46531220,0.03664078,-0.00614190,-0.00437554,0.99661780,0.06395397,0.00415197,0.05143542
1761615113148,-0.04728964,0.03534943,-0.16756980,0.02793783,-0.01224599,-0.00287523,0.99660903,0.06410763,0.00408462,0.05141960
1761615113159,0.00000000,-0.00049260,0.08669767,0.01445381,-0.01391500,0.01215503,0.99660077,0.06418713,0.00400808,0.05148646
1761615113170,0.03802242,-0.03198923,0.46675794,0.04017101,-0.01874177,0.01067642,0.99658312,0.06441811,0.00390032,0.05154785
1761615113181,-0.00391137,0.12313786,0.22772842,0.05013220,-0.03025909,0.00780937,0.99656421,0.06468632,0.00373843,0.05158963
1761615113192,-0.04511843,0.05609607,0.06945396,0.03590228,-0.03202687,0.00049876,0.99655165,0.06488737,0.00355908,0.05159242
1761615113204,-0.06067131,-0.09162940,-0.13582248,0.06440153,-0.03394329,0.00459825,0.99652699,0.06525446,0.00336561,0.05161863
1761615113215,-0.01382738,-0.02336827,0.03048937,0.04010497,-0.02610139,0.02965712,0.99650454,0.06547504,0.00322205,0.05178174
1761615113226,-0.07001394,-0.09528185,0.02610570,0.06583615,-0.00612163,0.01771175,0.99647546,0.06584043,0.00318807,0.05188004
1761615113237,-0.35795782,-0.18525537,0.27025142,0.04153779,-0.01875692,0.02116832,0.99645402,0.06607512,0.00308210,0.05199964
1761615113248,0.07581686,0.00271802,-0.05569436,0.06860208,-0.01509630,0.01393139,0.99642518,0.06645243,0.00299907,0.05207627
1761615113259,-0.02152335,0.19527386,-0.03167395,0.10962629,-0.00770108,0.00416998,0.99638258,0.06707182,0.00295556,0.05209983
1761615113270,0.22604225,0.40846648,-0.27282615,0.12130880,-0.01310766,0.01974934,0.99633151,0.06774508,0.00288281,0.05220944
1761615113282,-0.04644141,0.14972516,0.01161035,0.12006089,-0.00354410,0.01594560,0.99628139,0.06841142,0.00286314,0.05229793
1761615113293,-0.00774023,-0.02975153,0.05418164,0.11054008,0.00565977,0.01082707,0.99623583,0.06902491,0.00289455,0.05235802
1761615113304,-0.07451950,-0.11392820,0.01037657,0.08334193,-0.00191584,0.00139606,0.99620300,0.06949163,0.00288382,0.05236584
1761615113315,0.04694592,-0.05397280,0.03997738,0.05985577,0.00751121,0.00484298,0.99617779,0.06982981,0.00292626,0.05239321
1761615113326,-0.00544040,-0.08014346,-0.01904140,0.06612483,0.00279059,0.00880474,0.99614963,0.07019350,0.00294161,0.05244163
1761615113337,-0.09380354,0.19967630,-0.46322004,0.07033998,0.00007725,-0.00478454,0.99612416,0.07057334,0.00294203,0.05241580
1761615113348,0.09494891,-0.17164107,-0.07275037,0.04458126,0.00940489,0.01241706,0.99610243,0.07082522,0.00299516,0.05248595
1761615113359,-0.00356188,-0.16570224,0.02417967,0.03164555,0.00048328,0.01896814,0.99608436,0.07100085,0.00299785,0.05259122
1761615113371,0.13793487,-0.45759684,0.30486971,0.02031898,0.00324394,0.01253297,0.99607237,0.07111566,0.00301617,0.05266204
1761615113382,0.00620764,-0.00804072,-0.08390772,0.02332157,-0.01125439,0.00737430,0.99606125,0.07124392,0.00295427,0.05270259
1761615113393,0.06305285,0.02881712,-0.08669767,0.02940182,-0.00616099,0.01641907,0.99604499,0.07140563,0.00292039,0.05279290
1761615113404,0.02967098,-0.09001019,-0.03184369,0.02517300,-0.00723165,0.02336889,0.99602789,0.07154786,0.00287953,0.05292493
1761615113415,-0.03027596,-0.11039253,-0.11274714,-0.00457366,-0.00953674,0.01155381,0.99602646,0.07152248,0.00282660,0.05298906
1761615113426,0.04644141,-0.20705128,0.08127246,-0.01417217,-0.00080010,0.01209883,0.99602854,0.07144382,0.00282216,0.05305621
1761615113437,-0.10836329,-0.25542774,-0.07740235,-0.08999764,-0.01346748,0.00296043,0.99606358,0.07094434,0.00274742,0.05307264
1761615113448,0.02328735,-0.14313584,-0.01969151,-0.07413399,-0.01168142,0.00648114,0.99609130,0.07052919,0.00268200,0.05310893
1761615113460,0.03041053,-0.04846679,-0.14445003,-0.06336785,-0.00809450,-0.00430819,0.99611777,0.07017433,0.00263667,0.05308480
1761615113471,0.05136750,0.03427503,-0.00950037,-0.06309771,-0.01859248,-0.00294724,0.99614421,0.06981467,0.00253069,0.05306801
1761615113482,0.12257579,0.00193817,-0.10056817,-0.04678683,-0.02044652,0.00089485,0.99616256,0.06955266,0.00241619,0.05307302
1761615113493,-0.00760263,0.11855356,0.09503292,-0.04066082,-0.01490118,0.00435080,0.99617733,0.06932496,0.00233275,0.05309738
1761615113504,0.04561580,0.17414782,0.03801317,-0.04063497,-0.00966447,0.01302851,0.99618938,0.06909741,0.00227863,0.05317034
1761615113516,-0.05224658,0.11287482,-0.07411966,-0.02330181,-0.01732292,0.00191127,0.99619799,0.06896808,0.00218248,0.05318095
1761615113527,0.00616430,0.08793969,0.06205393,-0.01400855,-0.00701952,0.00544414,0.99620187,0.06888963,0.00214317,0.05321144
1761615113538,-0.09910265,-0.08413618,-0.28707978,-0.00413942,-0.01213033,-0.01892059,0.99620921,0.06886666,0.00207585,0.05310643
1761615113549,-0.04581426,0.01580443,-0.10808991,-0.00925024,-0.01328036,0.00318136,0.99621204,0.06881393,0.00200015,0.05312456
1761615113560,0.07176410,0.08017719,0.08897918,0.00636331,-0.00124088,-0.00802831,0.99621199,0.06884893,0.00199333,0.05308040
1761615113572,-0.01686402,0.21116746,0.27293453,0.01817610,-0.01068620,0.00113178,0.99620473,0.06895072,0.00193349,0.05308674
1761615113583,0.00680182,0.09066806,0.01590426,0.02516758,-0.00048003,-0.00622422,0.99619675,0.06909291,0.00193077,0.05305158
1761615113594,-0.00686255,0.01733510,-0.08446997,0.02904401,-0.00789229,0.00280066,0.99618471,0.06925556,0.00188658,0.05306726
1761615113605,0.03165203,-0.05427451,0.02546675,0.02793402,0.00176667,-0.00117301,0.99617425,0.06941059,0.00189638,0.05306075
1761615113616,0.01126993,-0.05626676,-0.00033147,0.00547071,-0.01302472,-0.00109133,0.99617263,0.06944014,0.00182605,0.05305486
1761615113627,-0.00422369,-0.03117608,-0.05152896,-0.00886572,-0.01109603,-0.00108396,0.99617653,0.06939049,0.00176391,0.05304879
1761615113638,-0.17698876,-0.00232596,0.20325027,-0.01167269,-0.01313987,0.00274924,0.99618035,0.06932570,0.00169098,0.05306404
1761615113649,-0.06027313,-0.08916399,-0.04938287,-0.00015399,-0.01030308,0.00341622,0.99617949,0.06932484,0.00163329,0.05308317
1761615113661,-0.04017640,-0.09551149,-0.04912595,0.00389396,-0.00939683,-0.00763022,0.99618036,0.06934723,0.00157925,0.05303930
1761615113672,0.22628408,-0.09504924,-0.22823596,-0.00941580,-0.00176129,-0.00455349,0.99618535,0.06929497,0.00156948,0.05301403
1761615113683,-0.02276083,0.04705470,-0.17711461,-0.01396199,-0.00969680,0.00740609,0.99618855,0.06921958,0.00151712,0.05305402
1761615113694,0.02988591,0.03428010,0.07557479,-0.00726670,0.00150894,0.00777848,0.99618903,0.06917925,0.00152549,0.05309719
1761615113705,-0.02342433,-0.08379592,-0.10643687,0.00202419,0.00472046,-0.00039175,0.99618832,0.06919059,0.00155193,0.05309500
1761615113716,-0.04561580,0.07056194,0.06842370,-0.02058818,0.00644477,0.00264816,0.99619548,0.06907529,0.00158802,0.05310983
1761615113727,-0.04644141,-0.06429103,-0.12805942,-0.00864430,0.00794728,0.00588239,0.99619699,0.06902732,0.00163212,0.05314248
1761615113739,0.06055677,0.05867068,-0.25851014,-0.00858638,0.01475346,-0.01178344,0.99620376,0.06897880,0.00171548,0.05307590
1761615113750,0.00773719,-0.04014300,-0.05321843,-0.01838150,0.01465104,-0.02254920,0.99621746,0.06887587,0.00179753,0.05294962
1761615113761,-0.03110419,-0.06698046,0.12512049,-0.05470478,0.00553240,-0.03034004,0.99624701,0.06857499,0.00182796,0.05278275
1761615113772,0.03940803,-0.00591120,0.28373781,-0.03697388,0.00725009,-0.00629983,0.99626275,0.06837163,0.00186783,0.05274810
1761615113783,0.02225498,0.03120103,-0.02522692,-0.01598270,-0.00135707,-0.00655575,0.99627085,0.06828213,0.00186023,0.05271139
1761615113795,-0.00135209,0.11920325,0.10716925,-0.00556194,0.00557172,0.01095126,0.99626964,0.06825015,0.00189227,0.05277436
1761615113805,-0.05425209,0.11736361,-0.03273958,-0.01499144,-0.00054033,-0.00325021,0.99627606,0.06816995,0.00188938,0.05275697
1761615113817,0.02240601,-0.04199599,0.09088044,0.00842856,0.00395081,0.00095274,0.99627247,0.06821757,0.00191170,0.05276236
1761615113828,0.05851089,-0.03834907,0.10948875,-0.01757878,0.00105091,0.00551163,0.99627765,0.06811737,0.00191769,0.05279377
1761615113839,-0.20187973,-0.52854723,0.36919101,-0.02418056,-0.00843677,-0.00269308,0.99628761,0.06798437,0.00187129,0.05277896
1761615113850,-0.03593972,0.03884254,0.07395289,-0.04120704,-0.00145286,-0.01548657,0.99630794,0.06775362,0.00186315,0.05269224
1761615113861,0.01294835,-0.02748006,-0.06741588,-0.00205458,0.00468169,-0.00150198,0.99630909,0.06774231,0.00188890,0.05268398
1761615113872,0.10132237,0.36245554,-0.30631701,-0.01235304,0.00239480,0.00059723,0.99631359,0.06767314,0.00190231,0.05268732
1761615113884,-0.01460391,0.09281655,0.11736480,-0.00548295,-0.00379781,-0.00335396,0.99631674,0.06764216,0.00188085,0.05266837
1761615113895,0.04416030,0.09246463,0.02632388,0.01661023,-0.00458178,-0.00766700,0.99631263,0.06773767,0.00185451,0.05262428
1761615113906,-0.00057946,0.14167610,-0.04038123,0.01929051,-0.00637269,-0.00233423,0.99630633,0.06784087,0.00182042,0.05261180
1761615113917,0.00048007,0.08726345,0.02290620,0.02012662,-0.00510820,0.00257573,0.99629779,0.06795559,0.00179130,0.05262648
1761615113928,0.12671939,-0.03695672,0.11465796,0.03222114,0.00165879,-0.00353872,0.99628710,0.06812637,0.00180009,0.05260772
1761615113939,0.05479634,-0.12452002,0.11862977,0.02143844,0.00144224,-0.02605452,0.99628656,0.06824642,0.00180817,0.05246182
1761615113950,0.04022158,-0.15266663,0.07899186,-0.00337489,0.01196389,-0.01030729,0.99629073,0.06822769,0.00187457,0.05240461
1761615113962,-0.21275613,0.00833076,-0.12393953,-0.02025756,0.00370284,-0.01706277,0.99630359,0.06811324,0.00189549,0.05230821
1761615113973,-0.13419655,0.08507383,0.05872843,-0.01577594,0.00904366,-0.01936042,0.99631501,0.06802647,0.00194523,0.05220173
1761615113984,-0.00987323,0.05722973,-0.02474980,0.00344473,0.01677293,-0.01096345,0.99631675,0.06804610,0.00204083,0.05213923
1761615113995,-0.04200177,0.17040884,0.03469574,0.01532272,0.01470426,-0.00386001,0.99631171,0.06813421,0.00212538,0.05211704
1761615114006,-0.01891553,0.10867487,-0.02100950,0.04710655,0.01843369,0.00582082,0.99629224,0.06839094,0.00222585,0.05214876
1761615114017,-0.08378750,0.10433588,-0.01875280,0.02988171,0.00883582,0.00153309,0.99628061,0.06855230,0.00227356,0.05215704
1761615114028,-0.04280001,-0.16666838,0.06279212,0.04274099,0.01520983,0.00950942,0.99626113,0.06879165,0.00235873,0.05221029
1761615114040,-0.09123160,-0.08006523,0.23948295,0.01582975,0.02460293,-0.00175525,0.99625518,0.06888030,0.00249651,0.05220046
1761615114051,-0.05321843,-0.18982825,-0.01140395,0.01439166,0.02450704,0.00299922,0.99624837,0.06896089,0.00263375,0.05221726
1761615114062,0.00760263,-0.04514063,-0.09123160,0.01357530,0.02997265,-0.00816192,0.99624504,0.06903691,0.00280160,0.05217155
1761615114073,-0.04298595,0.17416176,-0.18638762,0.01599501,0.01735514,-0.00312540,0.99623952,0.06912568,0.00289792,0.05215421
1761615114084,0.02322070,0.05974494,-0.11223340,0.04620370,0.02609183,0.00669531,0.99621932,0.06938211,0.00304273,0.05219137
1761615114095,-0.05741754,0.07788023,-0.03496396,0.05028337,0.01983356,0.00183695,0.99619933,0.06965616,0.00315082,0.05220138
1761615114106,-0.03649982,-0.02447228,0.05755468,0.03990702,0.04374767,0.01280501,0.99617930,0.06987764,0.00339362,0.05227245
1761615114117,-0.17028516,-0.04523200,-0.11610352,0.03515476,0.03372764,-0.00343659,0.99616594,0.07007275,0.00358081,0.05225337
1761615114128,-0.02322070,-0.09892987,0.03096094,0.02896786,0.06779890,0.01126722,0.99614991,0.07023352,0.00395709,0.05231591
1761615114140,0.09054668,0.12584584,0.08743028,0.01456797,0.07600129,0.00295418,0.99614150,0.07031510,0.00438270,0.05233245
1761615114151,-0.14554406,-0.09045535,-0.01081560,0.00534072,0.08493388,0.00716130,0.99613514,0.07034474,0.00485408,0.05237219
1761615114162,-0.12184761,-0.15838819,-0.04249940,-0.00510168,0.09116854,0.00319225,0.99613359,0.07031618,0.00536463,0.05239007
1761615114173,-0.20825583,-0.22399338,-0.10112711,-0.01175886,0.10030986,0.00953401,0.99613223,0.07024974,0.00593138,0.05244394
1761615114184,-0.12402604,0.07120975,0.00546965,-0.02038345,0.11512990,0.00746129,0.99613399,0.07013865,0.00655884,0.05248460
1761615114195,-0.05691513,-0.04834255,-0.04394183,-0.01194608,0.11682512,0.02507529,0.99612676,0.07007175,0.00721306,0.05262502
1761615114206,-0.14374722,-0.02225102,-0.02031812,-0.02176582,0.14508637,0.02963162,0.99612040,0.06995095,0.00801829,0.05278948
1761615114218,-0.19965474,-0.11028099,-0.09390279,-0.02028617,0.15370025,0.02851963,0.99611259,0.06983735,0.00887901,0.05294919
1761615114229,-0.14445003,-0.13328366,0.34972113,-0.03885031,0.17201252,0.03985663,0.99610688,0.06961979,0.00984228,0.05317239
1761615114240,-0.12494950,-0.15286316,-0.00269526,-0.06097473,0.17557068,0.04537849,0.99610689,0.06928138,0.01081669,0.05342424
1761615114251,-0.23469114,-0.35421718,-0.17773413,-0.07313018,0.17934651,0.03728635,0.99611270,0.06886819,0.01183000,0.05363490
1761615114262,0.25483759,0.05199904,-0.26417150,-0.09141585,0.18289244,0.02877167,0.99612611,0.06837454,0.01281762,0.05379027
1761615114273,0.20455854,-0.21097477,-0.06120159,-0.09398412,0.16651877,0.01004879,0.99614680,0.06784353,0.01375845,0.05384705
1761615114284,0.06055195,-0.02879792,0.12594805,-0.15079511,0.14001224,0.00552287,0.99619115,0.06699908,0.01454252,0.05387798
1761615114296,0.24075882,-0.03471168,0.11448671,-0.15763523,0.12389258,0.00151915,0.99624226,0.06606115,0.01527968,0.05388701
1761615114307,-0.08904522,-0.04042017,-0.06920086,-0.20076325,0.12595867,-0.00303607,0.99630209,0.06500714,0.01594096,0.05387107
1761615114318,0.22800963,-0.19649305,-0.11400482,-0.16547679,0.09922877,-0.00422289,0.99635574,0.06405565,0.01651153,0.05384679
1761615114329,0.12905837,-0.40087315,0.15139405,-0.18627705,0.08615873,-0.01548100,0.99641716,0.06304044,0.01698110,0.05376242
1761615114340,0.12089950,-0.23143631,-0.16012676,-0.21951835,0.07124366,-0.05355998,0.99650190,0.06183309,0.01737294,0.05346784
1761615114351,0.20279415,0.09962913,0.18087521,-0.25279241,0.06229522,-0.05409966,0.99659794,0.06043009,0.01771867,0.05316759
1761615114363,-0.02280796,0.05745375,-0.34509440,-0.23636220,0.06657933,-0.04258562,0.99668482,0.05908283,0.01809818,0.05292485
1761615114374,0.04756618,-0.22559369,-0.23471976,-0.22108089,0.06369576,-0.04718435,0.99676348,0.05786689,0.01844850,0.05266534
1761615114385,0.05225082,-0.00151621,-0.08224667,-0.22186306,0.05568797,-0.05689128,0.99684579,0.05662445,0.01876036,0.05234675
1761615114396,0.16351246,-0.00153984,-0.17367152,-0.24915268,0.04419831,-0.02280194,0.99692537,0.05524165,0.01900566,0.05222019
1761615114407,0.30205678,-0.15422830,-0.03836273,-0.25689401,0.03299058,-0.01183145,0.99700190,0.05384158,0.01918545,0.05215571
1761615114418,0.04748429,0.09388511,-0.01319008,-0.26930986,0.00997993,-0.01364680,0.99708585,0.05231998,0.01924184,0.05207861
1761615114429,-0.00438385,0.02902374,-0.01082263,-0.26865072,-0.01342455,-0.03161015,0.99717355,0.05082897,0.01916733,0.05190317
1761615114440,0.33283009,-0.14924140,0.53794631,-0.25767595,-0.01223262,-0.01912583,0.99725224,0.04939887,0.01909944,0.05179702
1761615114452,-0.01548047,-0.11078211,-0.15093458,-0.23907946,-0.04005825,-0.01516058,0.99732568,0.04807198,0.01887712,0.05171288
1761615114463,0.22284893,0.38188616,0.05244889,-0.26386526,-0.05512110,-0.02219741,0.99740877,0.04658114,0.01856569,0.05158747
1761615114474,0.02392381,0.21283170,-0.33179468,-0.25070587,-0.06800372,-0.03216008,0.99748823,0.04520226,0.01819167,0.05141059
1761615114485,0.19960368,0.33488304,-0.07098095,-0.22527914,-0.07623016,-0.01976554,0.99755799,0.04394069,0.01776478,0.05129990
1761615114496,0.04774613,0.19749669,-0.13693671,-0.17605985,-0.08825707,-0.01279257,0.99761378,0.04294596,0.01726612,0.05122762
1761615114507,-0.12821471,0.07167081,-0.16055781,-0.13179663,-0.11074322,-0.01820563,0.99765938,0.04223425,0.01666811,0.05112931
1761615114518,0.13747883,0.11331587,0.17585949,-0.11460092,-0.09009787,-0.00775097,0.99769720,0.04158676,0.01615906,0.05108552
1761615114529,0.07128320,-0.32275569,0.18992578,-0.11833287,-0.10656770,0.00631940,0.99773165,0.04093593,0.01557294,0.05112028
1761615114541,0.13283874,0.26880924,0.11528357,-0.11761547,-0.10956614,0.00084342,0.99776760,0.04027728,0.01495937,0.05112500
1761615114552,-0.01520527,-0.10049731,0.03041053,-0.12904919,-0.10964611,0.01498171,0.99780123,0.03955461,0.01434535,0.05120890
1761615114563,-0.11129650,-0.05195559,-0.06788486,-0.14512683,-0.10366440,0.02084129,0.99783560,0.03873464,0.01375964,0.05132665
1761615114574,-0.29769080,-0.41621314,-0.21658958,-0.15370638,-0.10529625,0.01652522,0.99787151,0.03788157,0.01317525,0.05141836
1761615114585,0.00000000,0.32508986,-0.08514258,-0.17847147,-0.10435104,0.02839228,0.99790797,0.03689105,0.01259610,0.05157594
1761615114597,-0.01082177,0.07478063,-0.00499993,-0.15603246,-0.08560717,0.01771575,0.99794069,0.03601727,0.01211670,0.05167515
1761615114608,-0.12840496,0.04016543,-0.07622749,-0.13903447,-0.08144892,0.02605836,0.99796613,0.03524563,0.01166466,0.05181977
1761615114619,0.08514258,-0.06361505,-0.07740235,-0.13197234,-0.07453279,0.02727793,0.99798860,0.03451318,0.01125100,0.05197117
1761615114630,-0.06513217,0.24054707,0.48213285,-0.12543851,-0.06105512,0.00505096,0.99801520,0.03380445,0.01090604,0.05199970
1761615114641,0.17220960,-0.14681889,0.60792989,-0.12997014,-0.06399897,0.02717374,0.99803515,0.03308962,0.01055405,0.05214916
1761615114652,-0.09095514,0.23359955,-0.07215590,-0.13230529,-0.06073297,0.03133858,0.99805379,0.03234871,0.01021394,0.05232466
1761615114663,0.02280790,0.06509755,-0.37633035,-0.13608190,-0.05635311,0.01922191,0.99807573,0.03158665,0.00989836,0.05243230
1761615114674,-0.00463032,-0.07834396,-0.36983809,-0.11924102,-0.06872776,0.02682828,0.99809233,0.03092486,0.00951693,0.05258120
1761615114685,0.09770351,0.03773053,0.04956181,-0.12866962,-0.06255241,0.01302138,0.99811345,0.03021718,0.00917289,0.05265281
1761615114697,0.07346186,0.02211244,0.02441692,-0.10870050,-0.06960316,0.01750506,0.99812988,0.02961389,0.00878659,0.05274997
1761615114708,0.05630058,0.04670739,0.04657469,-0.10384741,-0.06722561,0.01471572,0.99814585,0.02903235,0.00841013,0.05283237
1761615114719,-0.01520527,0.12591861,0.06462238,-0.09369228,-0.06289352,-0.00345901,0.99816490,0.02850767,0.00805792,0.05281300
1761615114730,0.12881962,-0.12628849,0.22063124,-0.07808282,-0.05799910,0.01168388,0.99817630,0.02807431,0.00773603,0.05287785
1761615114741,0.03096094,-0.22978822,0.40249220,-0.06089828,-0.07033890,-0.00580509,0.99819040,0.02773632,0.00734565,0.05284563
1761615114752,-0.03671181,0.26451684,-0.06636893,-0.04413010,-0.05792828,0.00134767,0.99819917,0.02748920,0.00702125,0.05285318
1761615114764,0.01520527,0.29008798,-0.22427768,-0.03120280,-0.06193033,0.00156695,0.99820588,0.02731446,0.00667444,0.05286195
1761615114775,-0.02280790,0.33641652,-0.25088690,-0.03246718,-0.06273387,-0.00909825,0.99821583,0.02713264,0.00632313,0.05281100
1761615114786,0.03588946,-0.05905487,0.03300422,-0.05629482,-0.06923883,0.00759092,0.99822432,0.02682302,0.00594232,0.05285275
1761615114797,-0.04503409,-0.18429895,0.02607052,-0.05070495,-0.07240086,-0.00410263,0.99823536,0.02654161,0.00554049,0.05282998
1761615114808,0.04084218,-0.03037511,0.14695110,-0.07623817,-0.05981569,0.00181727,0.99824800,0.02611086,0.00520253,0.05284025
1761615114819,-0.05463131,-0.03993275,0.02536454,-0.07529502,-0.06952448,-0.00103824,0.99826120,0.02568921,0.00481319,0.05283444
1761615114831,0.02128565,0.09903138,0.27374169,-0.06129798,-0.06165057,0.00080713,0.99827125,0.02534901,0.00447103,0.05283892
1761615114842,0.00171230,0.29932800,0.43194601,-0.05669699,-0.05892346,0.00383226,0.99827955,0.02503151,0.00414106,0.05286038
1761615114853,-0.01720820,0.22286002,-0.03721532,-0.01760852,-0.06742842,-0.00162969,0.99828395,0.02493378,0.00376683,0.05285133
1761615114864,0.01705456,0.02859121,-0.34704993,-0.00614000,-0.05693839,0.01185789,0.99828245,0.02489939,0.00344798,0.05291774
1761615114875,0.01375274,0.06088956,-0.38127567,0.01088747,-0.06287482,0.00379423,0.99828097,0.02495982,0.00309902,0.05293879
1761615114886,-0.03870117,0.09892987,0.10836329,0.01718394,-0.07235790,0.00288815,0.99827889,0.02505519,0.00269744,0.05295482
1761615114898,0.07845466,-0.00872186,0.08329921,0.00841884,-0.06924164,0.00421319,0.99827742,0.02510276,0.00230622,0.05297863
1761615114909,-0.01646119,-0.02948140,0.09691756,0.00250400,-0.07903473,0.00812197,0.99827549,0.02511741,0.00184387,0.05302614
1761615114920,0.11168523,0.00180631,0.06465987,-0.00031201,-0.08682792,0.01292100,0.99827269,0.02511578,0.00139236,0.05309333
1761615114931,0.05672734,-0.28844317,0.60294730,0.00636016,-0.08208410,-0.00504529,0.99827383,0.02515140,0.00093269,0.05306508
1761615114942,0.00006911,-0.05166132,0.39412999,0.03641103,-0.08717852,-0.00803220,0.99827142,0.02535348,0.00044885,0.05302050
1761615114953,-0.00774023,0.20172987,0.08127246,0.06993277,-0.09667229,-0.01214108,0.99826516,0.02574161,-0.00008768,0.05295312
1761615114964,-0.14445003,0.46090750,-0.74105127,0.08711495,-0.10025288,-0.03006969,0.99826117,0.02622945,-0.00064909,0.05278473
1761615114976,0.05354769,0.08137806,-0.09785957,0.08397413,-0.09298853,-0.02568245,0.99825578,0.02670391,-0.00117448,0.05263962
1761615114986,0.13304741,0.05861225,0.19623250,0.06942102,-0.11060763,-0.01011147,0.99824760,0.02708225,-0.00177729,0.05258451
1761615114998,0.15100643,0.07657779,0.20045842,0.06730798,-0.11509550,-0.01934031,0.99824164,0.02745917,-0.00242183,0.05247621
1761615115009,0.10643687,0.04371514,0.26989348,0.04378945,-0.14800579,-0.03168161,0.99824182,0.02770440,-0.00325066,0.05229879
1761615115020,0.15205267,-0.07745183,0.27749611,0.04705972,-0.16614268,-0.04915528,0.99824539,0.02796793,-0.00418106,0.05202352
1761615115031,0.05831259,-0.00351759,0.67013620,0.04134757,-0.17982307,-0.04500196,0.99824728,0.02820361,-0.00520605,0.05176701
1761615115042,0.66700743,0.28008933,1.07388197,0.10575499,-0.20756213,-0.02825038,0.99823241,0.02877469,-0.00632688,0.05161446
1761615115054,-0.22973072,-0.20490431,-0.48570551,0.12741565,-0.21226091,-0.03389368,0.99821296,0.02949459,-0.00752616,0.05142296
1761615115065,0.28380941,0.22942817,0.06348368,0.10419307,-0.24498054,-0.01082529,0.99818714,0.03008328,-0.00891030,0.05136179
1761615115076,0.33152864,0.24967822,0.13322793,0.08652170,-0.27738702,-0.02346588,0.99816432,0.03056347,-0.01044980,0.05123156
1761615115088,-0.11054308,0.24048201,0.11051274,0.08832514,-0.29985646,-0.02564428,0.99813563,0.03108901,-0.01223394,0.05107897
1761615115098,0.48695015,0.39337316,0.55004505,0.13805700,-0.36010850,-0.02495752,0.99809453,0.03181381,-0.01412451,0.05094795
1761615115109,0.01332762,0.26895955,0.26647302,0.13883348,-0.36483643,-0.02525720,0.99804793,0.03255657,-0.01607639,0.05081282
1761615115120,0.01068068,0.08605775,0.08345663,0.17221150,-0.37210105,-0.01168911,0.99798479,0.03350373,-0.01812294,0.05074853
1761615115131,-0.12408253,0.21330437,0.28178742,0.18129217,-0.35702658,-0.00804151,0.99791286,0.03453709,-0.02015799,0.05070270
1761615115143,0.29770311,0.20734682,0.77146721,0.19295672,-0.37155514,0.01236659,0.99782716,0.03561765,-0.02223870,0.05077195
1761615115154,-0.03041053,0.05773250,0.27749611,0.22103276,-0.39324121,0.02689696,0.99772301,0.03685544,-0.02444085,0.05092257
1761615115165,-0.00576574,0.23765249,-0.05457797,0.20588028,-0.39867129,0.01806678,0.99761545,0.03802895,-0.02671328,0.05102555
1761615115176,0.17150731,-0.07987846,0.11773304,0.24032563,-0.42612008,0.02271120,0.99749112,0.03936276,-0.02907825,0.05115160
1761615115187,0.27773374,0.33417537,0.54695011,0.24227905,-0.45448829,0.02642947,0.99735802,0.04065895,-0.03150976,0.05129300
1761615115198,-0.17083637,0.05031092,-0.34180990,0.27003376,-0.44228730,0.03836903,0.99719996,0.04219815,-0.03403080,0.05151170
1761615115209,0.30558507,0.74492843,0.51216611,0.28343254,-0.45245909,0.05589319,0.99702881,0.04375702,-0.03651932,0.05181911
1761615115221,-0.19835961,-0.12442832,-0.08114083,0.32117934,-0.45015297,0.05234964,0.99683743,0.04555563,-0.03904018,0.05211227
1761615115232,0.07602633,0.08291622,0.33831718,0.31837388,-0.45315547,0.04195141,0.99663941,0.04733852,-0.04157785,0.05234720
1761615115243,-0.02398091,-0.43083995,0.69382220,0.32816238,-0.45342479,0.03722993,0.99643218,0.04915982,-0.04409436,0.05255382
1761615115254,-0.14398766,-0.28189527,0.38277712,0.30536613,-0.43510824,0.03134093,0.99622249,0.05090041,-0.04657447,0.05273247
1761615115266,-0.00222750,-0.02124517,-0.04553267,0.30597919,-0.42549773,0.03929917,0.99600557,0.05262919,-0.04897854,0.05295451
1761615115277,0.03850064,0.32099330,-0.44630906,0.34114392,-0.41370909,0.03447869,0.99578213,0.05448843,-0.05123325,0.05314242
1761615115288,-0.21461745,0.10460160,-0.38027116,0.32658427,-0.38045533,0.01674723,0.99556345,0.05631730,-0.05336380,0.05323620
1761615115299,-0.07602633,0.00356373,0.09123160,0.31919496,-0.34821895,-0.01438218,0.99535857,0.05810479,-0.05531383,0.05315566
1761615115310,-0.20465486,0.00047304,-0.32115276,0.31699476,-0.34792194,-0.05219004,0.99515691,0.05989581,-0.05727959,0.05286079
1761615115321,0.40714682,-0.32143896,0.19702520,0.35323409,-0.35731946,-0.03410030,0.99493709,0.06180328,-0.05920911,0.05267665
1761615115332,-0.04536638,0.16737586,0.11201840,0.29034449,-0.33578095,-0.03504387,0.99473329,0.06341469,-0.06107269,0.05248215
1761615115343,-0.15785132,-0.37300239,-0.02947096,0.28174847,-0.32680535,-0.02449555,0.99452273,0.06500657,-0.06291914,0.05234375
1761615115355,-0.09594120,0.02101026,-0.11831178,0.27197964,-0.30889327,-0.01988893,0.99431690,0.06652965,-0.06464895,0.05223237
1761615115366,-0.09232845,-0.44160837,-0.50043435,0.28257776,-0.28346924,-0.01801106,0.99410496,0.06815447,-0.06627890,0.05212881
1761615115377,-0.12089188,0.18288649,-0.17118207,0.27820371,-0.28364194,-0.02956007,0.99390400,0.06967069,-0.06782474,0.05196771
1761615115388,-0.22849749,-0.08329984,-0.30790665,0.25092686,-0.25964809,-0.02525765,0.99371158,0.07107588,-0.06927877,0.05182627
1761615115399,-0.14247723,0.04721395,-0.04081528,0.23963154,-0.24178468,-0.03683568,0.99353500,0.07238187,-0.07059650,0.05162551
1761615115410,-0.26451719,-0.37611150,-0.47744466,0.25472836,-0.21291784,-0.03335818,0.99335592,0.07379561,-0.07177819,0.05144037
1761615115421,-0.20124610,0.16786634,-0.03870117,0.23690182,-0.19531411,-0.03462064,0.99318837,0.07511041,-0.07286219,0.05124823
1761615115433,0.00679582,-0.17094462,-0.33595552,0.22881270,-0.16611578,-0.01037079,0.99302348,0.07640321,-0.07380074,0.05118963
1761615115444,-0.02238934,-0.27888810,0.37657337,0.22265297,-0.16657855,-0.00742632,0.99286208,0.07762780,-0.07471692,0.05114879
1761615115455,-0.16006999,-0.40789855,-0.22469237,0.21132613,-0.15684106,-0.00465192,0.99270369,0.07881122,-0.07559523,0.05112274
1761615115466,-0.03614302,-0.13551133,-0.22229292,0.16522618,-0.13967530,0.00175121,0.99256821,0.07974475,-0.07638440,0.05113263
1761615115477,-0.28066887,0.18778100,-0.68569971,0.14600043,-0.13710985,0.01467981,0.99244088,0.08054775,-0.07713850,0.05121337
1761615115488,-0.07332113,-0.03928169,-0.46216238,0.13478069,-0.11543875,0.00176469,0.99232937,0.08129579,-0.07777919,0.05122317
1761615115500,-0.25068926,-0.14947273,-0.45139934,0.11226592,-0.11096006,-0.00861829,0.99222949,0.08193570,-0.07841166,0.05117404
1761615115511,-0.00450632,0.20746904,-0.11110900,0.12820184,-0.10349873,-0.03204577,0.99213580,0.08263440,-0.07897573,0.05099939
1761615115522,-0.07030692,-0.19658082,-0.40684550,0.15404761,-0.09203881,-0.03822137,0.99203339,0.08349707,-0.07949115,0.05078535
1761615115533,-0.03801317,-0.40127649,-0.04181448,0.16351927,-0.08248494,-0.02503258,0.99192593,0.08441278,-0.07995306,0.05064517
1761615115544,0.01513492,-0.01975228,0.19333309,0.13508139,-0.06026277,-0.02865902,0.99184294,0.08516248,-0.08028752,0.05048611
1761615115555,-0.20898634,-0.02467200,-0.49924514,0.14051785,-0.03532236,-0.03918274,0.99177083,0.08594235,-0.08048356,0.05026865
1761615115566,-0.19561370,0.10342321,-0.60533399,0.13011336,-0.00528689,-0.03041390,0.99171363,0.08667099,-0.08051317,0.05009833
1761615115578,0.09123160,0.11570257,0.07602633,0.14243797,0.00249313,-0.03182320,0.99165372,0.08746864,-0.08049920,0.04992012
1761615115589,-0.39779278,-0.26802506,-1.01784086,0.12506378,0.02265775,-0.05414487,0.99161753,0.08816274,-0.08037345,0.04961962
1761615115600,-0.05431431,-0.07173487,-0.15064858,0.08340817,0.01942716,-0.06992622,0.99160422,0.08862983,-0.08026466,0.04922803
1761615115611,-0.02237813,-0.07204720,-0.23426666,0.10860442,0.01674409,-0.05374683,0.99157274,0.08922715,-0.08017257,0.04893242
1761615115622,0.00731804,0.11209267,-0.18474533,0.12912830,0.02150898,-0.04360151,0.99152954,0.08994382,-0.08005319,0.04869043
1761615115633,0.07933205,0.24141113,-0.00337161,0.15743713,0.02393235,-0.04391794,0.99147100,0.09084121,-0.07991678,0.04844010
1761615115644,0.07591231,0.18791840,-0.02288431,0.15480151,0.03730005,-0.03537399,0.99141862,0.09169262,-0.07971163,0.04824554
1761615115655,-0.09478269,-0.14390240,-0.13640404,0.12956071,0.05066563,-0.04719513,0.99138714,0.09241168,-0.07943043,0.04798361
1761615115667,-0.21390111,-0.32443467,-0.28102346,0.08627309,0.05314980,-0.04450957,0.99137782,0.09289481,-0.07913280,0.04773436
1761615115678,-0.16344335,-0.34096339,-0.25439111,0.05497373,0.05831545,-0.01213008,0.99137821,0.09319991,-0.07880915,0.04766704
1761615115689,-0.11610352,-0.38676985,-0.29412892,0.03562473,0.06835453,-0.01345926,0.99139327,0.09339763,-0.07842978,0.04759234
1761615115700,-0.08027285,-0.23978474,-0.09119735,-0.00339801,0.09173795,-0.00961392,0.99143816,0.09337860,-0.07791605,0.04753850
1761615115711,-0.09123160,-0.24138361,-0.23188031,-0.03217424,0.10154851,-0.01805154,0.99150448,0.09319843,-0.07734737,0.04743741
1761615115722,-0.25088690,-0.78283364,-0.53598564,-0.06617006,0.10968928,-0.02140360,0.99159269,0.09282787,-0.07673311,0.04731755
1761615115734,0.15729316,0.69715946,0.68174321,-0.07847630,0.10791317,-0.04358411,0.99169458,0.09237663,-0.07611261,0.04706694
1761615115745,-0.03166269,-0.04455333,-0.34563258,-0.05077101,0.12461209,-0.05758394,0.99178451,0.09210755,-0.07545217,0.04676175
1761615115756,0.00708305,-0.06347586,0.07258296,-0.02504598,0.13151791,-0.03237176,0.99186112,0.09196854,-0.07472224,0.04658208
1761615115767,-0.05493074,-0.14580917,-0.35739226,-0.04256515,0.12999909,0.00616883,0.99193614,0.09173018,-0.07399425,0.04661663
1761615115778,0.07090608,-0.26722167,-0.15024348,-0.04304503,0.15749008,0.01372814,0.99201944,0.09149128,-0.07312018,0.04669282
1761615115789,-0.04307199,-0.05456882,0.06376344,-0.06023839,0.14095627,0.02021307,0.99210525,0.09114491,-0.07230968,0.04680905
1761615115800,0.08145544,-0.33259009,-0.00041879,-0.08078418,0.15317743,0.03599477,0.99219682,0.09070463,-0.07147486,0.04700522
1761615115812,0.05980622,-0.17331771,0.13019761,-0.11862879,0.13572496,0.04412493,0.99230279,0.09002252,-0.07069445,0.04725894
1761615115823,0.04041745,-0.48478076,0.01818061,-0.12945690,0.15992088,0.03670740,0.99241659,0.08932992,-0.06983887,0.04745532
1761615115834,0.17478951,-0.09138037,0.06963159,-0.15602858,0.13857025,0.06428781,0.99253187,0.08845616,-0.06906288,0.04781533
1761615115845,0.46911351,0.17088771,0.58632278,-0.14866687,0.16352099,0.06552536,0.99265021,0.08763106,-0.06815533,0.04817900
1761615115856,0.22691463,0.26422575,0.07654002,-0.10346876,0.15760384,0.06035494,0.99274493,0.08705164,-0.06727275,0.04851698
1761615115867,0.31285752,0.49483942,0.24012005,-0.06609885,0.15422256,0.05914249,0.99281856,0.08668479,-0.06641682,0.04884523
1761615115878,-0.30298573,0.38523570,-0.29205186,-0.01518219,0.14025829,0.03541655,0.99286888,0.08659901,-0.06562436,0.04904533
1761615115890,0.10462309,0.09986710,-0.02863185,0.00906115,0.16301777,0.04002659,0.99291249,0.08664885,-0.06472776,0.04926548
1761615115901,-0.00829378,0.58397295,0.33188950,0.02648773,0.18967447,0.02010559,0.99296261,0.08679718,-0.06366558,0.04937807
1761615115912,-0.04881309,-0.51404405,-0.15544167,0.09013757,0.21889670,-0.01009386,0.99299933,0.08730645,-0.06242882,0.04932104
1761615115923,0.02337031,1.22632215,0.39743740,0.12690211,0.23365002,-0.04249071,0.99302899,0.08799807,-0.06115542,0.04908946
1761615115934,-0.02671384,0.33963587,0.20338788,0.15875377,0.22904821,-0.08024638,0.99305009,0.08888709,-0.05987275,0.04864008
1761615115945,-0.21287373,0.22308977,0.57399881,0.16746047,0.22496364,-0.10823209,0.99307037,0.08982487,-0.05861296,0.04803398
1761615115956,-0.12164213,0.23425614,0.37633035,0.19382864,0.23965828,-0.08778622,0.99307355,0.09091031,-0.05727087,0.04754238
1761615115967,-0.14848383,0.43337397,0.09753487,0.23737885,0.25357215,-0.07762729,0.99305298,0.09221589,-0.05587622,0.04711543
1761615115979,-0.30890573,0.76900111,-0.10488018,0.25537886,0.27518563,-0.08012002,0.99302611,0.09363325,-0.05434894,0.04667076
1761615115990,0.03660321,-0.61238668,-0.39476288,0.23646557,0.24912294,-0.10721520,0.99300356,0.09496928,-0.05294140,0.04606500
1761615116001,-0.04500296,0.04338684,0.10774681,0.23565935,0.24313891,-0.09990515,0.99297420,0.09627719,-0.05159198,0.04551052
1761615116012,-0.09820055,0.28984650,0.11495784,0.23666546,0.22954031,-0.09175603,0.99293493,0.09757885,-0.05032951,0.04500587
1761615116023,-0.32325756,-0.00735197,-0.22521431,0.27818845,0.21535957,-0.08428609,0.99286163,0.09915061,-0.04911273,0.04452965
1761615116034,-0.24294786,0.38968752,-0.08019769,0.29747067,0.22461926,-0.07352612,0.99277367,0.10081645,-0.04785486,0.04411790
1761615116046,-0.17991729,-0.35607128,0.19655931,0.32169759,0.23856246,-0.04571985,0.99266193,0.10265012,-0.04649505,0.04385730
1761615116057,-0.24279894,-0.14736999,0.10276180,0.31015399,0.27051363,-0.02030031,0.99255658,0.10437148,-0.04499370,0.04374463
1761615116068,-0.44328372,-0.06099709,-0.34229635,0.30231810,0.27340941,-0.01121036,0.99245206,0.10600400,-0.04351729,0.04368410
1761615116079,-0.39816705,-0.16085683,-0.55288006,0.27438032,0.27744288,0.00377929,0.99235455,0.10751309,-0.04199135,0.04370488
1761615116090,-0.18808770,-0.34362024,-0.21042884,0.25254686,0.28523226,0.02035836,0.99226244,0.10891472,-0.04040832,0.04381787
1761615116101,-0.05418164,-0.30356233,-0.26316798,0.21212949,0.30202908,0.04285898,0.99218882,0.11009204,-0.03873205,0.04405574
1761615116112,-0.25862652,-0.31254057,-0.24431165,0.19366535,0.31997602,0.04017505,0.99212621,0.11117657,-0.03694019,0.04428072
1761615116123,-0.03520944,-0.48657419,-0.39470581,0.16671455,0.30671573,0.07773299,0.99206352,0.11211850,-0.03520724,0.04471991
1761615116135,-0.14439305,-0.15320356,0.09877361,0.13072297,0.32777243,0.07221015,0.99202600,0.11284402,-0.03338811,0.04512068
1761615116146,0.04178024,-0.38573946,-0.20143554,0.13299607,0.32450949,0.08537777,0.99197864,0.11358879,-0.03157085,0.04559879
1761615116157,0.33451586,-0.23140515,-0.32691323,0.11476984,0.32782052,0.12696279,0.99192862,0.11423151,-0.02973506,0.04630978
1761615116168,0.15205267,-0.11902873,-0.68423699,0.08043329,0.32719185,0.13399804,0.99189457,0.11468193,-0.02790278,0.04706017
1761615116179,0.20995387,-0.52876990,-0.37484851,0.05149117,0.34220075,0.17074203,0.99186768,0.11496771,-0.02600357,0.04800779
1761615116190,0.17028516,-0.29751527,-0.14706446,-0.02207417,0.33816247,0.18301768,0.99187962,0.11484520,-0.02412677,0.04902354
1761615116201,0.15534029,-0.13189670,-0.01493130,-0.07521049,0.31463288,0.14007985,0.99193050,0.11442402,-0.02236482,0.04980799
1761615116213,0.31931060,-0.11166368,-0.17486057,-0.10819477,0.29051417,0.11125696,0.99200407,0.11381813,-0.02073795,0.05043103
1761615116224,0.27369480,0.01045362,0.12164213,-0.08912333,0.26435719,0.08180150,0.99206766,0.11331904,-0.01925755,0.05088911
1761615116235,-0.18258228,0.18662294,0.04567891,-0.09198969,0.23609210,0.06409302,0.99213324,0.11279929,-0.01792362,0.05125124
1761615116246,-0.08090817,-0.06122720,0.15052187,-0.09217093,0.26156594,0.05659652,0.99219897,0.11229696,-0.01649809,0.05155969
1761615116258,0.15990224,0.03347974,0.36661079,-0.08643680,0.23824752,0.00282877,0.99227609,0.11179995,-0.01512817,0.05157596
1761615116268,0.43850758,-0.30475381,-0.43800055,-0.09306065,0.22711072,-0.00247853,0.99235052,0.11130208,-0.01391312,0.05156270
1761615116280,0.39632805,0.31472674,0.29229019,-0.11345262,0.20245528,-0.01641802,0.99244240,0.11066107,-0.01276925,0.05146993
1761615116291,0.16706577,-0.00289189,-0.12141209,-0.09767411,0.19237269,-0.00267163,0.99251663,0.11011898,-0.01170158,0.05145511
1761615116302,0.14706446,0.30017598,0.31347951,-0.11623546,0.18504823,0.01216205,0.99259606,0.10947387,-0.01067457,0.05152261
1761615116313,0.23531069,-0.00221011,0.14256762,-0.09814634,0.18464313,-0.00050017,0.99266536,0.10893897,-0.00966826,0.05151988
1761615116324,0.26430416,0.25977497,0.19670138,-0.07501133,0.15353293,-0.00938879,0.99272160,0.10852266,-0.00881615,0.05146777
1761615116335,0.22056123,0.02511845,0.73906178,-0.06458051,0.11773778,0.00504839,0.99276563,0.10815778,-0.00815094,0.05149630
1761615116346,0.23240275,-0.01861419,0.17887061,-0.04460876,0.10871888,0.00693034,0.99279508,0.10791243,-0.00755298,0.05153441
1761615116357,-0.05722709,0.21360808,0.42415782,-0.04514951,0.10572899,-0.03141568,0.99283597,0.10765960,-0.00696090,0.05135849
1761615116369,-0.01520527,0.52695752,-0.10263555,-0.02148294,0.08703867,-0.04924969,0.99286653,0.10753929,-0.00647348,0.05108269
1761615116380,0.05169371,0.13818392,0.00373190,0.04327147,0.07067192,-0.05325263,0.99285813,0.10777945,-0.00608125,0.05078713
1761615116391,0.05520471,0.09255435,0.30420807,0.06576595,0.05551740,-0.05062210,0.99283440,0.10814774,-0.00577036,0.05050365
1761615116402,0.05266124,-0.21408746,-0.18310493,0.05508275,0.04452631,-0.02820507,0.99281041,0.10845345,-0.00552323,0.05034711
1761615116413,0.17588795,0.47066550,0.86570706,0.04682029,0.03261225,-0.02191999,0.99278895,0.10871564,-0.00534061,0.05022436
1761615116424,0.20527110,-0.02138241,0.23948295,0.05032118,0.01684374,0.00401298,0.99275742,0.10899744,-0.00524628,0.05024683
1761615116435,0.19592469,-0.07260789,0.20456335,0.05148272,-0.01658747,-0.00631774,0.99272729,0.10928317,-0.00533834,0.05021177
1761615116446,-0.00774023,-0.35435762,0.44893361,0.02802739,-0.05211901,-0.01017375,0.99271141,0.10943872,-0.00562760,0.05015531
1761615116458,0.07421569,-0.32438245,0.29218643,0.01595438,-0.08276091,-0.02155356,0.99270485,0.10952886,-0.00609520,0.05003353
1761615116469,0.14891390,-0.11773890,0.18631361,0.00310648,-0.11046183,-0.01693288,0.99270373,0.10954610,-0.00670826,0.04993955
1761615116480,0.23994728,0.15166022,-0.00387012,0.00306773,-0.13629070,-0.00912254,0.99269900,0.10956313,-0.00746468,0.04988892
1761615116491,0.19350587,0.12118305,-0.04644141,0.00245690,-0.14009769,0.00204000,0.99269077,0.10957677,-0.00824222,0.04990024
1761615116502,0.05856082,0.12226070,0.29503012,0.00304989,-0.17066624,0.00422044,0.99267930,0.10959384,-0.00919795,0.04992388
1761615116513,-0.00490676,0.03289384,-0.23963628,0.00833248,-0.17139826,0.01636707,0.99266035,0.10964009,-0.01014921,0.05001471
1761615116525,-0.01548047,0.06095435,0.15093458,-0.00473064,-0.19369350,0.03582667,0.99264164,0.10961383,-0.01122421,0.05021355
1761615116536,-0.06966211,-0.21866163,0.64243948,-0.00750128,-0.19196458,0.03975940,0.99262243,0.10957220,-0.01228961,0.05043422
1761615116547,-0.05520471,-0.11340809,-0.03561594,-0.00650888,-0.19010702,0.03882401,0.99260163,0.10953575,-0.01335421,0.05065163
1761615116558,-0.24504394,-0.01081486,0.12265301,-0.02873677,-0.19482863,0.03210954,0.99259477,0.10937195,-0.01446474,0.05083466
1761615116569,-0.10550290,0.22060287,-0.31401977,-0.03216299,-0.19904166,0.02544464,0.99259052,0.10919506,-0.01555947,0.05097460
1761615116580,-0.16859638,-0.03986441,-0.01878766,-0.01025144,-0.17899127,0.02279246,0.99257420,0.10913816,-0.01655287,0.05110110
1761615116592,-0.18052647,0.02248801,-0.08821103,-0.01356988,-0.16669248,0.03820538,0.99255534,0.10906149,-0.01749468,0.05131696
1761615116603,0.30090167,-0.04999045,0.07387576,-0.00844409,-0.15510862,0.04640433,0.99253202,0.10901547,-0.01834002,0.05156986
1761615116614,-0.76077642,0.12034021,0.12292470,-0.02009520,-0.13929030,0.03427873,0.99251955,0.10890193,-0.01912701,0.05176354
1761615116625,-0.16542183,-0.20830350,0.12432324,-0.00703148,-0.12007949,0.05216357,0.99249563,0.10886291,-0.01979345,0.05205305
