UnixTime(ms),Ax,Ay,Az,Gx,Gy,Gz,QuatW,QuatX,QuatY,QuatZ
1756341641407,0.00000000,0.00000000,0.00000000,0.00000000,0.00000000,0.00000000,0.98627168,0.16048417,-0.01843938,0.03424907
1756341641450,0.03710945,-0.03114662,-0.04696978,-0.01649285,-0.01063433,-0.00249780,0.98632598,0.16013534,-0.01866430,0.03419624
1756341641457,5.02624014,-5.44555446,-7.98009518,-0.45950683,-0.23763475,-0.12699870,0.98659598,0.15845814,-0.01953167,0.03373270
1756341641468,-2.92449658,2.88510290,4.31063478,-0.09689104,-0.02973807,-0.03075179,0.98668474,0.15792040,-0.01969671,0.03356203
1756341641502,-0.01387551,0.05997742,0.04411309,-0.07602464,-0.02157341,-0.02538781,0.98689792,0.15662798,-0.02006346,0.03313043
1756341641535,-0.00801908,0.09592717,-0.01946401,-0.04643405,-0.01498467,-0.02153344,0.98702524,0.15586646,-0.02030921,0.03277728
1756341641547,-0.05726582,-0.04026366,0.20234876,-0.04548756,-0.02554421,-0.02896719,0.98707279,0.15558216,-0.02046886,0.03259624
1756341641559,0.08426226,-0.06769465,0.09958595,-0.05554212,-0.01340350,0.00090933,0.98712131,0.15526280,-0.02054593,0.03260147
1756341641571,-0.02344219,-0.06705253,-0.00213391,-0.06559856,-0.02470473,-0.01441038,0.98718084,0.15488233,-0.02068922,0.03251789
1756341641582,0.18679826,-0.03670070,-0.26105443,-0.06518276,-0.02064932,0.01835854,0.98723359,0.15450752,-0.02080795,0.03262345
1756341641594,-0.04399738,0.11413715,0.05124785,-0.06597358,-0.02091382,0.00299447,0.98728929,0.15413148,-0.02092716,0.03264052
1756341641605,0.03966431,0.10117741,-0.05290647,-0.03360619,-0.02509577,0.01086395,0.98731452,0.15393656,-0.02107272,0.03270353
1756341641616,0.09942665,0.22431157,0.04997891,-0.03199451,-0.01539164,-0.02649056,0.98734577,0.15375579,-0.02115968,0.03255386
1756341641628,-0.04856291,0.19365296,-0.07917803,-0.02627248,-0.05567777,-0.05745879,0.98737297,0.15360604,-0.02147704,0.03222634
1756341641639,-0.02849477,0.16756392,0.14616316,-0.01276771,-0.03323655,-0.03629764,0.98738676,0.15353390,-0.02166483,0.03202126
1756341641650,-0.25206757,0.05974935,0.12510020,-0.03700151,-0.04335815,-0.04273969,0.98742164,0.15332484,-0.02190980,0.03177978
1756341641662,-0.01026942,-0.17831447,0.10642853,-0.05335858,-0.03047761,-0.02735336,0.98746953,0.15302337,-0.02208200,0.03162523
1756341641673,0.09951965,-0.29773897,-0.00936873,-0.07005094,-0.04484193,-0.02660512,0.98752936,0.15263108,-0.02233312,0.03147625
1756341641685,0.10620118,-0.24045909,0.10196946,-0.06883213,-0.03363045,-0.01930022,0.98759377,0.15220776,-0.02253994,0.03135755
1756341641697,0.01721572,-0.06463445,0.06966829,-0.08080069,-0.04166096,-0.02126361,0.98766303,0.15174720,-0.02277741,0.03123635
1756341641708,0.05033572,-0.07440416,-0.03288835,-0.06263734,-0.03270306,-0.03386570,0.98771910,0.15139330,-0.02296218,0.03104501
1756341641719,-0.07777909,0.04827441,0.00818433,-0.05508521,-0.05023892,-0.02407772,0.98776518,0.15107656,-0.02325106,0.03090656
1756341641730,0.04799641,0.00351245,0.01841897,-0.04950104,-0.04002191,-0.00240776,0.98780199,0.15080430,-0.02347118,0.03089332
1756341641742,0.06160725,-0.10780620,0.41204544,-0.02586701,-0.03187249,0.00384033,0.98781916,0.15065945,-0.02364966,0.03091482
1756341641753,-0.00528892,-0.00637879,0.13856214,-0.03718874,-0.03548337,0.00572592,0.98784535,0.15044933,-0.02385014,0.03094717
1756341641764,-0.00131616,-0.05794905,0.05311751,-0.02975233,-0.03823203,-0.00986549,0.98786725,0.15028272,-0.02406424,0.03089193
1756341641775,-0.12519570,0.11584004,-0.36437846,-0.05087298,-0.04230326,-0.02589371,0.98790890,0.15000037,-0.02429903,0.03074822
1756341641786,-0.00735092,-0.01107474,-0.02053884,-0.01980240,-0.02694324,-0.03256782,0.98792783,0.14988849,-0.02445126,0.03056421
1756341641798,0.02847430,-0.03244203,0.04294485,-0.04986786,-0.03622690,0.00200366,0.98796510,0.14960673,-0.02465594,0.03057553
1756341641809,-0.05722883,0.12653073,0.04299137,-0.05625672,-0.03306419,-0.03925118,0.98801401,0.14929732,-0.02483779,0.03035965
1756341641820,-0.03384323,0.05155356,0.05494403,-0.04262040,-0.02109523,-0.00980646,0.98804969,0.14905226,-0.02495909,0.03030326
1756341641831,-0.03483163,0.06882862,0.02795620,-0.04883099,-0.01753008,-0.01756483,0.98809143,0.14877880,-0.02505726,0.03020490
1756341641843,-0.18333530,0.22059700,-0.28885734,-0.03722575,-0.03724208,-0.05401467,0.98812605,0.14857406,-0.02526209,0.02990782
1756341641854,0.01957928,0.19303090,-0.01425786,-0.03759549,-0.03000657,-0.03915828,0.98815969,0.14836541,-0.02542863,0.02969049
1756341641865,0.02998674,0.21022394,0.06404876,-0.00843091,-0.01562473,-0.01656580,0.98816730,0.14831819,-0.02551612,0.02959772
1756341641876,0.02375823,-0.00855296,0.30410533,-0.00018581,-0.01261285,-0.02697234,0.98817014,0.14831715,-0.02558676,0.02944667
1756341641887,-0.08267864,-0.01140395,0.04371514,0.00345578,-0.00472566,-0.01995241,0.98816988,0.14833650,-0.02561322,0.02933494
1756341641898,-0.02353601,-0.06958868,0.08366537,-0.00625129,-0.01801011,0.00116977,0.98817230,0.14830181,-0.02571318,0.02934143
1756341641909,0.01571883,-0.09095577,0.07216817,-0.01970669,-0.00700640,-0.00566567,0.98818848,0.14819342,-0.02575171,0.02931027
1756341641920,-0.02670381,-0.05862128,0.00588434,-0.01285126,-0.01054651,-0.00337263,0.98819820,0.14812210,-0.02581024,0.02929155
1756341641932,-0.04309871,-0.03140153,0.06274741,-0.00838590,-0.01257527,0.00188832,0.98820308,0.14807514,-0.02588067,0.02930213
1756341641943,0.03142087,0.02634972,0.35676582,0.00609121,-0.01056641,0.01156344,0.98819465,0.14810864,-0.02593878,0.02936573
1756341641954,-0.01646095,0.10827201,0.07024672,0.00711395,-0.00816177,0.00279344,0.98818688,0.14814919,-0.02598530,0.02938165
1756341641966,-0.00593022,-0.00115046,-0.05095245,0.02731647,-0.01154764,0.01113234,0.98815966,0.14830626,-0.02605170,0.02944566
1756341641976,0.01736121,-0.00377782,-0.29333434,0.03573624,-0.01815408,0.01503246,0.98812598,0.14849745,-0.02614883,0.02952608
1756341641987,0.01769584,0.00200740,-0.02961363,0.03297463,-0.00606813,0.01124061,0.98809570,0.14868046,-0.02618250,0.02958847
1756341641999,-0.01837033,0.10135908,0.02166756,0.03702128,-0.00721549,-0.00373161,0.98806347,0.14889148,-0.02622363,0.02956720
1756341642010,0.01086974,0.04549889,0.00769243,0.04169876,-0.00716898,0.01156278,0.98802628,0.14911874,-0.02626270,0.02963022
1756341642021,-0.04860364,0.05298041,-0.03794010,0.03619342,-0.00313934,0.01308905,0.98799181,0.14932866,-0.02628091,0.02970613
1756341642032,0.01524131,0.03212972,0.03676584,0.03279725,-0.00316369,0.00552624,0.98796393,0.14950412,-0.02629784,0.02973570
1756341642043,-0.26338047,-0.01476160,-0.20459176,0.03111326,-0.00334551,-0.00302506,0.98793780,0.14967680,-0.02631640,0.02971891
1756341642054,-0.05034604,0.02157076,-0.04320145,0.02512147,-0.00816947,-0.00021638,0.98791529,0.14981748,-0.02636215,0.02971770
1756341642065,-0.00531709,0.00677702,-0.02607146,0.02997264,-0.00943444,-0.00820333,0.98789002,0.14998383,-0.02641451,0.02967217
1756341642076,0.24962257,-0.01596423,0.13158399,0.03178956,-0.00749043,0.00469676,0.98786132,0.15016026,-0.02645609,0.02969824
1756341642090,0.01539497,-0.03661063,0.02862132,0.01032913,-0.01100344,-0.01337133,0.98785129,0.15023102,-0.02653146,0.02960664
1756341642101,0.03131052,-0.13042048,-0.05467600,0.01864768,-0.00620718,-0.00098837,0.98783478,0.15033451,-0.02656591,0.02960116
1756341642112,0.00023972,-0.00668441,0.02864686,0.00838170,-0.01269788,-0.01249240,0.98782782,0.15038145,-0.02663702,0.02953120
1756341642124,0.04571576,-0.09702289,0.00979623,0.00971251,-0.00714692,-0.00525597,0.98781941,0.15043535,-0.02667668,0.02950203
1756341642135,-0.02880232,-0.09301773,0.04347472,-0.00082419,-0.01600960,-0.00263525,0.98781812,0.15043070,-0.02676714,0.02948714
1756341642146,0.00174669,-0.11864650,0.26438381,0.00386040,-0.01537898,-0.00789637,0.98781385,0.15045212,-0.02685249,0.02944332
1756341642157,0.00241882,-0.02322070,0.00870776,0.00335803,-0.01849827,-0.01221496,0.98781023,0.15047076,-0.02695516,0.02937552
1756341642168,0.01935059,0.02225317,-0.10255811,-0.00705123,-0.02341265,-0.02073436,0.98781605,0.15043162,-0.02708510,0.02926045
1756341642179,0.05775407,0.06213865,-0.23919076,-0.00903104,-0.02333233,-0.00545808,0.98782098,0.15038195,-0.02721342,0.02923043
1756341642191,0.02419943,-0.05327710,-0.05140085,0.00254260,-0.02110243,-0.01226373,0.98781751,0.15039645,-0.02733371,0.02916052
1756341642201,-0.03067291,0.03956234,0.02567371,-0.00848989,-0.02640097,-0.00519565,0.98782140,0.15035018,-0.02747759,0.02913221
1756341642212,0.05014129,-0.01896285,0.01305165,-0.01299076,-0.02197251,-0.00731301,0.98783009,0.15027873,-0.02759844,0.02909199
1756341642224,-0.02721397,0.02552066,-0.03111896,0.00238476,-0.02635920,-0.01776486,0.98782685,0.15029208,-0.02774605,0.02899250
1756341642235,-0.00589325,0.03098331,-0.03975232,-0.00373160,-0.02672669,-0.01048931,0.98782754,0.15027100,-0.02789706,0.02893324
1756341642246,-0.33273193,0.08504113,-0.41022713,0.01245177,-0.03101117,-0.01712364,0.98781504,0.15033948,-0.02806762,0.02883906
1756341642257,0.02608517,0.01640985,0.00723103,0.00065620,-0.02748661,0.00142738,0.98780982,0.15034319,-0.02822292,0.02884712
1756341642268,0.03635629,0.02476880,0.09024919,-0.00575879,-0.02774010,-0.02280629,0.98781388,0.15031181,-0.02837410,0.02872283
1756341642279,0.27531210,-0.07965546,0.31176899,-0.00364920,-0.02030315,-0.02593037,0.98781793,0.15029137,-0.02848780,0.02857762
1756341642290,-0.03642489,0.00631270,-0.00653946,-0.00528913,-0.03356710,-0.00320588,0.98781752,0.15026202,-0.02867410,0.02855983
1756341642302,0.02902588,-0.10908893,-0.04837647,0.01000705,-0.02074304,0.00243274,0.98780533,0.15031755,-0.02878922,0.02857333
1756341642313,-0.01696143,-0.02628755,-0.00519227,-0.00116439,-0.02560845,0.02680054,0.98779792,0.15031115,-0.02893007,0.02872073
1756341642324,0.03064380,0.00223327,0.02056167,-0.01833935,-0.01020192,0.02148489,0.98780836,0.15020845,-0.02898720,0.02884105
1756341642335,-0.02040018,0.14280344,0.00181412,0.02038901,-0.01638321,0.01076977,0.98778673,0.15032161,-0.02907813,0.02890082
1756341642346,-0.07977514,0.16771703,0.15330957,0.01927850,-0.02954426,0.00087995,0.98776507,0.15043053,-0.02924505,0.02890579
1756341642357,0.06524829,0.11298902,-0.02448791,0.02597648,-0.01788624,-0.02857449,0.98774479,0.15057470,-0.02934432,0.02874720
1756341642368,-0.00485056,0.08725683,-0.07081907,0.02113159,-0.03408282,-0.02079679,0.98772480,0.15069093,-0.02953178,0.02863282
1756341642379,0.10049048,0.03595983,-0.17438053,0.01980024,-0.01967023,0.00113044,0.98770476,0.15079983,-0.02963996,0.02863904
1756341642391,-0.06056836,-0.08109447,0.00600888,0.00333213,-0.01669954,-0.01232540,0.98770107,0.15081865,-0.02973432,0.02856940
1756341642402,-0.06504708,-0.09639332,0.03465981,-0.02042644,-0.00434958,-0.00435619,0.98771834,0.15070529,-0.02975846,0.02854522
1756341642413,-0.04479781,-0.07211159,-0.01165189,0.00965768,-0.01076503,-0.00373744,0.98770871,0.15076034,-0.02981982,0.02852392
1756341642424,-0.02181870,-0.07877042,-0.03951833,-0.00197491,-0.00423834,0.00760680,0.98770845,0.15074957,-0.02984291,0.02856537
1756341642448,-0.03307857,-0.03245673,0.01391762,0.00122466,0.00024333,0.00107387,0.98770592,0.15076427,-0.02983999,0.02857826
1756341642455,-0.39184013,0.15455143,-1.24411081,0.01287405,-0.01104816,-0.03511411,0.98770149,0.15080868,-0.02987811,0.02845712
1756341642465,0.05651795,-0.22737952,0.37955952,0.00804813,0.00241894,0.00041519,0.98769553,0.15084973,-0.02986577,0.02845924
1756341642476,0.17026174,-0.02953168,0.19637122,0.00184071,0.00539072,0.00119043,0.98769466,0.15086031,-0.02983478,0.02846608
1756341642488,0.20853689,-0.13631730,0.13390646,0.00407067,0.00395267,0.00332145,0.98769125,0.15088352,-0.02981225,0.02848501
1756341642499,0.01926281,-0.04769839,-0.03577379,-0.00267588,-0.01025328,-0.00572301,0.98769275,0.15086826,-0.02987069,0.02845239
1756341642511,0.06283346,0.00550366,0.06054027,-0.01352630,-0.00783221,-0.02157013,0.98770671,0.15079116,-0.02991533,0.02832944
1756341642522,0.05090886,-0.03623243,-0.09998317,-0.00300035,-0.03210247,-0.04420648,0.98771095,0.15077406,-0.03009832,0.02807746
1756341642534,0.10877378,0.02421124,0.05839296,-0.03006695,-0.02423237,-0.01363906,0.98773551,0.15059967,-0.03023887,0.02799836
1756341642545,0.02059593,0.19128651,0.35489879,-0.02878316,-0.02844526,-0.03690631,0.98776102,0.15043849,-0.03039816,0.02779168
1756341642556,0.04292116,0.03663869,-0.08567818,-0.01367249,-0.03559611,-0.00732123,0.98776762,0.15036261,-0.03059572,0.02775105
1756341642567,0.04572457,0.10206970,-0.00867980,-0.02484228,-0.03327876,-0.02503361,0.98778710,0.15022225,-0.03078374,0.02760961
1756341642579,0.06448943,-0.07514973,-0.31422818,-0.01768285,-0.02919579,-0.05768059,0.98780635,0.15012145,-0.03095016,0.02728083
1756341642590,0.03476740,0.02116470,-0.01772106,-0.02718316,-0.06054466,-0.03950728,0.98782472,0.14997059,-0.03128618,0.02706157
1756341642601,0.04595764,0.02684894,0.05708423,-0.03121437,-0.04668498,-0.02835043,0.98784706,0.14979735,-0.03154528,0.02690422
1756341642612,-0.03836070,0.01961082,-0.02568622,-0.01666334,-0.05366019,-0.04457839,0.98785813,0.14970570,-0.03184042,0.02665904
1756341642623,-0.00745877,0.00015832,0.04287035,-0.02485391,-0.03761003,-0.02657505,0.98787624,0.14956776,-0.03204915,0.02651155
1756341642634,-0.05708423,0.00653082,-0.01935059,-0.01292247,-0.04690569,-0.01618339,0.98788103,0.14949604,-0.03230948,0.02642173
1756341642645,-0.22192796,0.00275659,-0.24723144,-0.01965571,-0.03925949,-0.01408592,0.98789267,0.14938499,-0.03253129,0.02634214
1756341642657,0.00532997,-0.07029143,-0.03470262,-0.00961446,-0.04583655,-0.01922986,0.98789517,0.14933163,-0.03278569,0.02623542
1756341642668,0.03558597,-0.01973859,0.04823563,-0.00738222,-0.04862549,-0.02128154,0.98789550,0.14929028,-0.03305799,0.02611624
1756341642679,0.22902933,0.01520527,0.32311191,-0.01116760,-0.04735915,-0.01523240,0.98789829,0.14922775,-0.03332320,0.02603094
1756341642690,0.02132452,-0.02396795,-0.03412269,0.00556251,-0.05170018,-0.01049804,0.98788544,0.14925862,-0.03361014,0.02597268
1756341642701,-0.01958423,0.01072780,0.01883147,0.00154585,-0.04673962,-0.00973185,0.98787655,0.14926735,-0.03387422,0.02591769
1756341642712,0.07266745,0.00842949,0.00114734,-0.00180756,-0.04689421,-0.00339718,0.98786960,0.14925732,-0.03413448,0.02589884
1756341642724,-0.04139101,0.04282634,-0.01659863,-0.00044019,-0.04211207,0.00268875,0.98786118,0.14925479,-0.03437662,0.02591430
1756341642735,0.03660522,0.01839858,0.02273703,0.00401750,-0.04767303,-0.01088928,0.98785035,0.14927668,-0.03463644,0.02585495
1756341642746,0.09922578,0.13430741,0.10616848,0.00226330,-0.04906388,-0.01052896,0.98784012,0.14928959,-0.03491610,0.02579494
1756341642757,0.11484475,0.06622480,0.09648640,-0.01631141,-0.05165528,-0.01663376,0.98784582,0.14920232,-0.03519246,0.02570595
1756341642768,0.00548306,-0.07407190,-0.06462733,-0.00694152,-0.05343346,-0.00001447,0.98784107,0.14916414,-0.03548634,0.02570587
1756341642779,-0.16240261,-0.13772429,-0.15573303,-0.00340557,-0.05719861,0.00239243,0.98783205,0.14914507,-0.03580666,0.02571926
1756341642790,-0.03373669,0.00784022,-0.02470856,-0.02141802,-0.05330352,0.00377248,0.98783873,0.14902513,-0.03610516,0.02574039
1756341642801,0.00227629,0.06892783,-0.04717569,-0.00458647,-0.05936889,-0.01452559,0.98783257,0.14899967,-0.03643465,0.02565977
1756341642813,-0.04644141,0.12843952,-0.02515576,0.00623030,-0.05960361,-0.04022445,0.98782087,0.14903425,-0.03676545,0.02543653
1756341642824,0.02298214,-0.02768790,-0.04960609,0.00672931,-0.05744763,-0.00486901,0.98780371,0.14907227,-0.03709003,0.02540902
1756341642835,-0.08205209,0.05375667,-0.03316901,-0.00249220,-0.05247366,-0.02272075,0.98779800,0.14905832,-0.03738389,0.02528178
1756341642846,-0.09824738,0.04964708,-0.04968227,-0.01495725,-0.04399386,-0.01967955,0.98780399,0.14897605,-0.03762585,0.02517354
1756341642857,-0.06190429,-0.08783187,-0.04675805,0.00724155,-0.03584344,-0.01642477,0.98779265,0.14901624,-0.03782478,0.02508239
1756341642868,-0.05788018,-0.00827899,0.04381788,-0.01203915,-0.04009979,-0.02601204,0.98779788,0.14894882,-0.03804934,0.02493672
1756341642879,0.06710939,-0.13701770,0.04092995,-0.00410915,-0.02926573,-0.02753938,0.98779890,0.14892602,-0.03821177,0.02478387
1756341642891,-0.01519242,-0.10986576,-0.03581285,0.00119266,-0.03296365,-0.01044934,0.98779220,0.14893270,-0.03839636,0.02472536
1756341642902,-0.02288812,-0.01927716,0.05742114,-0.02574481,-0.02466288,-0.02131237,0.98781135,0.14878981,-0.03853324,0.02460707
1756341642913,-0.00915227,-0.13152213,-0.02364693,-0.01822823,-0.02943027,-0.02357614,0.98782356,0.14868773,-0.03869805,0.02447505
1756341642924,0.03309219,-0.10066640,0.00031667,-0.02693297,-0.02134320,-0.01668160,0.98784351,0.14853960,-0.03881544,0.02438330
1756341642935,-0.01206918,-0.04962014,0.06146038,-0.02220869,-0.03155376,-0.01804004,0.98785773,0.14841523,-0.03899214,0.02428227
1756341642946,0.00046621,-0.05637195,0.17584074,-0.02838068,-0.02973710,-0.02954642,0.98787868,0.14825914,-0.03915569,0.02411977
1756341642958,-0.03221059,0.06936942,0.02679199,-0.03757193,-0.02595751,-0.02016519,0.98790925,0.14803371,-0.03931144,0.02399878
1756341642969,0.06081064,-0.02751809,-0.11998603,-0.02613163,-0.03313593,-0.01080876,0.98792467,0.14789260,-0.03949037,0.02394041
1756341642980,-0.01028075,0.04739910,-0.15082694,-0.03426654,-0.02867004,0.00159116,0.98794633,0.14770413,-0.03964806,0.02394916
1756341642991,-0.04631827,-0.02528330,-0.01321117,-0.03716047,-0.03897886,-0.00405713,0.98796899,0.14749789,-0.03986439,0.02392665
1756341643002,0.03442433,0.06196558,0.06357651,-0.05100999,-0.03068577,-0.01028100,0.98800537,0.14721734,-0.04003316,0.02387010
1756341643013,0.07389006,0.09211627,-0.02265962,-0.02629032,-0.03306454,-0.00363576,0.98802001,0.14707274,-0.04021502,0.02385010
1756341643024,-0.01106942,0.09644508,-0.00087957,-0.00993238,-0.03823799,-0.02020801,0.98802225,0.14701762,-0.04042724,0.02373795
1756341643035,-0.00804137,0.15242653,-0.00797924,-0.01465540,-0.05301540,-0.03180463,0.98802646,0.14693701,-0.04071882,0.02356302
1756341643046,-0.07862495,0.14912266,-0.08110535,-0.01198430,-0.04918220,-0.03514441,0.98802969,0.14687050,-0.04099178,0.02336797
1756341643057,-0.03040034,0.04479099,0.02787294,0.00042609,-0.04092115,-0.05441976,0.98802694,0.14687291,-0.04122299,0.02306050
1756341643069,-0.03874886,-0.03869609,0.05105903,-0.02404129,-0.05253107,-0.01321010,0.98803651,0.14673587,-0.04152242,0.02298520
1756341643080,0.04418924,-0.12607247,0.10521504,-0.02717234,-0.04410750,-0.01133796,0.98804968,0.14658914,-0.04176060,0.02292398
1756341643091,-0.01869213,-0.12071944,0.04805396,-0.03320516,-0.03562285,-0.00038948,0.98806868,0.14640485,-0.04195830,0.02292182
1756341643102,-0.06553589,-0.09485125,0.02291906,-0.02689461,-0.02813590,-0.01457523,0.98808632,0.14625290,-0.04211727,0.02283947
1756341643113,-0.01552328,0.00609629,0.04149245,-0.03712269,-0.04753833,-0.00135743,0.98810569,0.14604687,-0.04238111,0.02283193
1756341643124,-0.02475570,-0.03815627,-0.03591966,-0.01184170,-0.03809652,-0.02279378,0.98810907,0.14598410,-0.04258302,0.02271113
1756341643136,-0.06291408,0.01737572,0.06217469,-0.02270343,-0.03673577,0.00228482,0.98811909,0.14585129,-0.04279792,0.02272449
1756341643147,-0.09581021,-0.11757342,0.17291486,-0.01284290,-0.03472692,0.01735005,0.98811902,0.14578001,-0.04299066,0.02282078
1756341643158,-0.05760884,0.00430626,0.07425774,0.00120684,-0.02815100,0.01097262,0.98810965,0.14578683,-0.04314971,0.02288278
1756341643169,-0.00901162,-0.02951122,-0.01707417,-0.00039780,-0.02876079,0.02239012,0.98810045,0.14578470,-0.04330358,0.02300257
1756341643179,0.10129674,0.10871601,-0.17794355,-0.01652004,-0.02813245,0.01505800,0.98810496,0.14569715,-0.04345268,0.02308237
1756341643191,0.02443117,-0.08579183,-0.03811364,0.00131744,-0.01488073,0.03171566,0.98809580,0.14570472,-0.04353825,0.02326474
1756341643202,-0.08009000,0.05558837,0.01503296,-0.01965146,-0.03843561,0.03242170,0.98809816,0.14559762,-0.04374772,0.02344144
1756341643213,0.02518534,0.00983261,-0.01014951,-0.00694144,-0.02340492,0.01398909,0.98809619,0.14555840,-0.04387996,0.02352048
1756341643224,-0.02444082,0.10102976,0.02006981,-0.01467264,-0.02833025,0.01540217,0.98809915,0.14547697,-0.04403719,0.02360596
1756341643235,-0.00960077,0.04219630,0.03536684,-0.01372978,-0.02727057,0.02966788,0.98809967,0.14539939,-0.04419127,0.02377358
1756341643246,-0.17220711,0.14257736,0.09450589,-0.01355864,-0.04080756,0.01552711,0.98809854,0.14532618,-0.04441163,0.02385743
1756341643257,-0.01811430,0.08342253,0.01523859,-0.01411833,-0.04720007,0.00905327,0.98809704,0.14524782,-0.04467359,0.02390767
1756341643269,0.07906606,-0.00543387,-0.03126088,0.00029980,-0.03317802,0.00620014,0.98808694,0.14524960,-0.04487100,0.02394456
1756341643280,0.19557876,-0.00933817,-0.08646502,-0.01403587,-0.04767875,0.01674602,0.98808419,0.14517451,-0.04512608,0.02403416
1756341643291,-0.02481677,-0.04335784,-0.00261624,-0.00694487,-0.04720705,0.00389227,0.98807745,0.14513666,-0.04538336,0.02405537
1756341643302,-0.02288563,-0.01552428,0.02944543,-0.02269761,-0.04342833,0.01745166,0.98808261,0.14500729,-0.04563090,0.02415484
1756341643313,-0.02200762,-0.07804787,0.00962000,-0.01129856,-0.04924824,0.01747755,0.98807672,0.14494402,-0.04590669,0.02425272
1756341643324,0.02470517,0.01535074,0.05825799,-0.01164659,-0.04311269,0.00842647,0.98807404,0.14488229,-0.04613519,0.02429738
1756341643335,0.02841126,-0.01999277,0.01043569,-0.00838082,-0.04732663,0.01258589,0.98806677,0.14483536,-0.04640022,0.02436786
1756341643346,0.10729012,-0.07432988,0.05077302,-0.00056059,-0.04849117,0.02672866,0.98805103,0.14483227,-0.04666692,0.02451487
1756341643357,-0.03267404,-0.00682509,-0.00805188,-0.00076685,-0.04377199,0.00962380,0.98803871,0.14482798,-0.04691204,0.02456876
1756341643369,-0.07947964,-0.00527641,0.00545146,-0.00319692,-0.03410199,0.02756820,0.98802831,0.14480992,-0.04710472,0.02472452
1756341643380,-0.13568529,0.03623740,-0.04409536,0.00364370,-0.03322298,0.01914335,0.98801387,0.14483014,-0.04728911,0.02483077
1756341643391,0.01341559,-0.03232524,0.01162714,-0.00068663,-0.02488725,0.02554242,0.98800432,0.14482636,-0.04742599,0.02497125
1756341643402,-0.00901085,0.04748622,-0.00267820,0.00220293,-0.02963192,0.01411480,0.98799253,0.14483870,-0.04759193,0.02505029
1756341643413,-0.00665230,0.04347756,-0.00000000,0.00353980,-0.02792398,0.00889161,0.98798082,0.14485852,-0.04774830,0.02510008
1756341643424,-0.03929803,0.04481618,-0.03630140,0.01920478,-0.02734937,-0.00703266,0.98795843,0.14496703,-0.04790283,0.02506035
1756341643436,-0.01499502,0.08402844,-0.02134456,0.01877698,-0.01871121,0.00080140,0.98793779,0.14507218,-0.04800761,0.02506484
1756341643446,-0.11158350,0.24614438,-0.14578493,0.01437918,-0.01436015,-0.00823780,0.98792375,0.14514983,-0.04808515,0.02502035
1756341643457,0.01267078,-0.04815625,0.01572672,-0.00042900,-0.00853940,-0.00136836,0.98792200,0.14514747,-0.04813212,0.02501283
1756341643469,-0.01031519,-0.08368483,0.03058701,-0.00039829,-0.02272264,-0.00209744,0.98791631,0.14514520,-0.04826164,0.02500087
1756341643480,0.11142789,-0.22620427,0.12544043,-0.00336336,-0.00872105,-0.00073759,0.98791678,0.14512703,-0.04830873,0.02499689
1756341643491,-0.05349631,0.03440776,-0.02784334,-0.00469372,-0.01310210,-0.01184517,0.98791871,0.14510098,-0.04838145,0.02493115
1756341643502,0.02127613,0.02040316,-0.02103251,-0.00330040,-0.01132529,-0.00120419,0.98791848,0.14508201,-0.04844657,0.02492422
1756341643513,-0.01820480,-0.00880255,-0.02398750,0.00208341,-0.01255489,-0.00262803,0.98791377,0.14509347,-0.04851562,0.02490977
1756341643524,-0.00186990,-0.03478469,0.00291887,-0.00232445,-0.00639327,-0.00343985,0.98791439,0.14508080,-0.04855046,0.02489102
1756341643535,0.01309158,-0.08384052,-0.03523636,-0.00644526,-0.00600099,0.00600709,0.98791722,0.14504438,-0.04858437,0.02492496
1756341643547,0.03191562,-0.18002039,-0.21556211,-0.01243331,-0.00684663,0.00377437,0.98792495,0.14497538,-0.04862237,0.02494591
1756341643557,0.05668898,-0.02902126,0.04590503,-0.01107537,0.00625745,0.00102668,0.98793544,0.14491446,-0.04858795,0.02495156
1756341643569,-0.06739625,0.00949921,-0.03272635,-0.00556626,-0.00587558,0.00625890,0.98793752,0.14488301,-0.04862115,0.02498692
1756341643580,-0.09863125,0.11158393,0.15836229,-0.00893411,-0.00326949,-0.00174810,0.98794403,0.14483432,-0.04863897,0.02497739
1756341643591,0.04025499,-0.01139864,0.00662291,-0.00471387,0.00246706,0.00300938,0.98794822,0.14480745,-0.04862491,0.02499455
1756341643602,-0.04026360,0.00626121,-0.03657342,-0.00067407,0.00019488,-0.00026609,0.98794886,0.14480375,-0.04862383,0.02499308
1756341643613,-0.00147780,-0.04334883,-0.01970401,-0.00107490,0.00207061,0.00237841,0.98794995,0.14479783,-0.04861245,0.02500616
1756341643624,-0.02413742,-0.05147674,-0.03448203,-0.00245510,-0.00121902,-0.00370844,0.98795212,0.14478433,-0.04861915,0.02498577
1756341643635,0.04863971,0.06896637,0.00173137,-0.01900866,0.00435113,-0.00319754,0.98796952,0.14467693,-0.04859457,0.02496770
1756341643647,0.02590698,0.25812159,-0.26856470,-0.02228292,-0.00579004,0.00564907,0.98798539,0.14455215,-0.04862699,0.02499934
1756341643658,0.01306600,-0.01333899,0.02719062,-0.01369984,0.00152921,0.00750620,0.98799606,0.14447474,-0.04861835,0.02504175
1756341643669,-0.01905054,-0.03722868,-0.03759495,-0.01204541,-0.00357577,0.02922174,0.98800065,0.14440910,-0.04863784,0.02520101
1756341643680,-0.05266305,-0.20597700,0.25143408,-0.02452450,-0.00085076,0.04474076,0.98801382,0.14427421,-0.04864252,0.02544708
1756341643691,0.04964969,0.03102063,0.00968978,-0.00713710,0.00948454,0.01302018,0.98802050,0.14423353,-0.04858846,0.02552129
1756341643702,0.01293672,0.12550767,-0.02226944,-0.00252438,0.00326703,-0.00029654,0.98802340,0.14421990,-0.04857081,0.02551969
1756341643713,0.00853307,0.08846846,-0.01548047,-0.00365516,-0.00332891,-0.00593850,0.98802630,0.14419961,-0.04858929,0.02548673
1756341643724,0.07969495,0.12408645,0.00393830,0.00698508,-0.00707372,-0.03833140,0.98802416,0.14423873,-0.04862890,0.02527208
1756341643735,0.07692283,0.09108634,0.02877495,0.00581084,-0.01338478,-0.02361372,0.98801923,0.14427040,-0.04870185,0.02514338
1756341643747,0.05461584,0.07830514,0.01946478,0.01170674,-0.00915082,-0.01963047,0.98800975,0.14433713,-0.04875401,0.02503149
1756341643758,-0.06802206,-0.11162152,0.00528897,-0.00264603,-0.01076710,-0.00501949,0.98800965,0.14432257,-0.04881323,0.02500388
1756341643769,-0.02739101,-0.09623096,0.05905054,-0.02221598,-0.00014373,0.00635091,0.98802749,0.14419372,-0.04881406,0.02504072
1756341643780,-0.12288641,-0.27760858,-0.03988950,-0.02324933,-0.00531403,0.01989640,0.98804153,0.14406934,-0.04884249,0.02514716
1756341643791,-0.01512493,-0.03529295,0.02647189,-0.02085835,-0.00275364,0.00030143,0.98805789,0.14395149,-0.04885805,0.02514887
1756341643802,-0.00455470,-0.03912882,0.05932596,-0.03157922,-0.00760097,-0.00945871,0.98808132,0.14378570,-0.04889796,0.02509921
1756341643813,-0.00632921,-0.02668620,-0.02515959,-0.01713296,-0.00907598,-0.00122053,0.98809314,0.14368804,-0.04894969,0.02509225
1756341643825,0.00779685,-0.00596230,-0.00366911,-0.01164874,-0.00641638,0.00314742,0.98810053,0.14362164,-0.04898626,0.02511019
1756341643836,-0.03383672,0.07455499,0.00020007,-0.00859134,-0.00016963,0.01011782,0.98810603,0.14357353,-0.04898721,0.02516685
1756341643847,-0.19161191,0.40927639,-0.21214371,-0.00456225,0.00572247,0.02164084,0.98810816,0.14354889,-0.04895631,0.02528371
1756341643857,0.00454837,-0.01005946,-0.01021664,0.00031057,-0.00139399,0.02054084,0.98810476,0.14355054,-0.04896370,0.02539258
1756341643869,0.07858743,-0.12117648,0.07950818,-0.00429400,-0.00181829,0.01157799,0.98810615,0.14352520,-0.04897443,0.02546089
1756341643880,0.16639865,-0.30460980,0.19560491,-0.00711782,-0.00282445,-0.01164307,0.98811277,0.14348570,-0.04899010,0.02539627
1756341643891,0.05292445,-0.09808702,-0.02033006,-0.00185438,-0.00813493,-0.01254319,0.98811379,0.14347569,-0.04903403,0.02532854
1756341643902,0.03453672,0.09433751,0.04360074,-0.01743065,-0.00464392,-0.01916811,0.98812983,0.14337546,-0.04906073,0.02521832
1756341643913,0.00836804,0.05817667,-0.01255206,-0.01574832,-0.01340874,-0.01446876,0.98814026,0.14329278,-0.04913113,0.02514236
1756341643924,0.03300657,0.08731261,0.00293023,-0.00598852,-0.00707695,-0.00285896,0.98814353,0.14325954,-0.04917041,0.02512649
1756341643935,0.03847164,0.05640612,-0.07339454,-0.00079160,-0.01207692,-0.01425951,0.98814281,0.14325499,-0.04923985,0.02504450
1756341643946,0.36416018,0.08571246,-0.05542825,-0.00868227,-0.00897803,-0.02544268,0.98815081,0.14320724,-0.04928923,0.02490456
1756341643958,0.06169103,0.04355814,-0.02710136,-0.01009633,-0.02099752,-0.01807879,0.98815576,0.14314969,-0.04940891,0.02480152
1756341643969,-0.06409720,-0.00644807,0.03492876,0.00015243,-0.02076611,-0.01197800,0.98815150,0.14315055,-0.04952520,0.02473444
1756341643980,-0.31075763,-0.04181448,0.13494674,-0.01382184,-0.01095199,-0.00606242,0.98816048,0.14307314,-0.04958653,0.02470049
1756341643991,-0.01969522,-0.06742907,0.04625166,-0.02792181,-0.01764307,-0.00336355,0.98817829,0.14291957,-0.04968357,0.02468199
1756341644003,0.01099931,-0.08224447,0.00448120,-0.02183798,-0.01638317,0.00790214,0.98819036,0.14279619,-0.04977614,0.02472664
1756341644013,-0.00731654,-0.08076166,0.02384980,-0.03442397,-0.02330016,0.00368821,0.98821054,0.14260858,-0.04990312,0.02474674
1756341644025,-0.03117397,-0.04017910,-0.01095350,-0.01192964,-0.02249478,-0.00395382,0.98821433,0.14254237,-0.05002797,0.02472479
1756341644036,-0.02060154,0.04914868,-0.03822813,-0.01649522,-0.02011941,0.00350973,0.98822157,0.14244835,-0.05014265,0.02474480
1756341644047,-0.32497446,0.27948437,-0.44051057,-0.00317197,-0.01463309,0.00507385,0.98821932,0.14243106,-0.05022240,0.02477245
1756341644058,-0.01238704,0.01201645,0.02677127,-0.01761530,-0.01245264,0.00152306,0.98822968,0.14233329,-0.05029151,0.02478090
1756341644069,0.05493744,-0.06795286,0.06031715,-0.00181406,-0.01583191,-0.00165673,0.98822681,0.14232295,-0.05038175,0.02477146
1756341644080,0.27990106,-0.22917622,0.31984082,0.00210240,-0.01432707,0.00137416,0.98822104,0.14233431,-0.05045912,0.02477888
1756341644091,0.02197098,0.06249971,0.02547827,-0.00267210,-0.00887603,-0.00164193,0.98822089,0.14231948,-0.05050838,0.02476977
1756341644103,-0.03650648,0.00161905,-0.06091843,0.00885027,-0.01364647,-0.00490979,0.98821044,0.14236948,-0.05058548,0.02474203
1756341644113,0.02154364,0.09969708,0.02625168,-0.00287377,-0.01191380,-0.00360962,0.98820986,0.14235367,-0.05065101,0.02472218
1756341644125,0.01774977,-0.00877373,-0.04333652,0.00628502,-0.00749710,-0.00491159,0.98820338,0.14238856,-0.05069262,0.02469492
1756341644136,0.01680199,0.07176269,-0.02127539,0.00305058,-0.00707316,-0.00791936,0.98819999,0.14240564,-0.05073223,0.02465057
1756341644147,0.17778475,-0.12234082,-0.22918232,0.00946916,-0.01127517,-0.00050845,0.98818937,0.14245772,-0.05079424,0.02464777
1756341644158,0.02455765,0.04447556,0.02702046,-0.00488951,-0.00834553,-0.00502704,0.98819160,0.14243058,-0.05084056,0.02461987
1756341644169,-0.03659059,-0.01506981,0.02273402,-0.01190213,-0.01315437,-0.00562527,0.98819825,0.14236334,-0.05091488,0.02458809
1756341644180,-0.11561976,-0.02069913,0.06103141,-0.01056527,-0.01622842,-0.00409604,0.98820262,0.14230470,-0.05100495,0.02456536
1756341644191,0.02603238,0.00577363,0.02178092,-0.02213049,-0.01619045,-0.00998191,0.98821690,0.14218298,-0.05109400,0.02451046
1756341644202,-0.00316200,-0.03214704,-0.04525295,-0.01442156,-0.01832335,-0.01838553,0.98822575,0.14210222,-0.05119661,0.02440750
1756341644213,0.01344683,0.05752751,0.03878168,-0.02372164,-0.01302550,-0.01466194,0.98824263,0.14197294,-0.05126760,0.02432759
1756341644225,-0.02496576,-0.04862154,-0.02633894,-0.01052154,-0.01138865,-0.01417943,0.98824973,0.14191402,-0.05133137,0.02424818
1756341644236,-0.00997846,0.00213824,0.00855296,-0.01343427,-0.00746682,-0.01988627,0.98826108,0.14183878,-0.05137319,0.02413682
1756341644247,-0.18631851,0.16636753,-0.40048804,-0.01684921,-0.01083567,-0.01561292,0.98827348,0.14174527,-0.05143333,0.02405017
1756341644258,0.01074471,-0.06747337,-0.01743126,-0.01654416,-0.01063359,-0.00880939,0.98828487,0.14165262,-0.05149287,0.02400084
1756341644269,-0.00120866,-0.02251437,0.06985206,-0.01640939,-0.01072797,-0.01906729,0.98829760,0.14155991,-0.05155349,0.02389311
1756341644281,0.18050844,-0.22272012,0.30543103,-0.00348371,-0.00567635,-0.02638490,0.98830226,0.14154058,-0.05158499,0.02374667
1756341644291,0.00594785,0.05885479,0.02545463,-0.01936130,-0.01581956,-0.02539499,0.98831617,0.14143506,-0.05167121,0.02360827
1756341644303,0.02657155,-0.05658493,-0.06950234,-0.00075472,-0.02047592,-0.01441948,0.98831273,0.14143087,-0.05178485,0.02352824
1756341644313,0.06134428,0.02102427,0.06134872,-0.02102596,-0.01481921,-0.01204518,0.98832658,0.14131523,-0.05186635,0.02346199
1756341644325,-0.04774182,-0.02459133,-0.02425685,-0.01441751,-0.01805958,-0.02587331,0.98833666,0.14123088,-0.05197200,0.02331063
1756341644336,0.13746346,-0.04237181,0.00857233,-0.03618298,-0.01628279,-0.01571840,0.98836100,0.14104273,-0.05205667,0.02322890
1756341644347,0.25452069,-0.14968795,-0.16807101,-0.02584498,-0.01954059,-0.01410982,0.98837758,0.14089929,-0.05216512,0.02315059
1756341644358,0.07086789,-0.02534007,-0.05802034,-0.01040747,-0.02571629,0.00449930,0.98837768,0.14084205,-0.05230656,0.02317533
1756341644368,-0.01353089,0.07775832,0.03847813,-0.02881306,-0.01762965,-0.01126738,0.98839519,0.14069510,-0.05239647,0.02311787
1756341644378,-0.25237960,0.21178452,0.15385742,-0.01648194,-0.01518615,-0.00454222,0.98840384,0.14060857,-0.05247620,0.02309402
1756341644390,-0.04488721,0.16556318,0.03250126,0.00830171,-0.01260198,-0.01284101,0.98839515,0.14065506,-0.05254677,0.02302211
1756341644401,0.00850617,0.17523203,0.01273014,-0.00219539,-0.01595660,-0.05528124,0.98839920,0.14064310,-0.05263374,0.02272083
1756341644412,-0.05009281,0.08985188,-0.04375002,0.01323157,-0.02498559,-0.06298155,0.98838923,0.14071720,-0.05277366,0.02236813
1756341644423,0.06088956,0.02619888,0.02251233,0.00939010,-0.01913295,-0.02713874,0.98837954,0.14076931,-0.05287984,0.02221751
1756341644434,-0.06628444,-0.06641901,-0.02236395,0.00011036,-0.02648962,-0.01566936,0.98837341,0.14076993,-0.05302951,0.02212898
1756341644448,-0.17181639,-0.10644426,-0.00970727,-0.01032423,-0.02377059,-0.02078958,0.98837785,0.14070025,-0.05318996,0.02198865
1756341644459,0.04703575,-0.09080344,0.03273964,-0.02768831,-0.01387948,-0.00175953,0.98839659,0.14053965,-0.05327046,0.02197845
1756341644468,0.13658914,-0.30091793,-0.02283363,-0.04758039,-0.02691720,-0.00459367,0.98841877,0.14034457,-0.05338082,0.02195961
1756341644476,0.12423467,-0.12659481,0.22438340,-0.04538079,-0.02025163,-0.02184870,0.98844500,0.14014036,-0.05347196,0.02186129
1756341644545,-0.06583981,0.04114211,0.00021222,-0.00523990,-0.00403602,-0.00389185,0.98846591,0.13996063,-0.05361039,0.02172780
1756341644547,68.10071335,-58.13291328,-10.12233308,-0.51110345,-0.53647246,0.00797911,0.98850234,0.13952619,-0.05406639,0.02173459
1756341644618,-1.61869565,1.37654276,0.23878192,-0.00920370,-0.00507696,-0.00723976,0.98854409,0.13919992,-0.05424637,0.02147794
1756341644620,20.42964080,-12.41412923,5.11653669,-0.36583726,-0.10225458,-0.25103216,0.98860812,0.13874263,-0.05437419,0.02116415
1756341644656,-1.36955603,0.94803329,-0.41571238,-0.01786409,-0.01798598,-0.02993232,0.98864608,0.13842643,-0.05469254,0.02063434
1756341644680,-0.01617023,0.01435501,-0.00213174,-0.02167313,-0.01256374,-0.01020141,0.98867704,0.13816310,-0.05484519,0.02051040
1756341644702,-0.07124773,-0.08580045,0.16831138,-0.02254060,-0.00833332,-0.00272218,0.98870705,0.13791628,-0.05493644,0.02048059
1756341644717,0.04122100,-0.00089246,0.03727538,0.00001260,-0.01081336,-0.00655873,0.98870341,0.13791638,-0.05502078,0.02042943
1756341644731,-0.06370617,0.04260204,-0.02287808,0.00966586,0.00162666,0.00270498,0.98869421,0.13798404,-0.05500940,0.02044837
1756341644744,-0.01355847,-0.15956376,-0.04086993,0.01874691,0.00345871,-0.00500032,0.98868004,0.13809840,-0.05498830,0.02041786
1756341644756,-0.00420555,0.02894323,0.03198717,0.01039919,0.00440147,-0.00101516,0.98867262,0.13816339,-0.05496079,0.02041152
1756341644769,-0.02212524,0.01945496,0.02822876,0.00654400,0.00905538,-0.00399002,0.98867057,0.13820429,-0.05490419,0.02038658
1756341644781,-0.04375974,0.08283390,-0.01963642,0.01162756,0.00234954,-0.00519186,0.98866224,0.13827406,-0.05489010,0.02035543
1756341644798,-0.00527259,0.02703343,-0.03118412,0.00495634,0.00247368,-0.00015458,0.98865745,0.13831693,-0.05486870,0.02035409
1756341644804,0.13855113,0.10169540,0.18759959,0.01471577,-0.00521679,-0.01439526,0.98865130,0.13836108,-0.05488435,0.02031091
1756341644815,-0.00433338,-0.00704856,-0.07407986,0.00168999,-0.00142395,0.00188234,0.98864930,0.13837063,-0.05489239,0.02032154
1756341644831,-0.05707689,0.02316312,-0.04495917,-0.00223189,-0.00912912,-0.00894501,0.98864921,0.13835300,-0.05496451,0.02025088
1756341644838,0.36421050,0.19500156,-0.79075315,-0.00095122,-0.02647542,-0.00909687,0.98864494,0.13834948,-0.05506247,0.02021722
1756341644850,-0.02510115,0.01855006,-0.11808079,-0.01280502,-0.01744200,-0.00308030,0.98864996,0.13827649,-0.05516189,0.02019966
1756341644863,-0.10025367,-0.06414522,0.02958521,-0.01500339,-0.01899633,0.00349497,0.98865662,0.13817296,-0.05529297,0.02022378
1756341644873,-0.07363419,-0.21051263,0.19302056,-0.02248854,-0.00700746,0.01283040,0.98866844,0.13806614,-0.05532625,0.02028472
1756341644885,-0.18450102,-0.09478864,0.20471121,-0.02627260,-0.00102627,0.00921671,0.98868810,0.13791508,-0.05533215,0.02033772
1756341644898,-0.02926451,-0.03006171,0.00685357,-0.04188007,0.00182375,0.00989761,0.98872595,0.13763867,-0.05532012,0.02040304
1756341644907,-0.07555237,-0.26202267,-0.15957130,-0.04956475,0.00298634,0.03282838,0.98875657,0.13740076,-0.05530578,0.02056062
1756341644919,-0.04015141,-0.05911839,0.04925873,-0.06691773,-0.00276167,0.01853651,0.98880555,0.13702602,-0.05532125,0.02066442
1756341644930,-0.03248371,-0.15137600,0.01146141,-0.08139653,0.02116308,0.02068133,0.98887340,0.13656613,-0.05520168,0.02078127
1756341644941,-0.04189087,-0.21017824,-0.21422853,-0.08685509,0.01170248,0.02328238,0.98894318,0.13606671,-0.05513439,0.02091514
1756341644953,-0.05954722,-0.16608891,-0.08093572,-0.11201515,0.02309952,0.03990305,0.98903331,0.13542822,-0.05500272,0.02114259
1756341644965,-0.04313086,-0.09783673,-0.01466259,-0.12134760,0.02866280,0.03785147,0.98914086,0.13467587,-0.05482501,0.02137727
1756341644975,-0.26815647,-0.41731806,0.03664588,-0.18341920,0.03745209,0.04730631,0.98927439,0.13373126,-0.05463213,0.02162090
1756341644986,0.03868587,-0.25816803,-0.00895289,-0.17444958,0.03886779,0.05296207,0.98940899,0.13277179,-0.05441836,0.02191219
1756341644998,-0.03110911,-0.13523550,0.03545987,-0.24473660,0.01234584,0.06104464,0.98959765,0.13132784,-0.05434552,0.02227235
1756341645009,-0.06755679,-1.14358040,-0.30119529,-0.27820864,0.03107091,0.06313037,0.98979916,0.12981160,-0.05417618,0.02261641
1756341645020,0.13607546,0.67791186,0.05578827,-0.28555112,0.01254885,0.06573172,0.99000113,0.12822680,-0.05410654,0.02298122
1756341645031,-0.12111560,-0.20560928,-0.20450056,-0.31413990,-0.00027048,0.06597649,0.99021867,0.12646761,-0.05410805,0.02335069
1756341645043,0.20337044,-0.10168522,-0.28319809,-0.33441132,0.00431601,0.07989617,0.99044671,0.12459491,-0.05408388,0.02379811
1756341645054,0.01940103,-0.06042036,-0.16581112,-0.36409710,0.00480459,0.08064329,0.99069376,0.12253776,-0.05405674,0.02425375
1756341645065,-0.13536962,-0.17878126,-0.26607133,-0.35837572,-0.01667341,0.07527392,0.99092646,0.12051294,-0.05415094,0.02467904
1756341645076,0.16499564,-0.05469018,0.28653686,-0.37618958,-0.00484862,0.07466167,0.99116841,0.11840628,-0.05417809,0.02509715
1756341645088,-0.04466547,0.19362957,-0.09028127,-0.39319827,-0.01106324,0.02980857,0.99142135,0.11620437,-0.05424005,0.02526408
1756341645099,0.13127913,-0.13479165,-0.24800280,-0.35424641,-0.02188053,0.03615379,0.99164963,0.11413202,-0.05436805,0.02547558
1756341645110,-0.23982269,0.20251868,-0.12028478,-0.37472863,-0.03004017,0.00247136,0.99187119,0.11210849,-0.05453027,0.02548892
1756341645122,0.16172099,0.20766127,0.02751830,-0.34180993,-0.00417847,0.01370754,0.99208614,0.11016017,-0.05455408,0.02556705
1756341645132,-0.13748960,-0.13334770,-0.21505611,-0.35945205,-0.01006508,-0.00210479,0.99229705,0.10821913,-0.05460843,0.02555569
1756341645143,0.21505365,-0.24712403,-0.30015351,-0.34667856,0.01191051,0.01336364,0.99250298,0.10632973,-0.05454352,0.02562852
1756341645154,-0.11532755,0.12636354,-0.06872546,-0.36995434,-0.01055051,0.02546037,0.99271769,0.10423949,-0.05460313,0.02577237
1756341645166,0.29662480,-0.45476876,0.09240333,-0.37077699,0.02598431,0.01572345,0.99293726,0.10218168,-0.05445892,0.02585964
1756341645177,-0.28205941,-0.00475165,0.23319879,-0.40678584,-0.00912692,0.01737979,0.99316371,0.09990368,-0.05451003,0.02595696
1756341645188,0.20571343,-0.22668413,-0.10974433,-0.39297292,0.00833352,0.00100732,0.99338111,0.09774233,-0.05446420,0.02596250
1756341645199,-0.06234159,0.37445129,0.15720172,-0.36369118,0.01250655,-0.01644194,0.99358564,0.09570566,-0.05439416,0.02587043
1756341645210,-0.01357997,0.03858671,-0.20582459,-0.33604163,0.00629972,0.00154537,0.99376521,0.09384063,-0.05435920,0.02587901
1756341645221,0.15133827,0.26786961,0.38887577,-0.34111599,0.02478200,0.00978818,0.99395316,0.09189626,-0.05421794,0.02593480
1756341645233,-0.02321637,-0.28761212,-0.32487919,-0.30072716,0.01379899,-0.00990901,0.99411308,0.09021219,-0.05414066,0.02587931
1756341645243,0.24045022,0.16061345,-0.25032374,-0.35573398,0.01013392,0.00307282,0.99428807,0.08829123,-0.05408594,0.02589590
1756341645255,0.24805351,-0.06388324,0.12924477,-0.31409095,0.02804595,0.00306080,0.99445078,0.08653232,-0.05392888,0.02591304
1756341645266,-0.25728937,0.38092148,-0.01164491,-0.32756173,-0.00601999,-0.00894786,0.99460677,0.08471435,-0.05396229,0.02586338
1756341645277,0.21952251,-0.00350514,0.26914122,-0.28676637,-0.00151336,0.00985035,0.99474153,0.08309412,-0.05397084,0.02591904
1756341645288,-0.07738094,0.56594473,0.09754066,-0.26250646,-0.01867052,-0.01363568,0.99485850,0.08163721,-0.05407447,0.02584336
1756341645299,0.12916517,0.05224658,-0.09772046,-0.20737633,-0.02197912,-0.01369134,0.99494761,0.08048627,-0.05419645,0.02576737
1756341645316,-0.05493123,0.59506014,0.50607350,-0.13078191,-0.01683746,-0.01437079,0.99503177,0.07938117,-0.05433873,0.02564594
1756341645323,0.68226564,-2.25504692,-3.15923608,-0.32433925,-0.06298797,-0.05416934,0.99510862,0.07832706,-0.05454344,0.02546989
1756341645332,-0.11737151,0.63206193,0.93110943,-0.22794205,-0.06041624,-0.02533338,0.99517530,0.07732412,-0.05480927,0.02535842
1756341645343,-0.18141233,0.48816323,0.06521004,-0.18695308,-0.04587581,-0.02412889,0.99524658,0.07625849,-0.05507076,0.02522089
1756341645354,-0.01029523,-0.14264524,-0.06490581,-0.18586855,-0.06051964,-0.01782335,0.99530950,0.07521762,-0.05540967,0.02512107
1756341645365,0.03268793,0.13106638,-0.09825134,-0.19164614,-0.06909387,-0.01005105,0.99537037,0.07413482,-0.05580005,0.02506429
1756341645377,0.08668378,0.20603880,0.74946706,-0.16800465,-0.07347474,-0.01378831,0.99541835,0.07320240,-0.05620784,0.02498776
1756341645387,0.22374264,0.04657071,0.06136647,-0.14274423,-0.06630806,-0.00223931,0.99545543,0.07241730,-0.05657253,0.02497545
1756341645399,-0.24048495,0.04306614,-0.00038359,-0.13286067,-0.07188649,-0.00224491,0.99548718,0.07166000,-0.05698228,0.02496265
1756341645410,0.05503661,-0.02683035,0.16419254,-0.12348183,-0.06356714,-0.00225280,0.99551712,0.07095615,-0.05734462,0.02494981
1756341645422,0.00825549,-0.06581461,0.00825549,-0.12154827,-0.06288768,-0.00493882,0.99554625,0.07026332,-0.05770308,0.02492166
1756341645433,-0.03877756,-0.13600789,-0.01306165,-0.13003986,-0.06236071,0.00637084,0.99557592,0.06954160,-0.05804918,0.02495702
1756341645443,-0.16145893,-0.07811397,-0.25812972,-0.14951301,-0.05754368,0.01258743,0.99561112,0.06875666,-0.05835128,0.02502310
1756341645455,-0.18230481,-0.04789659,-0.00069691,-0.13935385,-0.05220610,-0.00936895,0.99564884,0.06797628,-0.05864364,0.02497063
1756341645466,0.15592930,0.13833708,0.19596086,-0.13618979,-0.03124368,0.00122102,0.99569049,0.06720681,-0.05882016,0.02497753
1756341645477,-0.09489756,0.12875562,0.23119433,-0.11977395,-0.04418066,-0.00538336,0.99572220,0.06652409,-0.05907199,0.02494685
1756341645488,0.17181673,-0.02977957,-0.00117059,-0.11934012,-0.02748837,0.00340879,0.99575608,0.06587369,-0.05922180,0.02496542
1756341645500,-0.09393926,0.01865843,0.02439551,-0.11517717,-0.03154876,-0.01048890,0.99579037,0.06521142,-0.05940321,0.02490511
1756341645510,-0.04508030,0.09232906,0.02200143,-0.11954262,-0.02849965,-0.00681867,0.99582385,0.06457187,-0.05955568,0.02486863
1756341645521,-0.06893883,0.14373506,0.11504312,-0.10794152,-0.02074997,-0.01111297,0.99585746,0.06396740,-0.05967188,0.02480640
1756341645533,0.01235428,-0.00403890,0.01425494,-0.11636679,-0.01984451,-0.00392480,0.99589299,0.06331574,-0.05978301,0.02478442
1756341645544,-0.06420888,-0.04076301,-0.27242303,-0.10756632,0.00560151,-0.01893095,0.99593599,0.06270799,-0.05975136,0.02467746
1756341645555,-0.08176730,-0.03366466,0.04301753,-0.12116925,-0.01379598,0.00006477,0.99597317,0.06204156,-0.05982724,0.02467782
1756341645566,-0.05264679,0.03438028,0.14646635,-0.10790179,-0.01411188,-0.01477528,0.99600761,0.06144271,-0.05990556,0.02459582
1756341645577,0.04305506,0.02781647,0.45957643,-0.10588911,-0.00967545,-0.01408130,0.99604239,0.06085502,-0.05995926,0.02451766
1756341645588,0.00532141,0.07304846,0.04257129,-0.09596653,-0.02147408,0.00677445,0.99606668,0.06032241,-0.06007844,0.02455526
1756341645599,0.05948039,0.09455486,0.06271557,-0.07684658,-0.01077834,-0.00877174,0.99608980,0.05989975,-0.06013772,0.02450702
1756341645610,0.01379281,0.00763531,0.06009725,-0.05481842,-0.00379191,-0.01211104,0.99610826,0.05959825,-0.06015858,0.02444041
1756341645621,-0.05378863,0.10445413,0.04696354,-0.06658570,-0.01425312,-0.01515146,0.99612775,0.05922537,-0.06023840,0.02435556
1756341645633,0.06758741,0.11242394,0.05972291,-0.06504580,-0.01090232,-0.00447826,0.99614758,0.05883510,-0.06030381,0.02432869
1756341645644,0.12565349,-0.13648980,-0.42343325,-0.05019861,-0.01993017,-0.00397982,0.99615709,0.05857657,-0.06040645,0.02430819
1756341645655,0.04010758,0.04664455,0.12965073,-0.05155730,-0.02547503,-0.00618756,0.99616621,0.05828785,-0.06054911,0.02427354
1756341645666,0.07179650,-0.08415550,0.11604257,-0.06902857,-0.04423105,0.00681552,0.99617263,0.05790820,-0.06079238,0.02431103
1756341645677,0.00088690,0.00042860,0.37026774,-0.07052564,-0.02969264,-0.00216320,0.99618576,0.05750973,-0.06096015,0.02429881
1756341645689,-0.05097717,-0.02991855,-0.02378346,-0.06722767,-0.05699074,-0.00892974,0.99618906,0.05713325,-0.06127929,0.02424880
1756341645699,0.06724875,-0.04633082,0.07930866,-0.08259404,-0.05109859,0.00730067,0.99619670,0.05667898,-0.06156034,0.02428895
1756341645711,0.02007205,0.02410767,-0.02095471,-0.05634815,-0.05321621,0.00580952,0.99619534,0.05636062,-0.06186101,0.02432178
1756341645722,0.12419877,0.05087835,0.00882208,-0.05222183,-0.05145700,0.03305035,0.99618937,0.05606817,-0.06214917,0.02450686
1756341645734,0.02752678,0.18111511,-0.13950064,-0.04375151,-0.06904386,0.02446781,0.99617505,0.05581442,-0.06254962,0.02464877
1756341645745,0.37814158,0.18004919,-0.81466837,-0.03995661,-0.06594832,0.01686241,0.99616232,0.05559665,-0.06290904,0.02474067
1756341645755,0.22742243,0.10671772,-0.18896318,-0.00663586,-0.08073322,0.00649625,0.99613656,0.05556181,-0.06333289,0.02477478
1756341645766,-0.09446532,0.16719149,0.19776857,-0.02320925,-0.09583120,-0.03367019,0.99611400,0.05543068,-0.06387433,0.02458454
1756341645778,-0.29241606,-0.03818077,0.80856984,-0.02117424,-0.11113279,-0.02461449,0.99608280,0.05530787,-0.06451891,0.02444178
1756341645789,0.10646962,-0.04190500,0.07470539,-0.03881539,-0.11616337,-0.00716975,0.99605401,0.05509439,-0.06515780,0.02440234
1756341645800,0.05123044,-0.07586046,0.06502325,-0.03832816,-0.10200021,-0.00820125,0.99602990,0.05488358,-0.06571880,0.02435724
1756341645811,-0.08626312,0.03176730,0.05155079,-0.06913460,-0.10956203,-0.00099156,0.99601044,0.05449297,-0.06633783,0.02435163
1756341645822,0.05351226,-0.00416258,-0.02655572,-0.03918084,-0.12462320,0.00654269,0.99597640,0.05428335,-0.06700456,0.02438664
1756341645833,-0.00944705,0.10760193,-0.00318765,-0.01935693,-0.12316043,0.00990372,0.99593279,0.05417108,-0.06771889,0.02444408
1756341645844,0.02515203,-0.09228509,-0.54589970,-0.01679107,-0.14636333,0.01024110,0.99588325,0.05408209,-0.06849462,0.02449836
1756341645855,0.00136274,-0.05477392,0.02209067,-0.00643624,-0.14946912,-0.00094635,0.99582741,0.05404605,-0.06933165,0.02449306
1756341645867,0.05667460,-0.10496677,0.10548683,-0.02769126,-0.14101297,0.01378684,0.99577775,0.05388821,-0.07013542,0.02457164
1756341645878,0.09341569,-0.02264118,0.39725426,-0.03170640,-0.15619412,0.01213976,0.99572367,0.05371065,-0.07101011,0.02463963
1756341645889,0.08280964,-0.09827377,0.03594223,-0.04229385,-0.15233463,0.01815553,0.99567361,0.05347803,-0.07184795,0.02473948
1756341645900,0.01665030,-0.03661439,-0.02570989,-0.04396626,-0.16669463,0.03551823,0.99561457,0.05323402,-0.07277310,0.02493661
1756341645911,0.05273035,0.03579859,0.00870776,-0.03885754,-0.15801082,0.02667523,0.99555787,0.05301836,-0.07365006,0.02508465
1756341645923,0.05108240,-0.06398625,0.02362607,-0.01720211,-0.16023135,0.02446842,0.99549158,0.05292031,-0.07456338,0.02522412
1756341645933,0.27605182,-0.15189033,-0.05999921,-0.04573651,-0.17666011,0.01978119,0.99542948,0.05267105,-0.07552618,0.02533193
1756341645947,0.24389945,-0.04332336,-0.20701915,-0.04701075,-0.15377192,0.00977738,0.99536716,0.05236313,-0.07653339,0.02539597
1756341645957,0.78621256,-0.12413009,-0.02107547,-0.07365417,-0.20958680,-0.00204478,0.99530560,0.05199486,-0.07758132,0.02538575
1756341645968,-0.43587028,0.24725552,0.16149361,-0.04596709,-0.18337173,0.00584989,0.99523332,0.05172135,-0.07867238,0.02542056
1756341645979,-0.15114413,0.11154700,0.26856135,-0.04357465,-0.19814162,-0.01802720,0.99516284,0.05148605,-0.07974235,0.02532321
1756341645990,0.15340586,0.13425679,-0.03210760,-0.04178733,-0.22371931,-0.02986944,0.99508486,0.05127084,-0.08089450,0.02516938
1756341645999,0.07866656,0.13455025,0.01695550,-0.02651529,-0.22622917,-0.01861238,0.99500143,0.05113827,-0.08202565,0.02507632
1756341646012,-0.22167930,0.03154032,0.01914205,-0.00402404,-0.18607478,-0.00373421,0.99490904,0.05111372,-0.08316070,0.02505354
1756341646023,-0.03441074,-0.07693246,0.15210037,-0.03192810,-0.19404692,-0.01191321,0.99482919,0.05093652,-0.08423766,0.02498742
1756341646035,-0.16390727,-0.01517920,-0.00866841,-0.04306123,-0.17018982,-0.01296840,0.99475795,0.05068031,-0.08525029,0.02491026
1756341646045,0.17723160,-0.43033585,-0.64507113,-0.03900712,-0.18077890,0.00318588,0.99468408,0.05046967,-0.08622650,0.02492747
1756341646057,-0.18847470,0.11133253,0.02287703,-0.02220759,-0.16887756,-0.01215044,0.99460765,0.05034197,-0.08719755,0.02485760
1756341646067,0.18028412,-0.13047621,0.12120851,-0.04719832,-0.18272331,-0.00946276,0.99453751,0.05009654,-0.08814771,0.02480839
1756341646080,-0.15718102,0.26119312,0.41393826,-0.00676247,-0.15761876,-0.01031577,0.99445547,0.05005529,-0.08910918,0.02474547
1756341646090,0.24442215,0.00442519,0.05017486,0.01386996,-0.15819872,-0.02866453,0.99437933,0.05012950,-0.08995554,0.02459211
1756341646101,0.00446693,0.11356469,0.02248835,-0.00306254,-0.15640022,-0.03254818,0.99430907,0.05011326,-0.09078447,0.02441961
1756341646112,-0.16157478,0.02325978,-0.06541055,0.00640874,-0.14163091,-0.03875471,0.99423797,0.05015011,-0.09159884,0.02419677
1756341646122,0.25610460,-0.18988515,-0.01065053,0.02149642,-0.16338828,-0.04796198,0.99416350,0.05025652,-0.09240762,0.02395936
1756341646134,-0.29148914,-0.02856539,0.00904684,-0.00215105,-0.12256346,-0.03798422,0.99410047,0.05024351,-0.09314912,0.02372955
1756341646145,0.37557202,-0.20404916,-0.70112527,-0.02442875,-0.14106117,-0.04067048,0.99404012,0.05011037,-0.09391791,0.02350790
1756341646154,0.88621011,-0.48352805,-0.35767502,-0.01185027,-0.17975589,-0.05536963,0.99397724,0.05006119,-0.09466389,0.02327811
1756341646168,-0.76594928,0.21847989,0.23785899,-0.01065681,-0.09823807,-0.02131572,0.99391833,0.04998606,-0.09535647,0.02312784
1756341646176,0.93780076,-0.08649693,0.62034057,-0.01403375,-0.18771037,-0.06133204,0.99385210,0.04992782,-0.09613547,0.02287331
1756341646187,-0.35906413,0.28036067,0.05228478,0.00486956,-0.13074435,-0.04868080,0.99378468,0.04995558,-0.09688071,0.02259583
1756341646199,0.00811254,0.13603135,-0.00315488,0.01267611,-0.14464582,-0.04653770,0.99370563,0.05002847,-0.09771243,0.02232824
1756341646210,0.02398135,0.05602190,-0.02907181,0.01607538,-0.16715524,-0.06369082,0.99361656,0.05011849,-0.09864850,0.02197157
1756341646221,0.28866071,-0.08628771,0.06330030,0.01443350,-0.15373613,-0.04847300,0.99353184,0.05020004,-0.09951711,0.02169770
1756341646233,-0.11669795,0.06068293,-0.02894109,0.00678076,-0.18762550,-0.05686085,0.99343011,0.05023835,-0.10057719,0.02137643
1756341646244,0.35644650,-0.24698895,-0.33342506,0.01541521,-0.17684556,-0.05147841,0.99333292,0.05032313,-0.10154984,0.02109330
1756341646255,-0.01407403,0.19220168,-0.09665397,0.00815301,-0.19423237,-0.04967421,0.99322176,0.05037001,-0.10266668,0.02080767
1756341646267,0.13148197,0.14240381,0.07662046,0.02222154,-0.20955693,-0.01961904,0.99309120,0.05049890,-0.10388211,0.02069388
1756341646278,0.57680469,0.02222068,0.11944929,0.06663701,-0.24718496,0.00095803,0.99293516,0.05085207,-0.10519219,0.02069896
1756341646289,-0.08445849,0.16534338,0.18928848,0.06470633,-0.25167474,0.00338884,0.99276429,0.05121766,-0.10661415,0.02071811
1756341646300,0.15793966,-0.25667508,0.06093040,0.05368596,-0.27028688,0.00574415,0.99258434,0.05151830,-0.10812776,0.02075028
1756341646313,-0.19765767,-0.09361091,0.20570656,0.03082370,-0.23686785,0.00696810,0.99240404,0.05171866,-0.10966740,0.02079557
1756341646322,1.88078136,-0.47657931,0.31600776,0.01307752,-0.33892874,0.06019110,0.99222154,0.05177882,-0.11122647,0.02107245
1756341646333,-0.46495887,-0.09002303,-0.11156038,0.00117133,-0.29435227,0.09054673,0.99202413,0.05178537,-0.11287484,0.02157951
1756341646344,0.38203232,0.25326272,-0.84294196,0.00980398,-0.31764303,0.03047418,0.99181352,0.05184028,-0.11465364,0.02175016
1756341646357,0.05559260,0.43544077,-0.07129640,0.04644021,-0.31398211,-0.00755790,0.99157640,0.05212356,-0.11656893,0.02170406
1756341646369,0.08128140,0.46393098,0.00787520,0.08122239,-0.35018465,-0.00840993,0.99130019,0.05261496,-0.11868755,0.02165318
1756341646380,0.53169493,-0.08869046,0.74902125,0.12468162,-0.38121796,0.01570535,0.99100837,0.05330071,-0.12078425,0.02173956
1756341646390,0.29205505,0.24946060,-0.00039839,0.12096711,-0.40449899,-0.04297007,0.99072337,0.05392369,-0.12286742,0.02151826
1756341646402,-0.61362979,-0.45891319,0.09511494,0.06793208,-0.34509901,-0.03037849,0.99045071,0.05432449,-0.12490350,0.02133903
1756341646411,1.37928258,0.54864573,0.25090926,0.02508019,-0.43758914,-0.04501770,0.99019007,0.05444111,-0.12693829,0.02112970
1756341646423,-1.18720382,-0.25718006,-0.22843512,0.05065812,-0.31266958,0.00227138,0.98992636,0.05475012,-0.12884558,0.02114355
1756341646436,-0.17803692,0.42146933,0.02085576,0.04689238,-0.30260136,0.00711598,0.98966115,0.05504320,-0.13073684,0.02118803
1756341646446,1.48301451,0.22190621,-0.63272893,0.10774299,-0.35628875,0.03749384,0.98938731,0.05558730,-0.13253609,0.02137737
1756341646455,0.21187023,0.33674556,0.24763203,0.14443978,-0.37639766,0.02993640,0.98910428,0.05627339,-0.13432398,0.02151957
1756341646468,-1.41348029,-0.35007405,0.01819902,0.09968310,-0.28559356,0.01406881,0.98882494,0.05689143,-0.13609466,0.02160680
1756341646479,0.28498083,-0.41032756,0.69689089,0.11472628,-0.30934203,-0.00664939,0.98855853,0.05751095,-0.13776511,0.02157089
1756341646490,-0.31845091,-0.28752788,0.12787275,0.06092915,-0.29248883,0.00027026,0.98831566,0.05784301,-0.13935917,0.02157236
1756341646501,-0.65013820,-0.14469903,-0.12593957,0.03544586,-0.27815004,-0.00712321,0.98808192,0.05804328,-0.14093072,0.02153212
1756341646511,0.55744568,-0.14057955,0.62847503,0.01830167,-0.24687321,0.02732953,0.98789112,0.05813754,-0.14220212,0.02167287
1756341646523,-0.82796594,-0.10549635,-0.29996634,0.01621746,-0.22955134,0.01453230,0.98768943,0.05823241,-0.14354499,0.02175788
1756341646534,0.24988573,0.10943556,-0.07138469,0.02317472,-0.23565846,-0.00178391,0.98749647,0.05835755,-0.14481755,0.02174825
1756341646546,-0.54286624,-0.08693739,-0.51575850,0.04268990,-0.21610971,-0.01179544,0.98728669,0.05862009,-0.14614662,0.02167570
1756341646556,0.60488589,-0.14829059,0.08252572,0.05793014,-0.23234223,0.00558955,0.98709234,0.05891554,-0.14733157,0.02170421
1756341646568,-0.69723250,0.17878026,0.08011264,0.03422860,-0.18293406,0.02278968,0.98691410,0.05911920,-0.14842003,0.02183981
1756341646579,-0.09186206,-0.01350939,0.34821726,0.03183963,-0.18856299,0.03424487,0.98674913,0.05928795,-0.14941941,0.02202131
1756341646591,-0.56735904,0.04379267,-0.04811712,0.00182126,-0.13605172,-0.00153191,0.98662160,0.05929915,-0.15025613,0.02201189
1756341646601,0.39405063,0.07406805,0.15046486,-0.01824988,-0.13886145,-0.02865227,0.98652526,0.05920881,-0.15094349,0.02187006
1756341646611,-0.08175506,-0.01343009,-0.06171173,-0.01856546,-0.13207570,0.02393426,0.98642591,0.05911506,-0.15161048,0.02199093
1756341646628,-0.59588279,0.09732678,-0.32550859,0.00834907,-0.06203194,0.01181433,0.98634081,0.05918394,-0.15212224,0.02208839
1756341646638,0.66682863,0.40056503,0.10371059,0.00445552,-0.07334934,0.00866017,0.98628010,0.05920688,-0.15249999,0.02213299
1756341646646,0.96592295,-0.05052587,-1.42269758,0.02068269,-0.06237533,0.00261406,0.98623573,0.05929065,-0.15275261,0.02214358
1756341646655,-0.68661702,-0.76892308,0.08499250,0.00294735,-0.04817892,-0.00776639,0.98620137,0.05930421,-0.15297423,0.02210785
1756341646669,-0.67541915,-0.07934141,0.27918160,-0.02980114,-0.02822608,-0.02625732,0.98618753,0.05909858,-0.15316899,0.02192668
1756341646678,0.79402147,0.07598636,0.82308565,-0.09580876,-0.02499376,-0.05958488,0.98620219,0.05865307,-0.15328521,0.02164961
1756341646690,-0.86515046,-0.88294764,-0.04524667,-0.12618768,-0.02361592,-0.08963376,0.98623599,0.05790856,-0.15342455,0.02112077
1756341646697,0.91499624,-2.39834988,0.52396833,-0.20751031,-0.04529702,-0.22698764,0.98627038,0.05718227,-0.15358309,0.02032631
1756341646744,-0.36294979,0.53449516,-0.16083638,-0.02922293,-0.00864837,-0.03555043,0.98629505,0.05649846,-0.15378546,0.01949443
1756341646745,129.47632496,-271.71176919,6.81457484,-3.06347047,-0.87659509,-3.29587652,0.98637139,0.05404768,-0.15448673,0.01685773
1756341646763,-11.23421939,24.17767983,-0.93200630,-0.15509315,-0.00019799,-0.06030475,0.98645434,0.05267511,-0.15448849,0.01632404
1756341646778,-0.11494166,-0.20039673,0.25467705,-0.11443839,0.01721555,-0.03144943,0.98652158,0.05184543,-0.15436367,0.01609603
1756341646790,-0.07943217,0.77343695,-0.38637049,-0.08732168,0.01164495,-0.02839004,0.98656335,0.05131277,-0.15429264,0.01592285
1756341646801,0.06665557,0.27504750,-0.11191525,-0.05680202,0.01742129,-0.08754452,0.98660324,0.05099183,-0.15419421,0.01542822
1756341646813,0.01074512,-0.04051037,-0.04931697,-0.08588743,-0.01218982,-0.05811268,0.98662403,0.05046792,-0.15426857,0.01507373
1756341646825,-0.20721117,-0.07523818,0.20771838,-0.09318912,-0.01240980,-0.07995877,0.98664824,0.04990413,-0.15434365,0.01458998
1756341646850,-0.10981731,0.05953951,0.03562193,-0.06066919,0.00523359,-0.04587200,0.98670305,0.04917003,-0.15428032,0.01403493
1756341646857,1.55630552,-1.82341054,-2.72050115,-0.21771233,-0.01156342,-0.06763371,0.98673774,0.04840804,-0.15432079,0.01379821
1756341646864,-0.59884692,0.71809405,1.01331681,-0.13683592,0.00546142,-0.06062504,0.98676913,0.04789490,-0.15430031,0.01357087
1756341646874,-0.36441104,0.29462415,0.58463379,-0.10482022,0.00438274,-0.01770184,0.98679997,0.04735508,-0.15427774,0.01347971
1756341646886,-0.18013893,0.24099700,0.16430151,-0.08696006,-0.00551781,-0.04984343,0.98682196,0.04687245,-0.15430836,0.01320307
1756341646899,-0.04505534,0.08756072,0.02330784,-0.04430318,-0.00967763,-0.03229766,0.98682869,0.04657783,-0.15437272,0.01298830
1756341646908,0.14948719,-0.17227912,-0.40233797,-0.06056337,-0.01618436,-0.02471305,0.98683177,0.04628713,-0.15445041,0.01286967
1756341646919,-0.11385366,-0.04277748,0.09349549,-0.04778576,-0.00073613,-0.03542910,0.98684531,0.04603625,-0.15445427,0.01268367
1756341646930,-0.06078924,-0.11298229,0.09361465,-0.04874202,0.00265979,-0.03724297,0.98686331,0.04575842,-0.15443911,0.01247138
1756341646942,0.17550245,0.03211529,-0.72478437,-0.07893666,0.00462603,-0.02003253,0.98688917,0.04531638,-0.15441320,0.01235920
1756341646952,0.14043019,0.03433599,-0.43789529,-0.04653230,0.01536710,-0.02116385,0.98691532,0.04506278,-0.15432945,0.01224386
1756341646964,-0.04464545,0.19781398,-0.01769400,-0.02216607,0.00663342,-0.03307478,0.98692956,0.04493421,-0.15429098,0.01205203
1756341646975,-0.17079631,0.22043138,0.58543534,-0.07652862,0.01351318,-0.02594262,0.98696022,0.04453627,-0.15422071,0.01191712
1756341646986,-0.07339403,-0.04749158,0.42189002,-0.07090601,0.02326761,-0.00355194,0.98699899,0.04413565,-0.15408925,0.01189706
1756341646998,-0.10755896,-0.08025607,0.15296035,-0.08428173,0.02187897,-0.00719857,0.98704356,0.04361731,-0.15395469,0.01185278
1756341647008,-0.08094675,-0.23706234,-0.00150911,-0.11083817,0.02249137,-0.01485564,0.98708717,0.04305204,-0.15383999,0.01177702
1756341647020,-0.03355202,0.01594220,0.19584026,-0.08379976,0.03013335,0.00761804,0.98713494,0.04256600,-0.15366521,0.01182121
1756341647032,0.05592621,0.09512317,0.07258469,-0.05005423,0.01851568,-0.00032573,0.98716491,0.04226818,-0.15355505,0.01181927
1756341647042,0.47028757,0.11049586,-0.42460826,-0.05133359,0.00135186,0.00184891,0.98717728,0.04200124,-0.15354802,0.01182888
1756341647054,0.14331290,0.07596624,0.11621909,-0.02997854,-0.00386654,0.02474694,0.98717942,0.04182887,-0.15357025,0.01197118
1756341647065,0.07568912,-0.01980039,0.10738688,-0.04172496,-0.02700508,0.01783455,0.98716481,0.04159938,-0.15371878,0.01206927
1756341647075,-0.30580969,-0.22660430,0.69525047,-0.06201749,-0.02200842,0.00315012,0.98716036,0.04127999,-0.15383212,0.01208549
1756341647086,-0.01438291,-0.02711182,0.22464826,-0.06222270,-0.03017556,-0.01012534,0.98714892,0.04092221,-0.15400563,0.01202727
1756341647098,0.04011162,-0.02902836,0.19710791,-0.06537236,-0.04025001,-0.01565888,0.98712973,0.04055286,-0.15423304,0.01193880
1756341647109,0.05274747,0.03804353,0.17831447,-0.05701004,-0.05423000,0.00205289,0.98709485,0.04023075,-0.15453944,0.01195040
1756341647120,0.05342950,-0.04897040,0.09171878,-0.02112329,-0.04956306,0.00875215,0.98705452,0.04010929,-0.15482443,0.01200072
1756341647132,0.10950291,0.02540059,0.22015440,-0.07376128,-0.05265366,0.02691481,0.98702251,0.03968885,-0.15512455,0.01215413
1756341647143,1.10889241,0.10274809,-0.22025962,-0.05147782,-0.07444337,0.03513294,0.98696601,0.03940057,-0.15554144,0.01235088
1756341647156,-0.18881110,0.22817923,-0.01288884,-0.01832934,-0.06216922,-0.01408097,0.98690903,0.03928327,-0.15593932,0.01226076
1756341647177,-0.35458390,0.08420571,-0.12215699,0.00668990,-0.04230484,-0.01486411,0.98683753,0.03935385,-0.15638564,0.01210394
1756341647186,2.03174076,0.48435773,2.85936195,0.01519378,-0.20853231,0.04462653,0.98669003,0.03941918,-0.15728233,0.01229584
1756341647199,-1.33859632,-0.23651962,-1.21540261,-0.01102454,-0.06428815,-0.01343189,0.98662582,0.03934587,-0.15770984,0.01220652
1756341647208,0.33497637,-0.23763373,0.67683264,-0.03766746,-0.08610113,-0.02454987,0.98657251,0.03917825,-0.15809299,0.01209727
1756341647219,-0.27328904,-0.06884281,-0.25649277,-0.05358622,-0.07257708,-0.03181633,0.98652134,0.03887816,-0.15849942,0.01191910
1756341647231,-0.02896279,-0.06360876,-0.09494589,-0.04003269,-0.06062276,-0.01874910,0.98647203,0.03862996,-0.15887528,0.01180285
1756341647242,0.21496387,0.07483179,-0.29237961,-0.04344585,-0.06263331,-0.02644806,0.98642917,0.03839970,-0.15920724,0.01166268
1756341647253,-0.06967972,0.01121828,-0.12164441,-0.05115855,-0.06291210,-0.03324560,0.98638632,0.03811832,-0.15955326,0.01147983
1756341647265,0.00466295,0.00115584,0.04248116,-0.04994341,-0.04789384,-0.03309640,0.98635444,0.03782616,-0.15983344,0.01128621
1756341647276,0.17395491,-0.28845739,0.45407864,-0.01180674,-0.07137302,-0.03600679,0.98629441,0.03776004,-0.16023312,0.01108458
1756341647287,-0.18151287,0.33404070,-0.04466547,-0.01194290,-0.06668525,-0.06051339,0.98623997,0.03769316,-0.16060656,0.01074570
1756341647298,0.07460084,-0.21097307,-0.14445003,0.01058074,-0.06106918,-0.04921800,0.98618492,0.03775241,-0.16094855,0.01047008
1756341647310,-0.02132238,0.07623710,0.15436638,-0.00552048,-0.05743227,-0.02889468,0.98613482,0.03772122,-0.16127304,0.01030683
1756341647321,-0.02827101,-0.08499140,-0.15799938,0.01255802,-0.05481035,-0.01686370,0.98608101,0.03779406,-0.16159094,0.01020902
1756341647332,0.06575473,0.01544613,-0.00397019,0.00332232,-0.06000235,-0.03794816,0.98602879,0.03781216,-0.16191795,0.01000220
1756341647343,0.44545642,-0.01470822,-0.68353736,-0.01527457,-0.05173651,-0.03302689,0.98598592,0.03772586,-0.16221027,0.00981560
1756341647355,0.04387843,-0.03127505,0.02614034,-0.01323370,-0.04219519,-0.00249580,0.98594967,0.03765109,-0.16244867,0.00980150
1756341647368,-0.31150675,0.10698693,-0.00184073,-0.00579463,-0.04269795,-0.02400114,0.98590523,0.03761198,-0.16273688,0.00963949
1756341647377,0.11121871,-0.09546895,1.07924802,0.02414097,-0.07523715,-0.03595677,0.98584605,0.03772182,-0.16307921,0.00947588
1756341647388,-0.14162716,0.14190270,-0.28530118,0.03649267,-0.06612050,-0.03455586,0.98578355,0.03791158,-0.16342304,0.00929619
1756341647399,-0.07952965,0.11347754,-0.13662637,0.01653550,-0.06641107,-0.02472081,0.98571898,0.03800501,-0.16379826,0.00915652
1756341647410,-0.02520676,0.01843828,-0.01867167,-0.00271177,-0.05439094,-0.03454479,0.98567025,0.03798968,-0.16410557,0.00896134
1756341647422,-0.05648181,0.05088031,-0.00280075,0.00221211,-0.05717574,-0.02643424,0.98561728,0.03800218,-0.16442861,0.00881199
1756341647433,-0.01662352,0.06074886,0.02716788,-0.02389985,-0.06044124,-0.00228441,0.98556647,0.03786954,-0.16476406,0.00879931
1756341647444,-0.40442047,-0.04609808,-0.86521039,0.01639665,-0.06963970,-0.01205488,0.98549949,0.03795972,-0.16514708,0.00873301
1756341647455,-0.05801328,0.06835890,-0.02244505,0.00081220,-0.06627528,-0.02720211,0.98543838,0.03796427,-0.16551822,0.00858068
1756341647466,0.04133932,0.06034590,-0.01805625,0.03603439,-0.05913987,0.01121665,0.98537435,0.03816606,-0.16584940,0.00864349
1756341647477,0.23425614,0.25611371,0.59300539,0.02411674,-0.05465851,0.01279442,0.98531692,0.03830111,-0.16615549,0.00871514
1756341647488,-0.09838813,0.30349021,-0.15172091,0.05902772,-0.06065650,-0.02601333,0.98524918,0.03862577,-0.16648910,0.00857207
1756341647499,-0.09908380,0.18339519,-0.00058052,0.05518802,-0.04682729,-0.01150257,0.98519373,0.03893206,-0.16674899,0.00850823
1756341647511,-0.12320780,0.04731839,-0.04405505,0.01768555,-0.04403620,0.01609340,0.98514684,0.03903198,-0.16699780,0.00859916
1756341647522,-0.10774681,-0.10235262,0.02840084,0.01735332,-0.02868880,0.02517396,0.98511478,0.03912829,-0.16715702,0.00873887
1756341647533,-0.12941205,-0.23744032,-0.13838697,0.03367552,-0.02240386,0.04668114,0.98508251,0.03932361,-0.16728696,0.00900962
1756341647544,-0.17439988,-0.13891537,-1.00284755,0.01383366,-0.01914295,0.00977956,0.98506168,0.03939762,-0.16738938,0.00906194
1756341647555,-0.07057030,-0.10793647,0.03609098,0.02439523,-0.02398224,0.00244427,0.98503274,0.03953668,-0.16752608,0.00907587
1756341647566,-0.02387815,-0.00763098,0.23128019,0.03075341,-0.01836955,0.01029165,0.98500822,0.03970582,-0.16762711,0.00913248
1756341647578,-0.02640769,0.00748776,0.76766882,0.02010119,-0.01996406,0.00384376,0.98498423,0.03981939,-0.16773990,0.00915420
1756341647589,-0.05883520,0.05188697,0.00551406,0.03401925,-0.02501903,-0.00292864,0.98495308,0.04000820,-0.16787876,0.00913794
1756341647602,-0.01350433,-0.01153435,-0.06247812,0.03990257,-0.00746595,0.00769297,0.98493392,0.04026557,-0.16792692,0.00918756
1756341647611,-0.12488949,0.20269504,0.15913186,0.05738306,-0.01752306,0.03229532,0.98490823,0.04052666,-0.16800665,0.00933450
1756341647625,0.03731842,-0.19468571,-0.17788479,0.03149915,-0.00586447,0.01384656,0.98489060,0.04075503,-0.16804916,0.00943489
1756341647634,-0.26139771,0.25823707,0.34106783,0.05443133,-0.00019741,0.00885309,0.98488085,0.04097820,-0.16804997,0.00947119
1756341647647,0.78542634,-0.03506426,0.13968998,0.04631584,-0.00035000,-0.00200645,0.98486772,0.04128620,-0.16805230,0.00945785
1756341647657,0.15861904,0.07478462,0.15393220,0.07851960,0.00367577,0.01825865,0.98485387,0.04166702,-0.16803447,0.00954640
1756341647668,0.07054097,-0.01129235,-0.07129959,0.06514381,0.01337162,0.00610901,0.98485092,0.04201880,-0.16796227,0.00957939
1756341647679,-0.98894764,-0.11473088,-0.46184866,0.04100539,0.00305115,-0.02099644,0.98484468,0.04226688,-0.16794381,0.00945236
1756341647689,-0.13878364,0.01248171,-0.00213371,0.06417545,0.00570788,-0.04035534,0.98483778,0.04258134,-0.16791584,0.00925462
1756341647700,-0.03850332,-0.06342828,-0.00696647,0.04121623,0.00757190,-0.02946083,0.98483658,0.04280391,-0.16787495,0.00909553
1756341647713,0.05681639,-0.06188481,-0.04380118,0.01315259,0.00271770,-0.00120199,0.98483597,0.04288677,-0.16785783,0.00908796
1756341647724,-0.12576023,-0.01465091,0.05015626,0.02718624,0.00439485,-0.02843522,0.98483498,0.04303901,-0.16783322,0.00892872
1756341647735,-0.06957980,-0.04790099,0.04537201,0.01125529,0.01619559,0.00426109,0.98484723,0.04310092,-0.16774414,0.00895216
1756341647746,-0.23074857,-0.37081161,-1.13145602,0.00568924,0.01173287,0.01730546,0.98485574,0.04313135,-0.16768137,0.00904474
1756341647758,0.06837083,0.04632023,0.18767925,0.01938138,0.01214111,-0.00713568,0.98486369,0.04325152,-0.16760610,0.00900050
1756341647767,-0.46608411,-0.09692579,-0.34405007,0.00969714,0.01863052,0.00689340,0.98487576,0.04329515,-0.16752226,0.00903152
1756341647779,0.31262004,0.29058364,1.04540246,0.00130309,0.02528057,0.02506609,0.98490041,0.04330317,-0.16736678,0.00918568
1756341647790,-0.12141481,0.06330962,0.03515026,0.02385795,0.02985268,0.01269839,0.98492167,0.04343319,-0.16720409,0.00925488
1756341647802,-0.06733793,0.05065976,-0.04295341,0.02609603,0.02033460,0.00847089,0.98493420,0.04358064,-0.16708919,0.00930274
1756341647813,-0.04301460,-0.01545774,0.04371270,0.02551208,0.03827108,0.00133694,0.98496467,0.04372606,-0.16687105,0.00931037
1756341647823,-0.31537660,-0.18701339,0.05657376,0.01704619,0.03882756,0.00487291,0.98499237,0.04380788,-0.16668468,0.00933376
1756341647836,0.24642324,-0.04449491,-0.02012437,-0.00953543,0.04783824,0.00960521,0.98504878,0.04374399,-0.16636416,0.00939811
1756341647846,-0.30487798,-0.05848834,-0.35183480,0.01190853,0.05032402,-0.00029791,0.98509021,0.04380591,-0.16610248,0.00939656
1756341647857,0.09979194,0.11681188,0.03876543,-0.00017043,0.05648147,0.00068018,0.98514112,0.04380500,-0.16580030,0.00940020
1756341647869,0.21349583,0.17094339,-0.18809225,0.02985095,0.04514371,-0.00034897,0.98517996,0.04399008,-0.16552041,0.00939804
1756341647879,-0.24377151,0.47421975,0.38881681,0.08609571,0.06586242,0.02503238,0.98521194,0.04438612,-0.16521744,0.00951319
1756341647884,-1.31954789,1.45192888,0.21147548,0.13308171,0.09051438,0.02772619,0.98523636,0.04475209,-0.16496853,0.00958943
1756341647901,0.80324908,-0.57461738,-0.13116873,0.03246675,0.02747710,0.00397780,0.98526268,0.04502968,-0.16473360,0.00962344
1756341647906,-2.54323525,1.67569388,0.74396143,0.07489127,0.05964229,-0.01277237,0.98528034,0.04522815,-0.16457555,0.00958960
1756341647924,0.77948911,-0.67163505,-0.23710739,0.03168888,0.02399191,0.01285137,0.98530103,0.04549909,-0.16437042,0.00969947
1756341647936,-0.16217173,0.05357157,0.14638737,0.01408961,0.03260800,0.01312178,0.98532920,0.04558433,-0.16417314,0.00977886
1756341647940,-1.86585750,0.78887310,-2.70603099,0.09324738,0.09697700,0.03632604,0.98535155,0.04576616,-0.16398403,0.00984970
1756341647954,0.91641158,-0.34996973,0.22405058,0.01923073,0.02703087,0.01138061,0.98537648,0.04590366,-0.16379076,0.00993107
1756341647962,0.07350984,0.02064585,-0.44509962,0.06376486,0.03377902,0.05493101,0.98538519,0.04617147,-0.16364889,0.01016178
1756341647974,-0.10823160,0.10992172,0.61610245,0.04183406,0.02759346,0.02345835,0.98539883,0.04641202,-0.16349023,0.01029666
1756341647988,0.03260172,-0.04931229,0.10248340,0.04408715,0.02368052,0.00116188,0.98541219,0.04673385,-0.16331736,0.01030515
1756341647996,-0.23928822,0.52115314,0.00801444,0.08126343,0.03045834,-0.03033360,0.98541824,0.04706297,-0.16319400,0.01018230
1756341648008,0.13772741,-0.18139998,-0.09250906,0.07022587,0.01486072,-0.01494700,0.98541395,0.04746326,-0.16310930,0.01009710
1756341648020,0.05387105,-0.03567557,-0.05501151,0.04299353,0.00962668,-0.03769101,0.98541332,0.04772767,-0.16305009,0.00986530
1756341648031,-0.01317186,0.01155924,0.08206169,-0.00650246,0.01969266,-0.00991316,0.98543296,0.04769288,-0.16294474,0.00981226
1756341648042,0.28033093,-0.45071723,-0.13049334,-0.01325086,0.02786236,0.01751933,0.98546186,0.04761735,-0.16278592,0.00991212
1756341648055,-0.11500643,0.02230259,0.08416427,-0.02676876,0.01508143,-0.01313948,0.98548632,0.04745005,-0.16269166,0.00983000
1756341648065,0.02916127,-0.25430716,-0.04743651,-0.01091624,0.01128457,-0.01139578,0.98549920,0.04739383,-0.16263355,0.00977131
1756341648076,-0.16844541,0.21925738,0.26813721,-0.01901799,-0.00219980,-0.00799211,0.98550266,0.04728923,-0.16264565,0.00972736
1756341648088,0.06871324,0.03451891,-0.03148482,-0.00690318,0.00730622,-0.01006725,0.98551223,0.04724885,-0.16260290,0.00966846
1756341648100,0.01293483,0.03606445,0.05970431,-0.00366319,0.00343137,-0.00132844,0.98551691,0.04722613,-0.16258163,0.00966023
1756341648110,0.01041045,0.05706730,-0.01457463,0.00170807,0.00134852,-0.00185189,0.98551769,0.04723450,-0.16257502,0.00965115
1756341648121,0.03638403,0.00638078,-0.00665230,0.01400922,0.00518521,-0.00531564,0.98551901,0.04731295,-0.16254599,0.00962138
1756341648132,-0.00617714,-0.04228965,0.01045362,0.01534258,-0.00295798,-0.00187368,0.98551225,0.04739887,-0.16256255,0.00961089
1756341648144,0.07079952,-0.16511969,-0.32691323,0.01396021,-0.00386261,-0.00181714,0.98550502,0.04747705,-0.16258418,0.00960072
1756341648155,0.02470856,-0.04276481,0.14540036,0.00673914,0.00212009,0.00268409,0.98550501,0.04751479,-0.16257231,0.00961575
1756341648166,-0.02185757,0.03967624,0.08457930,0.00466507,0.00231563,-0.00836698,0.98550635,0.04754091,-0.16255934,0.00956889
1756341648177,-0.06557271,0.00926571,0.30695632,0.03048903,-0.00392813,-0.00320970,0.98549464,0.04771165,-0.16258134,0.00955092
1756341648189,0.03569290,0.12498976,0.08781521,0.02482025,-0.00200729,-0.00326819,0.98548615,0.04785189,-0.16259268,0.00953245
1756341648200,-0.03269050,0.11306180,0.04986629,0.02559244,-0.00902888,-0.00353888,0.98547116,0.04799392,-0.16264279,0.00951281
1756341648211,0.02999341,0.03628235,0.00870776,0.01833450,0.00068940,0.00228975,0.98546671,0.04809568,-0.16263896,0.00952552
1756341648222,-0.03936190,0.04188300,-0.00992458,0.03667442,-0.00526555,-0.01485558,0.98545247,0.04830289,-0.16266871,0.00944158
1756341648233,0.02778618,0.01413459,-0.00937571,0.02217779,0.00320852,-0.02452505,0.98545062,0.04842931,-0.16265043,0.00930179
1756341648244,0.57379032,0.08842557,-0.12275327,0.03534818,-0.00064949,-0.01597611,0.98544136,0.04862195,-0.16265396,0.00921472
1756341648256,-0.11154170,-0.04005933,0.06875368,0.00046540,0.00466569,-0.01774230,0.98544656,0.04862461,-0.16262737,0.00911359
1756341648267,-0.00678406,-0.02304851,-0.00722481,0.00964038,0.00343537,-0.02311678,0.98544823,0.04867763,-0.16260848,0.00898645
1756341648278,-0.53613160,-0.07778237,0.16636460,0.00556111,0.00172946,-0.01228452,0.98544892,0.04870905,-0.16259870,0.00891704
1756341648289,0.00333456,0.03749175,-0.04449727,0.01606444,0.01110413,-0.00982263,0.98545522,0.04879901,-0.16253652,0.00886203
1756341648300,-0.05509207,0.06562141,-0.04185344,0.01567902,0.00983386,-0.00180874,0.98545996,0.04888524,-0.16248244,0.00885209
1756341648312,0.00426047,0.06338349,-0.02412922,0.01891019,0.02177985,0.00791023,0.98547492,0.04899492,-0.16235611,0.00889797
1756341648322,-0.02362462,-0.03579820,0.01419489,0.04373880,0.01734602,-0.00632695,0.98547881,0.04922674,-0.16226418,0.00886443
1756341648334,-0.03658813,-0.05470192,-0.11641386,0.02983395,0.01896047,-0.01227230,0.98548846,0.04939232,-0.16215895,0.00879632
1756341648345,-0.12546485,-0.03535053,-0.26816405,0.00221995,0.02322637,-0.00562796,0.98550951,0.04940475,-0.16202888,0.00876481
1756341648356,-0.05892732,-0.11183788,0.06829552,0.01538510,0.00343436,-0.00180772,0.98550846,0.04948937,-0.16200999,0.00875486
1756341648367,0.05930054,-0.00087257,0.12013888,-0.00108473,0.02489476,-0.00723633,0.98553203,0.04948329,-0.16187058,0.00871434
1756341648378,0.07726413,0.01313507,0.16391847,0.02158016,0.01978876,-0.00263193,0.98554417,0.04960306,-0.16176075,0.00869973
1756341648389,0.04791885,0.06205821,-0.09973319,0.04898999,0.01204734,0.00034134,0.98554138,0.04987741,-0.16169329,0.00870164
1756341648400,0.06775297,0.15701187,-0.01353677,0.06007027,0.02620726,-0.00432552,0.98554851,0.05021080,-0.16154784,0.00867764
1756341648411,-0.00967529,0.06821082,-0.08514258,0.03649789,0.00660987,-0.00782947,0.98554457,0.05041336,-0.16151115,0.00863418
1756341648423,0.01656655,-0.09919382,0.01797064,0.03544651,0.01116207,-0.01077455,0.98554516,0.05061186,-0.16144864,0.00857385
1756341648434,0.07036184,-0.08567818,-0.12069065,0.01102196,-0.00619817,-0.00789585,0.98553676,0.05067303,-0.16148304,0.00853002
1756341648445,0.36694264,0.02884377,-0.05619784,-0.00362967,0.01132009,0.00051951,0.98554817,0.05065270,-0.16141965,0.00853293
1756341648456,-0.05241504,-0.02813610,-0.04198386,0.01851816,0.01037178,0.00583344,0.98555202,0.05075548,-0.16136209,0.00856531
1756341648467,-0.08417505,0.06821082,0.01548047,0.00923319,0.01264299,0.00099998,0.98556082,0.05080672,-0.16129192,0.00857086
1756341648478,-0.25170171,-0.15435459,0.10482209,0.01780182,0.01835349,0.02317740,0.98557145,0.05090731,-0.16118822,0.00870181
1756341648489,0.01000066,0.10803364,-0.02737337,0.00990022,0.00773013,0.00261558,0.98557550,0.05096225,-0.16114532,0.00871633
1756341648501,0.08417505,-0.06917835,-0.05321411,0.02701531,0.02111763,0.03391434,0.98558521,0.05111219,-0.16102812,0.00890455
1756341648512,0.02805835,0.02176941,0.03386353,-0.00030058,0.03267276,0.00800415,0.98561450,0.05111052,-0.16084678,0.00894898
1756341648523,-0.03096094,0.06143811,-0.11126587,0.02497271,0.02084802,-0.01027122,0.98562669,0.05124912,-0.16073108,0.00889197
1756341648534,0.04607384,0.05158746,-0.00369002,0.03366852,0.02811033,-0.04978487,0.98564501,0.05143766,-0.16057366,0.00861317
1756341648545,0.04349131,0.02970401,-0.05529603,0.05361167,0.01905088,-0.08419989,0.98565063,0.05173521,-0.16046793,0.00814587
1756341648556,0.03241223,0.05877741,-0.00677271,0.02860991,0.02452816,-0.02849607,0.98566573,0.05189399,-0.16033180,0.00798771
1756341648567,-0.04015247,0.01814118,0.05127905,0.02549690,0.03917854,0.00459114,0.98569341,0.05203550,-0.16011436,0.00801319
1756341648578,-0.17180410,0.01050713,0.02114696,0.02640396,0.04572829,-0.00232215,0.98572726,0.05218336,-0.15985828,0.00800019
1756341648590,-0.20882220,0.00632997,-0.00295442,0.05004455,0.07637211,-0.01077603,0.98578164,0.05246111,-0.15943441,0.00794038
1756341648601,-0.15593243,0.05822670,0.03932815,0.06242603,0.08973657,0.01626806,0.98584229,0.05280445,-0.15894086,0.00802986
1756341648612,-0.14641981,0.06008240,0.04888148,0.05393120,0.10391535,0.00555728,0.98591946,0.05310647,-0.15835893,0.00806098
1756341648623,-0.14424826,0.01422570,0.04328830,0.07504278,0.11414369,-0.01714663,0.98599925,0.05352295,-0.15772544,0.00796581
1756341648634,0.04235189,-0.05290728,-0.16457985,0.08837657,0.12703134,-0.02746988,0.98608781,0.05402228,-0.15700771,0.00781061
1756341648645,0.09892113,-0.04654856,-0.38250201,0.10375747,0.13100205,-0.02102835,0.98617174,0.05459295,-0.15628720,0.00769495
1756341648656,-0.08669767,0.12438159,-0.01083721,0.14077419,0.16994130,0.00550916,0.98627602,0.05536720,-0.15535252,0.00772525
1756341648667,-0.37601069,0.31731059,0.23386737,0.16642670,0.18963676,0.02051718,0.98638905,0.05629919,-0.15429056,0.00784015
1756341648679,-0.44142789,0.33974267,0.32976422,0.18044004,0.23277668,0.01129865,0.98653338,0.05730966,-0.15298701,0.00790342
1756341648693,-0.26289906,0.03645463,-0.10157118,0.15737983,0.20373681,0.02031563,0.98668774,0.05841132,-0.15156085,0.00804563
1756341648700,-1.62534202,1.02872175,0.42233253,0.28658548,0.38145485,-0.01142377,0.98684868,0.05952900,-0.15007317,0.00800108
1756341648712,0.87520471,-0.77396765,-0.15681418,0.19792615,0.29432772,-0.00197031,0.98702894,0.06062749,-0.14843966,0.00799014
1756341648723,-0.24720375,0.10715387,0.16931763,0.17771180,0.29619213,-0.00030843,0.98721372,0.06161379,-0.14679579,0.00798843
1756341648734,-0.03993951,0.21722085,0.04377507,0.18626753,0.32754423,-0.00525437,0.98741932,0.06265689,-0.14496154,0.00795901
1756341648745,-0.44665470,0.23116757,-0.27084381,0.21877378,0.32295727,0.00737002,0.98760433,0.06388202,-0.14315298,0.00800028
1756341648756,-0.05228978,0.12180071,0.12171865,0.26665677,0.37863204,0.00862537,0.98780944,0.06536197,-0.14105157,0.00804815
1756341648767,-0.31154445,0.43079244,0.06579199,0.24348996,0.39851965,0.00318927,0.98803228,0.06671334,-0.13883979,0.00806585
1756341648778,-0.25499448,-0.17697717,0.01017690,0.26909626,0.41018072,0.01713531,0.98825058,0.06823373,-0.13652227,0.00816266
1756341648790,-0.19758070,0.10129695,0.21372753,0.24709418,0.43978400,0.01898007,0.98848610,0.06959275,-0.13410346,0.00826705
1756341648801,-0.21302060,-0.21390181,-0.22165132,0.24094489,0.41182069,0.02528505,0.98869915,0.07094204,-0.13179726,0.00840865
1756341648812,-0.07452414,-0.04484119,0.02564021,0.25351943,0.42973799,0.00097688,0.98891594,0.07237443,-0.12936924,0.00841417
1756341648823,0.00823471,0.03011619,0.41707122,0.22798761,0.46183338,0.03591280,0.98915068,0.07362836,-0.12682916,0.00861169
1756341648834,-0.14137631,-0.03793023,0.00886681,0.21772087,0.47289467,0.02205626,0.98938980,0.07482582,-0.12422824,0.00873300
1756341648868,0.89662109,-0.45880882,-0.24095791,0.07549050,0.13924533,0.01262501,0.98958661,0.07612426,-0.12183322,0.00895015
1756341648876,-21.41592705,8.50448854,3.14713765,0.74578554,1.67121663,0.17851372,0.99009271,0.07880909,-0.11581684,0.00959280
1756341648886,11.11079235,-4.23614220,-1.29017250,0.19767685,0.48202440,0.05628215,0.99029941,0.07984689,-0.11328621,0.00988828
1756341648898,0.17864761,-0.63793978,-0.16856058,0.25189950,0.46528617,0.08508805,0.99047899,0.08129531,-0.11061081,0.01037754
1756341648908,-0.95584690,1.02569385,0.14237661,0.25673309,0.49493183,0.07465400,0.99064366,0.08259181,-0.10811141,0.01075454
1756341648919,0.57323564,-0.36053714,0.02283520,0.24209343,0.46043372,0.08200529,0.99079987,0.08392333,-0.10557902,0.01120557
1756341648931,0.47724499,0.14108840,0.17677009,0.19710858,0.42063821,0.06691997,0.99095747,0.08508627,-0.10309726,0.01160040
1756341648942,0.17857358,-0.42441153,-0.61937948,0.23019020,0.38962620,0.04406037,0.99106953,0.08639835,-0.10087639,0.01185154
1756341648953,0.29972302,-0.24746514,-0.02442108,0.21388036,0.36732970,0.10270907,0.99116130,0.08755331,-0.09889281,0.01240617
1756341648965,0.39626838,0.19788476,0.20728892,0.18101929,0.35380955,0.08089725,0.99126723,0.08863037,-0.09678764,0.01288751
1756341648974,-1.65521718,1.12172304,0.21977604,0.23526181,0.42175836,0.10599622,0.99135447,0.08975963,-0.09476320,0.01339629
1756341648985,0.54311311,-0.68312828,-0.07618472,0.25995225,0.35455174,0.11212661,0.99140071,0.09121536,-0.09277771,0.01402420
1756341648998,0.42471771,0.09175925,0.05110171,0.20501053,0.33594196,0.10907079,0.99146488,0.09246592,-0.09072846,0.01468953
1756341649008,-0.41694303,-0.37590404,0.32295148,0.25992319,0.41960316,0.13692249,0.99152383,0.09380453,-0.08856751,0.01539468
1756341649019,-0.29017332,0.45861916,-0.22341962,0.22266369,0.33158367,0.06991956,0.99156305,0.09505145,-0.08671064,0.01578623
1756341649031,0.58438030,-0.29475019,0.06908405,0.21421187,0.33807609,0.10680811,0.99160297,0.09630459,-0.08473289,0.01641106
1756341649042,0.12137225,-0.03407190,-0.35999499,0.23772901,0.34698218,0.12938221,0.99162515,0.09767153,-0.08273775,0.01715501
1756341649054,-0.19768086,0.22600274,0.22904585,0.22739168,0.36566281,0.13264120,0.99165452,0.09894492,-0.08069004,0.01789780
1756341649065,0.06747337,-0.51389049,-0.16155596,0.23246507,0.35691029,0.16395317,0.99166740,0.10024672,-0.07869134,0.01881594
1756341649076,-0.21166248,0.53592270,0.29663089,0.19093240,0.34912830,0.11311199,0.99170052,0.10134459,-0.07668385,0.01946633
1756341649088,0.10919275,-0.10645288,0.03236694,0.23583366,0.35134586,0.09130648,0.99170471,0.10267705,-0.07469875,0.01998221
1756341649099,0.00177487,0.14606563,-0.24092732,0.25129960,0.31335888,0.03994119,0.99168348,0.10412202,-0.07289693,0.02021187
1756341649110,0.21748076,-0.06351917,0.09831362,0.24951315,0.30399005,0.08091368,0.99165012,0.10551929,-0.07119459,0.02066499
1756341649121,-0.27736561,-0.17580958,0.00748971,0.22489376,0.28872164,0.07069762,0.99162202,0.10676745,-0.06959218,0.02105736
1756341649133,0.49481192,-0.24348449,0.21694464,0.19906506,0.32500271,0.06814013,0.99161920,0.10789217,-0.06775592,0.02144235
1756341649144,-0.06592043,-0.40351753,-0.52465777,0.15728469,0.29508709,0.07536663,0.99162526,0.10876510,-0.06611818,0.02186064
1756341649155,0.04234769,-0.04194187,-0.04104404,0.14835724,0.27668101,0.06056090,0.99162836,0.10960332,-0.06455494,0.02220281
1756341649169,0.65348005,-0.10014206,0.07048586,0.10292604,0.22994401,0.05866839,0.99164230,0.11030322,-0.06299132,0.02260175
1756341649178,-1.25888462,0.65326788,0.47952984,0.17880929,0.30814813,0.06236430,0.99163233,0.11117044,-0.06149680,0.02290422
1756341649190,0.59348546,-0.29289243,-0.21903618,0.15340896,0.23942506,0.06886441,0.99160890,0.11202953,-0.06015602,0.02328986
1756341649200,0.05573765,-0.00397564,0.07597010,0.17081488,0.24545063,0.08422959,0.99157438,0.11291777,-0.05887968,0.02372785
1756341649212,0.50324071,-0.24250319,-0.19000680,0.14392168,0.18926853,0.05279348,0.99153346,0.11381008,-0.05770621,0.02405517
1756341649223,-0.27322825,0.28059670,0.34227305,0.14358311,0.21854326,0.07467537,0.99150347,0.11455672,-0.05656979,0.02444348
1756341649233,0.20721334,-0.25543084,-0.23534914,0.14911714,0.19928190,0.07348875,0.99146186,0.11534704,-0.05551359,0.02483298
1756341649247,0.49451631,-0.16283945,-0.10845062,0.12430113,0.14375207,0.04074469,0.99141082,0.11618607,-0.05454326,0.02510800
1756341649257,-0.40103891,0.30752895,-0.04189662,0.17212670,0.16844692,0.06785845,0.99134627,0.11705531,-0.05369261,0.02545069
1756341649270,0.69239637,-0.26956019,-0.40234548,0.13958265,0.11238409,0.05123954,0.99127000,0.11795562,-0.05296773,0.02578118
1756341649280,-0.26451535,0.31911575,0.46099308,0.13538799,0.15100103,0.07874096,0.99121999,0.11861902,-0.05222783,0.02616701
1756341649289,0.07039035,-0.07547857,-0.21944684,0.14861164,0.14036872,0.06992304,0.99116072,0.11933235,-0.05155406,0.02650264
1756341649300,-0.03109700,-0.15782066,0.16293799,0.12658584,0.09691997,0.04253844,0.99109738,0.12003491,-0.05101615,0.02673873
1756341649312,0.34199955,-0.04064258,0.00181230,0.10518036,0.10252419,0.02126125,0.99104877,0.12066599,-0.05040100,0.02686630
1756341649326,0.19864794,-0.03321632,0.01416226,0.08900042,0.08156313,0.01892865,0.99100091,0.12125339,-0.04986269,0.02699123
1756341649335,-0.41972309,-0.00762464,0.00639816,0.13507387,0.09861482,0.03594384,0.99094162,0.12188824,-0.04939920,0.02716016
1756341649346,0.33438250,0.05419917,0.06070037,0.08935423,0.07808123,0.02662576,0.99089992,0.12236181,-0.04898537,0.02730128
1756341649357,-0.43098514,-0.71246014,-0.85965727,0.06970278,0.07636225,0.02025340,0.99086874,0.12276261,-0.04854628,0.02741774
1756341649369,0.37196666,-0.13080019,-0.04508944,0.05731501,0.06707033,0.01305668,0.99084439,0.12309503,-0.04815728,0.02749347
1756341649380,0.04373153,0.02659283,0.04165063,0.07427762,0.06151440,0.01915776,0.99080632,0.12351099,-0.04781280,0.02760075
1756341649391,0.39010503,0.45072722,0.72167612,0.07020434,0.06017014,0.01397418,0.99077000,0.12391817,-0.04746381,0.02768180
1756341649401,-0.12486444,0.06794226,0.07638556,0.06973477,0.07241768,0.01797937,0.99074138,0.12426336,-0.04710534,0.02777080
1756341649412,0.07530485,-0.02032441,-0.04246060,0.07075380,0.07389838,0.00803579,0.99071106,0.12464543,-0.04670629,0.02781419
1756341649423,0.00942509,-0.02170929,-0.03724512,0.08194173,0.07381613,0.02945412,0.99066914,0.12509201,-0.04630399,0.02797472
1756341649435,0.03489018,-0.01209922,-0.02283935,0.07727624,0.06916877,0.03079237,0.99062680,0.12553249,-0.04590973,0.02815023
1756341649446,0.02380825,-0.02932266,0.01247099,0.07903670,0.07885300,0.02638150,0.99058677,0.12597509,-0.04546815,0.02829797
1756341649457,0.12659830,0.14565577,-0.11590183,0.10162488,0.06479064,0.02698170,0.99052757,0.12653403,-0.04511181,0.02844637
1756341649468,0.28870648,0.29158362,-0.11000161,0.09653104,0.06618734,0.02510990,0.99047062,0.12707943,-0.04473785,0.02858824
1756341649479,-0.00690365,0.19728026,-0.03685797,0.12233602,0.07879240,0.02761810,0.99039980,0.12774616,-0.04430843,0.02873876
1756341649490,-0.07884793,-0.10483884,0.02279727,0.12918650,0.08564295,0.03740684,0.99032005,0.12848252,-0.04382026,0.02895198
1756341649500,-0.27206778,0.10137337,0.08521152,0.14292553,0.08851290,0.03039837,0.99024054,0.12921144,-0.04336885,0.02910701
1756341649507,-0.88038162,1.13267641,0.22490985,0.20964664,0.15586172,0.02885365,0.99017285,0.12987183,-0.04287788,0.02919790
1756341649520,0.64629957,-0.66366005,-0.20833576,0.11056790,0.06793146,0.01174883,0.99009088,0.13062922,-0.04241255,0.02927838
1756341649530,-0.02632320,0.80310171,0.02913491,0.15533281,0.11096252,0.03247838,0.99001365,0.13134375,-0.04190213,0.02942778
1756341649541,0.10389669,-0.21634785,-0.09532700,0.12552570,0.08942810,0.02218622,0.98993683,0.13205297,-0.04139686,0.02955313
1756341649554,0.00473259,-0.24897941,-0.05411896,0.12032124,0.08796764,0.01650276,0.98985403,0.13282303,-0.04083386,0.02965875
1756341649564,-0.13228648,0.12095377,-0.05100611,0.12586919,0.09709771,0.00184909,0.98978770,0.13346496,-0.04033867,0.02966818
1756341649575,0.13447996,-0.23029278,-0.03115994,0.11128260,0.07841955,-0.00481609,0.98972031,0.13410484,-0.03988775,0.02964049
1756341649587,-0.05035263,-0.19727636,-0.08780557,0.07868223,0.08125623,-0.01006790,0.98968008,0.13454939,-0.03942865,0.02958360
1756341649598,-0.06061099,-0.19716015,-0.03847085,0.04336322,0.07278499,-0.01372937,0.98966496,0.13480090,-0.03900650,0.02950397
1756341649610,0.03748016,-0.30360782,-0.02865941,0.02466762,0.07280726,0.00216534,0.98966173,0.13494027,-0.03859514,0.02951621
1756341649621,0.16825535,-0.23349564,0.15089609,-0.00146958,0.06261113,-0.02766984,0.98968141,0.13493189,-0.03823826,0.02935849
1756341649632,0.20180089,-0.25546158,0.03669107,-0.00381308,0.06316492,-0.01170893,0.98970020,0.13491016,-0.03787822,0.02929175
1756341649644,0.07992376,-0.04702723,0.00587175,-0.01737259,0.04908159,-0.00191017,0.98972447,0.13481200,-0.03760091,0.02928095
1756341649655,0.09214219,-0.01972518,-0.03222815,-0.01563037,0.04874740,0.02022159,0.98974319,0.13472526,-0.03733036,0.02939318
1756341649666,0.16466807,0.00522895,0.11494702,-0.04827624,0.04540040,0.03313599,0.98978399,0.13445491,-0.03707612,0.02957875
1756341649677,0.12686894,-0.00641472,-0.05606942,-0.04772480,0.02932293,-0.00229204,0.98982677,0.13418765,-0.03691191,0.02956591
1756341649688,0.19281836,-0.13512372,-0.10418626,-0.04282951,0.00787554,-0.05261060,0.98987004,0.13394566,-0.03686741,0.02926866
1756341649700,0.20305443,0.03874372,-0.03547618,-0.04313764,0.00088637,-0.07860643,0.98991621,0.13370193,-0.03686240,0.02882453
1756341649711,0.16711146,0.12299964,-0.07655385,-0.05285381,-0.02716471,-0.05566987,0.98995988,0.13340331,-0.03701588,0.02851000
1756341649722,0.08660176,0.29872943,0.17304659,-0.05109365,-0.03175875,-0.05386408,0.98999965,0.13312230,-0.03719056,0.02821375
1756341649733,0.03939723,-0.03616363,-0.04148506,-0.05880316,-0.03242907,-0.03059755,0.99004228,0.13279006,-0.03737378,0.02804087
1756341649745,0.09802628,-0.07632046,-0.05321427,-0.06480470,-0.03858503,-0.00971458,0.99008462,0.13242391,-0.03759179,0.02798598
1756341649756,0.12926618,-0.23173142,-0.18941138,-0.08592333,-0.04785776,-0.02733435,0.99014192,0.13195133,-0.03785500,0.02783564
1756341649767,-0.02148204,-0.08559170,-0.00566046,-0.07420976,-0.04899749,-0.02074297,0.99019208,0.13151721,-0.03814164,0.02771430
1756341649778,0.16840675,-0.01012218,-0.04892197,-0.08894319,-0.05627012,-0.04724444,0.99025002,0.13104581,-0.03843987,0.02746390
1756341649789,-0.38231025,-0.19901327,-0.32791735,-0.05655149,-0.05339439,-0.02863794,0.99028466,0.13072912,-0.03873888,0.02730353
1756341649800,-0.02826136,-0.04596628,-0.07456887,-0.05381186,-0.05299406,-0.02616388,0.99031649,0.13043046,-0.03903300,0.02715832
1756341649811,0.04112000,-0.03531482,0.05321411,-0.06244903,-0.05017043,-0.01441083,0.99035325,0.13008387,-0.03931144,0.02707834
1756341649822,0.34374630,0.11944006,0.25884152,-0.05743790,-0.04169052,-0.00728343,0.99038666,0.12976796,-0.03954074,0.02703828
1756341649834,0.00744712,0.06564615,-0.01352923,-0.03603458,-0.05378243,-0.02444730,0.99040474,0.12956617,-0.03984192,0.02690138
1756341649847,-0.12104727,0.13300319,0.04370583,-0.03108769,-0.04116964,-0.01889795,0.99042324,0.12936876,-0.04010335,0.02678137
1756341649856,0.59861693,0.01217409,-0.37830575,-0.03881018,-0.05216372,-0.02136551,0.99043963,0.12918829,-0.04034591,0.02668203
1756341649867,-0.29608152,0.10077935,-0.00103397,-0.02271667,-0.03685435,-0.02501174,0.99045166,0.12905995,-0.04055414,0.02654071
1756341649878,-0.04350069,0.00586387,0.01852721,-0.04674933,-0.03426216,-0.00479356,0.99047858,0.12879815,-0.04074601,0.02651386
1756341649889,-0.02942408,-0.11137606,0.05254990,-0.02747640,-0.01620207,-0.01502483,0.99049676,0.12864703,-0.04083512,0.02643123
1756341649901,-0.13586458,0.06468523,0.03265503,-0.01435105,-0.01466731,-0.01094498,0.99050567,0.12856451,-0.04091945,0.02636829
1756341649911,-0.03511331,0.11957944,-0.06000635,-0.03265257,-0.02864896,-0.04980500,0.99052926,0.12838819,-0.04107416,0.02609935
1756341649923,-0.44253661,0.08303941,0.06870528,-0.00938901,0.00526817,-0.05040223,0.99054469,0.12833561,-0.04104466,0.02581710
1756341649934,-0.19766846,0.04751646,-0.02185757,-0.02467340,-0.02057380,-0.02747363,0.99056180,0.12819744,-0.04115987,0.02566324
1756341649945,-0.06250400,-0.05579178,0.02718928,-0.03065000,0.00513478,-0.04841854,0.99059137,0.12803039,-0.04113189,0.02539936
1756341649957,0.22393914,-0.02276442,0.09251430,-0.04253493,-0.00614310,-0.03493068,0.99062845,0.12777306,-0.04116905,0.02518803
1756341649969,-0.06296213,-0.02754332,0.03292119,-0.04028455,0.00243973,-0.01768569,0.99066261,0.12753336,-0.04115453,0.02508280
1756341649980,-0.04516057,0.00852915,-0.01755066,-0.02875134,0.00399563,-0.02670130,0.99068870,0.12736804,-0.04113156,0.02492927
1756341649990,0.05700775,0.27442281,-0.17134084,-0.02518505,-0.01806603,-0.01606435,0.99070214,0.12725093,-0.04121557,0.02485457
1756341650002,-0.18025598,0.15622185,0.17547500,-0.03247364,-0.00950833,-0.01210453,0.99072740,0.12704960,-0.04127452,0.02477952
1756341650014,-0.05647930,-0.12571746,-0.02282909,-0.02417273,-0.01944256,-0.00229189,0.99074217,0.12689731,-0.04139701,0.02476508
1756341650024,0.04737866,-0.37158620,-0.07031058,-0.06245418,-0.00999440,-0.00164640,0.99077833,0.12660065,-0.04144448,0.02475726
1756341650036,-0.22971569,-0.15121100,0.17552669,-0.05651340,-0.00822463,-0.02250307,0.99082439,0.12625027,-0.04149547,0.02461774
1756341650047,-0.04088583,-0.15082311,-0.04811593,-0.07855369,-0.01149280,0.01193918,0.99087506,0.12581822,-0.04155868,0.02468341
1756341650057,-0.28287815,-0.04142755,-0.07036680,-0.08524075,-0.00515743,0.00604755,0.99092464,0.12541333,-0.04158318,0.02471213
1756341650068,-0.18391399,0.13580283,0.10530337,-0.09245965,-0.01195734,0.00762170,0.99098725,0.12488631,-0.04165134,0.02475558
1756341650080,0.04871198,-0.03813521,0.04191496,-0.08681116,-0.00091951,0.00538837,0.99105172,0.12436544,-0.04165685,0.02478791
1756341650090,0.17578714,-0.41450322,-0.14280279,-0.08499818,0.00289420,-0.01812717,0.99110558,0.12395745,-0.04164296,0.02470090
1756341650102,0.07547734,0.08397483,0.04920246,-0.05561170,0.01047914,-0.02087114,0.99115183,0.12363212,-0.04158166,0.02457880
1756341650113,-0.08443676,-0.04412773,-0.06120033,-0.08132936,0.00518519,-0.04993626,0.99121549,0.12318481,-0.04155314,0.02430415
1756341650124,-0.26910117,0.01649631,-0.00457647,-0.07794599,0.01694657,-0.03845427,0.99128226,0.12272493,-0.04145316,0.02407727
1756341650135,-0.41067487,-0.06750244,-0.14083323,-0.07827739,0.01502167,-0.05342147,0.99134254,0.12231789,-0.04137504,0.02379948
1756341650147,0.09726190,0.07790423,0.01417323,-0.04300888,0.02173891,-0.03867582,0.99138497,0.12206199,-0.04124570,0.02356936
1756341650158,0.31864329,0.00539884,-0.06220286,-0.06402577,0.00536878,-0.02614921,0.99143594,0.12168743,-0.04121429,0.02341639
1756341650167,0.26670264,-0.34610308,-0.22739314,-0.08840088,0.03313086,-0.03969740,0.99149442,0.12129405,-0.04106686,0.02323973
1756341650179,-0.04358472,0.23465466,0.12280296,-0.07027242,0.01413183,-0.01437215,0.99154811,0.12089701,-0.04098701,0.02315853
1756341650190,0.09072081,0.15895082,-0.16841006,-0.07333925,0.00937432,-0.00484812,0.99160373,0.12046431,-0.04093170,0.02312993
1756341650201,-0.02119317,0.10512522,-0.24947975,-0.07048563,0.00983436,-0.01418955,0.99165201,0.12009778,-0.04088057,0.02305614
1756341650212,-0.00567780,0.13637053,0.14966961,-0.05585831,0.00184664,0.01109055,0.99168916,0.11978219,-0.04087013,0.02311880
1756341650223,-0.08551114,0.04548701,0.12017416,-0.03811301,0.02987977,0.03095913,0.99171672,0.11957637,-0.04070878,0.02328598
1756341650234,-0.17038416,0.05097256,0.13866167,-0.04210446,0.00881028,0.00660928,0.99174680,0.11933638,-0.04065856,0.02332365
1756341650245,0.00802852,0.01074214,0.01332614,-0.03523637,0.01206695,0.00699558,0.99177191,0.11914258,-0.04059219,0.02336213
1756341650257,-0.05452793,0.27376125,0.19352872,-0.02899865,0.01281984,0.00486859,0.99179409,0.11897729,-0.04051912,0.02338988
1756341650267,-0.06660771,0.27536525,0.13457420,-0.00766151,0.00846276,0.02159051,0.99179809,0.11893668,-0.04047427,0.02350431
1756341650279,-0.00780335,0.05730750,0.04190557,-0.00370661,0.02357851,0.02320075,0.99180291,0.11891574,-0.04034105,0.02363540
1756341650290,-0.10239591,-0.09092308,-0.12114569,0.01139716,0.00442594,0.00971706,0.99179475,0.11898127,-0.04031560,0.02369127
1756341650296,-0.89241322,-0.20898068,-0.84003219,-0.00513725,0.03537982,0.05934270,0.99179661,0.11896612,-0.04021123,0.02386633
1756341650309,0.48171156,-0.04782709,0.49423484,0.00832662,0.01797432,0.04670479,0.99178764,0.11901941,-0.04009619,0.02416524
1756341650319,-0.24243511,-0.13159804,-0.07437982,0.01489070,0.02742357,0.09655317,0.99177220,0.11909461,-0.03995771,0.02465283
1756341650330,-0.15925213,-0.07596694,0.07599372,0.00384749,0.02877166,0.07898541,0.99176480,0.11911673,-0.03979227,0.02510700
1756341650342,0.08878726,0.09982933,0.06039336,0.00757890,0.01708231,0.04823758,0.99175644,0.11916031,-0.03969405,0.02538437
1756341650353,0.29700916,0.22940464,0.11087140,0.03539098,0.01246038,-0.00954543,0.99173624,0.11936381,-0.03962240,0.02532948
1756341650365,0.32787859,0.25565700,0.08845739,0.03815294,-0.00430807,-0.04836420,0.99171606,0.11958128,-0.03964695,0.02505380
1756341650376,0.11440186,0.18644613,0.05022501,0.03914361,-0.01869001,-0.04693538,0.99169137,0.11980635,-0.03975442,0.02478393
1756341650388,0.10591686,0.15203731,-0.10670441,0.04864362,-0.02260465,-0.01212425,0.99165341,0.12009092,-0.03988666,0.02471300
1756341650399,0.09121527,-0.04444139,0.02859608,0.04036120,-0.01229956,-0.00032147,0.99162383,0.12031291,-0.03995431,0.02471123
1756341650410,0.01007846,-0.16862005,0.04112860,0.01629287,-0.02004949,0.01364060,0.99160616,0.12040496,-0.04006759,0.02478830
1756341650422,-0.00459606,-0.28681859,0.20657465,0.02112833,-0.01234111,0.02096592,0.99158605,0.12052328,-0.04013670,0.02490571
1756341650433,0.00580189,-0.06290355,0.06174928,-0.00547936,-0.03265583,0.02152180,0.99157896,0.12049095,-0.04032937,0.02503269
1756341650444,0.02941361,0.18343229,0.14741448,0.01281620,-0.03793215,-0.01458564,0.99156418,0.12056016,-0.04053420,0.02495392
1756341650455,0.00866158,0.01220790,0.03986748,0.01340002,-0.04261452,-0.01112454,0.99154668,0.12063587,-0.04077497,0.02489107
1756341650466,0.09007409,-0.05850881,0.04720320,0.00794852,-0.04454890,0.01045010,0.99153012,0.12067879,-0.04101554,0.02494750
1756341650478,0.00558789,-0.22061280,-0.11807139,-0.00417658,-0.04923271,0.01375637,0.99151911,0.12065436,-0.04130355,0.02502798
1756341650489,0.10982202,-0.08897092,0.06982404,0.02074468,-0.05285269,0.02331307,0.99149062,0.12076534,-0.04158631,0.02515270
1756341650500,-0.02081804,-0.03495267,0.01288694,0.02500247,-0.05689923,0.01630720,0.99145753,0.12090661,-0.04190779,0.02524484
1756341650511,-0.04163787,0.14143295,0.16407895,0.00767024,-0.06399522,0.01418341,0.99143505,0.12094956,-0.04226616,0.02532426
1756341650522,0.05321843,-0.08172831,-0.01710592,0.02691372,-0.06572471,-0.00509104,0.99140162,0.12110028,-0.04263422,0.02529575
1756341650534,0.09118714,-0.05322253,-0.01474195,0.00864392,-0.06645916,0.00508860,0.99137850,0.12114955,-0.04301304,0.02532476
1756341650545,0.13809230,-0.12289515,-0.07529008,0.00790337,-0.07220303,-0.00138845,0.99135607,0.12119301,-0.04341015,0.02531712
1756341650556,0.02434571,-0.00735209,-0.00798276,0.01254887,-0.06360085,0.00082260,0.99133170,0.12126329,-0.04376632,0.02532173
1756341650567,0.02531990,0.03886963,-0.00278165,-0.00481675,-0.06643013,0.01413423,0.99131661,0.12123655,-0.04413501,0.02540017
1756341650578,-0.00846307,0.08573296,-0.05521327,-0.00389736,-0.05940757,-0.01456997,0.99130650,0.12121473,-0.04446769,0.02531858
1756341650589,-0.00570197,0.01045362,-0.00475165,-0.01270845,-0.07916728,-0.01225048,0.99129697,0.12114356,-0.04491103,0.02524998
1756341650601,0.10548654,-0.11641532,0.07697666,0.00376247,-0.07022804,0.00654709,0.99127556,0.12116463,-0.04530430,0.02528664
1756341650612,0.02589437,0.00202792,0.16569804,-0.03252812,-0.06419021,-0.00497659,0.99128197,0.12098410,-0.04566056,0.02525902
1756341650623,-0.04789270,-0.01112659,-0.02225317,-0.00776515,-0.06824447,-0.01732907,0.99127216,0.12094100,-0.04603932,0.02516285
1756341650634,-0.03245393,0.09459037,0.05772744,-0.02391093,-0.06330068,-0.01460894,0.99127400,0.12080949,-0.04638747,0.02508250
1756341650645,-0.05371088,0.07292048,-0.00499355,-0.00826403,-0.05568224,-0.00272290,0.99126538,0.12076322,-0.04669929,0.02506725
1756341650656,0.03373669,0.07697666,0.04941712,-0.01094083,-0.05694355,-0.01141212,0.99125938,0.12070195,-0.04701817,0.02500334
1756341650667,0.03151381,-0.01930955,-0.02946645,0.00755004,-0.05381606,-0.01534012,0.99124221,0.12074385,-0.04731685,0.02491820
1756341650679,0.00155392,-0.00509625,-0.03256804,0.02291095,-0.06610757,-0.02068686,0.99121174,0.12087215,-0.04768706,0.02480236
1756341650690,-0.00108415,0.00852851,0.02318615,0.01881213,-0.05390747,-0.01315522,0.99118639,0.12097656,-0.04798624,0.02472935
1756341650701,-0.01354541,-0.00677271,0.02322070,0.01012826,-0.04367283,0.00179771,0.99116751,0.12103277,-0.04822863,0.02473932
1756341650712,-0.15370932,0.05219105,-0.04409185,0.01990096,-0.04061041,0.00482995,0.99114213,0.12114422,-0.04845604,0.02476637
1756341650723,-0.00335144,0.04324328,0.03247644,0.01030248,-0.04014117,0.00674692,0.99112345,0.12120088,-0.04867682,0.02480348
1756341650734,0.00566742,-0.03914492,-0.11647580,0.03713139,-0.04439463,-0.00669032,0.99108670,0.12140882,-0.04892543,0.02476601
1756341650745,0.12876960,-0.00498923,0.01805625,0.02612435,-0.03553958,-0.01083645,0.99106044,0.12155511,-0.04912445,0.02470533
1756341650757,-0.01840287,0.05264104,-0.07036823,0.02226027,-0.04755356,-0.00594385,0.99103224,0.12168200,-0.04939551,0.02467145
1756341650767,0.02237253,-0.02377681,-0.04499167,0.03559863,-0.04400666,-0.00355286,0.99099754,0.12187245,-0.04963094,0.02465244
1756341650779,-0.17892833,-0.01280946,-0.14008029,0.01363296,-0.02939719,-0.00275306,0.99098028,0.12194879,-0.04979557,0.02463702
1756341650790,-0.06010776,-0.04283693,-0.06582655,0.00455883,-0.04212113,-0.00596558,0.99096621,0.12197409,-0.05002934,0.02460392
1756341650801,0.03821741,-0.04886023,0.00967529,0.00286246,-0.02742903,-0.00201158,0.99095684,0.12198998,-0.05018157,0.02459275
1756341650812,0.01076612,-0.09205993,0.00813345,-0.00712419,-0.02052008,0.00977843,0.99095456,0.12195009,-0.05029648,0.02464751
1756341650823,-0.06165840,-0.00458929,-0.07012860,-0.00703605,-0.01638904,-0.00088781,0.99095487,0.12191104,-0.05038744,0.02464258
1756341650834,-0.13400281,0.02902588,-0.10933082,-0.00693977,-0.01302202,-0.00590596,0.99095674,0.12187252,-0.05045971,0.02460981
1756341650845,-0.14772910,0.03588991,-0.15190712,-0.01127251,-0.01474115,0.00254899,0.99095994,0.12180939,-0.05054227,0.02462408
1756341650857,-0.03943866,-0.03041053,-0.03611251,-0.01838427,-0.00324634,0.00158392,0.99097144,0.12170644,-0.05056044,0.02463295
1756341650868,-0.09414838,-0.09696026,-0.07538954,-0.02844926,0.00029424,-0.00060558,0.99099099,0.12154855,-0.05055881,0.02462959
1756341650879,0.06047058,-0.15553034,0.00483765,-0.05117276,0.00569793,0.00590984,0.99102658,0.12126454,-0.05052719,0.02466239
1756341650890,-0.06482447,-0.04982776,-0.08223999,-0.02038746,-0.00184675,0.00972111,0.99103855,0.12115139,-0.05053744,0.02471634
1756341650901,-0.09824937,0.03962548,-0.03974531,-0.03199057,0.01338900,-0.00684758,0.99106474,0.12097544,-0.05046380,0.02467868
1756341650912,-0.16890805,-0.05860939,-0.19061875,-0.02287549,0.00417745,0.00023825,0.99108152,0.12084734,-0.05044040,0.02468001
1756341650923,-0.06116600,-0.02778191,-0.01789929,-0.02676920,0.01348983,0.00166687,0.99110320,0.12069877,-0.05036554,0.02468926
1756341650935,-0.01860018,0.04102721,0.04045529,-0.03859192,0.01495829,-0.00473629,0.99113469,0.12048072,-0.05028102,0.02466250
1756341650945,0.08592941,-0.00761178,0.08816256,-0.04147717,0.01123192,0.00028504,0.99116521,0.12025467,-0.05021981,0.02466406
1756341650957,-0.01126417,-0.03816193,0.00866338,-0.03370263,0.01580887,-0.00321526,0.99119277,0.12006762,-0.05013207,0.02464621
1756341650968,-0.00020548,0.06629402,-0.03953712,-0.03279978,0.00731750,-0.00435990,0.99121768,0.11988395,-0.05009109,0.02462180
1756341651005,0.04360102,0.05961592,0.07089053,-0.00495463,0.00159008,0.00055915,0.99122999,0.11979228,-0.05006167,0.02463214
1756341651011,-1.53566991,-1.40027415,-4.35966982,-0.09587912,0.03497437,0.04610472,0.99126777,0.11949506,-0.04995325,0.02477507
1756341651019,0.71302031,0.62752201,2.59796149,-0.03315110,0.00298666,-0.00765803,0.99128620,0.11935417,-0.04994056,0.02474252
1756341651032,0.12206528,0.02461423,0.13339598,-0.02978395,-0.00337058,0.00089382,0.99130689,0.11917249,-0.04996112,0.02474797
1756341651042,-0.00408479,-0.02528470,-0.16933216,-0.05376080,-0.00410954,0.03068814,0.99133511,0.11889562,-0.04998228,0.02490602
1756341651053,0.09914358,0.04981367,-0.10108333,-0.02063720,0.00294312,0.02525925,0.99134613,0.11878108,-0.04996595,0.02504620
1756341651065,0.07941119,0.04970849,0.08842557,-0.03149892,-0.00547078,0.03046365,0.99136206,0.11859681,-0.04999795,0.02522442
1756341651075,0.04510014,0.07806569,0.00399524,-0.01372124,0.00204756,-0.01938331,0.99137358,0.11852615,-0.04998741,0.02512459
1756341651087,0.02115455,0.23423532,0.18347989,-0.01493020,-0.02286010,-0.02617419,0.99138107,0.11843955,-0.05012000,0.02497278
1756341651098,-0.01143246,0.07068342,-0.04868204,0.02311264,-0.01998356,-0.07562867,0.99136994,0.11857592,-0.05023790,0.02452657
1756341651110,0.05412835,0.17179590,-0.11693166,-0.00606615,-0.02325613,-0.04412309,0.99137344,0.11854225,-0.05036697,0.02428169
1756341651143,-0.00428164,-0.08090880,0.13075873,-0.00183826,0.00150268,-0.00327115,0.99137972,0.11851155,-0.05034188,0.02422706
1756341651157,-0.20033845,-0.59118455,-1.12090505,-0.18100453,-0.02548636,-0.00373634,0.99152294,0.11723547,-0.05052156,0.02420072
1756341651168,0.06059528,0.24058324,1.15960377,-0.06391863,-0.00162229,-0.00195087,0.99156500,0.11687752,-0.05053064,0.02418980
1756341651180,-0.14955511,0.12803486,-0.07776912,-0.03348522,-0.00908916,-0.01799058,0.99158792,0.11668164,-0.05058381,0.02408455
1756341651197,0.07874661,0.16710467,0.16458876,0.01956441,0.01066897,-0.00254735,0.99157357,0.11684696,-0.05049366,0.02406303
1756341651208,-0.13403102,0.20119956,-0.05160936,-0.01066084,-0.00318626,0.01699754,0.99157731,0.11678832,-0.05051118,0.02415651
1756341651219,0.08805815,-0.08834671,0.12485408,0.04154301,0.01787652,0.03758700,0.99154959,0.11702304,-0.05041018,0.02436888
1756341651230,-0.03360901,-0.04901314,0.12416662,0.02547036,0.03144750,0.05596468,0.99153379,0.11716695,-0.05023250,0.02468508
1756341651243,0.15108809,-0.09416203,-0.08679328,0.00255302,0.01901136,0.00439239,0.99153717,0.11718265,-0.05011558,0.02471209
1756341651253,0.08857130,-0.01582337,0.00210978,0.00652667,0.01143843,-0.01692560,0.99153837,0.11721691,-0.05005553,0.02462323
1756341651264,0.05214527,0.00288523,0.03527957,0.00275926,0.01220218,-0.00362886,0.99154046,0.11723209,-0.04998842,0.02460327
1756341651286,-0.04756935,0.01171788,0.07064455,-0.00367560,-0.00027531,0.00255690,0.99154440,0.11719147,-0.04999146,0.02463153
1756341651311,0.00211837,0.00390316,0.04971966,-0.00892715,0.01435525,0.00237342,0.99156588,0.11707988,-0.04981202,0.02466120
1756341651313,-6.40392303,5.22666507,5.73582119,0.13626365,0.03186971,-0.03415897,0.99155564,0.11718208,-0.04978812,0.02463558
1756341651324,0.86866110,-0.48757847,-0.77161322,0.00278084,-0.00063347,-0.03330957,0.99155829,0.11719793,-0.04979173,0.02444571
1756341651335,0.08313387,-0.04601813,0.04550712,-0.01263510,-0.01478981,-0.00263991,0.99156269,0.11712970,-0.04987160,0.02443146
1756341651353,0.01753799,-0.06141363,-0.03017025,-0.01217469,-0.01290054,-0.00855188,0.99157167,0.11702013,-0.04998770,0.02435449
1756341651366,0.02899116,-0.05612328,0.10324393,-0.06725231,-0.01417423,0.01447433,0.99161517,0.11659308,-0.05007771,0.02444640
1756341651376,0.05953401,-0.11949435,-0.03308948,-0.03870812,-0.00276363,0.00488358,0.99163811,0.11638599,-0.05009249,0.02447253
1756341651386,0.20476087,-0.10564251,-0.19262607,-0.03694993,-0.02338256,0.00864362,0.99165206,0.11621048,-0.05020356,0.02451359
1756341651398,-0.01261474,0.13852304,0.02376724,-0.00580342,-0.00490650,-0.00051931,0.99165486,0.11617392,-0.05023447,0.02451031
1756341651409,-0.02708373,0.03639148,0.01854250,0.00865298,-0.03433858,0.01545083,0.99163791,0.11622064,-0.05041990,0.02459375
1756341651421,-0.09018713,0.11991369,0.14615607,-0.00611733,-0.01141545,-0.00145361,0.99163893,0.11618424,-0.05048782,0.02458510
1756341651433,0.04840533,-0.10212938,0.01475986,-0.01023713,-0.01080134,0.01878730,0.99164004,0.11612180,-0.05055371,0.02469970
1756341651445,-0.01742530,-0.06397585,0.02193547,-0.00961194,-0.02443879,0.00392795,0.99163881,0.11606797,-0.05069057,0.02472170
1756341651454,0.17180953,-0.26179181,0.08075518,-0.00192029,-0.01916834,0.01826886,0.99163311,0.11605895,-0.05078066,0.02480756
1756341651466,-0.01068632,0.10999914,-0.05187983,-0.01056605,-0.01429539,0.00380894,0.99163550,0.11599713,-0.05086429,0.02482985
1756341651476,0.04785662,0.03251256,0.00748491,0.01474423,-0.03532311,-0.01121810,0.99161937,0.11607012,-0.05103913,0.02477432
1756341651487,-0.20067215,0.21569976,-0.08131276,-0.00319730,-0.04704891,-0.01475512,0.99161018,0.11605269,-0.05129555,0.02469390
1756341651499,0.03269791,-0.00358022,-0.04468445,0.02231725,-0.01904914,-0.00749314,0.99158885,0.11619218,-0.05141461,0.02464707
1756341651509,0.16577929,0.06814775,0.10130727,0.00665748,-0.02230573,-0.02619940,0.99158227,0.11622613,-0.05152837,0.02451345
1756341651521,0.02420215,-0.08474262,-0.03788163,-0.00334738,-0.01613822,-0.00480724,0.99158032,0.11620621,-0.05162439,0.02448485
1756341651531,0.01144908,-0.02400529,-0.03945092,-0.00471537,-0.03617920,-0.01112680,0.99157486,0.11618193,-0.05181071,0.02442754
1756341651543,-0.06177514,0.05889281,0.02016722,-0.02443967,-0.03689726,-0.01763066,0.99158256,0.11604384,-0.05201918,0.02432793
1756341651554,0.00587438,0.06105865,-0.04606153,0.00105285,-0.02226680,-0.01785336,0.99157777,0.11604974,-0.05214388,0.02422795
1756341651566,0.01464489,0.02863470,-0.04658217,0.00924196,-0.01971002,-0.01777963,0.99156791,0.11610380,-0.05225918,0.02412394
1756341651576,0.18590791,0.07353465,-0.11188634,0.01599131,-0.02767115,-0.02562223,0.99155422,0.11618456,-0.05239892,0.02399455
1756341651587,0.03241408,-0.00078767,-0.02584933,0.00875627,-0.01313044,-0.02950716,0.99154867,0.11623272,-0.05247114,0.02383226
1756341651600,-0.13998061,-0.08199744,-0.01573585,-0.00126072,-0.00954085,-0.01071265,0.99154800,0.11622440,-0.05253411,0.02376156
1756341651609,0.01097950,-0.19235497,0.05275403,-0.01692863,-0.01917399,0.00126160,0.99155217,0.11614907,-0.05261943,0.02376717
1756341651620,-0.24556221,-0.09654095,0.04079930,-0.01692699,-0.00896751,-0.00082696,0.99156064,0.11605512,-0.05266920,0.02376258
1756341651631,-0.03361258,-0.04770483,0.00612864,-0.02714811,-0.00150895,0.00341073,0.99157706,0.11590717,-0.05267742,0.02378117
1756341651642,-0.02257562,-0.02157226,-0.04615459,-0.02224932,-0.00083724,0.00303313,0.99159059,0.11578591,-0.05268199,0.02379770
1756341651653,-0.04973908,0.08044752,-0.02924871,-0.01122231,-0.00326182,-0.00651934,0.99159770,0.11572418,-0.05269993,0.02376184
1756341651664,-0.02019557,0.11660152,0.01748013,-0.00711649,-0.00046769,-0.01228563,0.99160414,0.11568255,-0.05270266,0.02368997
1756341651675,0.06485822,0.15259882,-0.14379517,0.00770920,0.00309676,-0.01362252,0.99160194,0.11572380,-0.05268610,0.02361709
1756341651686,-0.03046382,0.04870215,-0.03088126,0.01120233,0.00284132,-0.00745765,0.99159646,0.11578653,-0.05267018,0.02357533
1756341651699,-0.04757950,-0.03168557,0.01616119,0.00832053,0.00537880,-0.00463475,0.99159280,0.11583936,-0.05263603,0.02354590
1756341651708,-0.09232449,-0.13335609,0.04018780,-0.00030525,0.01907312,-0.00688241,0.99159843,0.11583795,-0.05254734,0.02351390
1756341651719,-0.08024672,-0.07238719,0.01882033,-0.01674454,0.00083044,0.00643168,0.99160831,0.11574836,-0.05254290,0.02354831
1756341651731,-0.01342314,-0.01642699,0.02663322,-0.00922373,0.00429045,-0.00434715,0.99161682,0.11569256,-0.05251694,0.02352201
1756341651742,-0.02859993,0.00964595,-0.01383974,-0.01390420,0.00176610,0.00743220,0.99162521,0.11561678,-0.05250731,0.02356251
1756341651754,-0.04248755,0.07670923,-0.01829545,-0.00250889,0.00642810,0.00971400,0.99162754,0.11560223,-0.05247003,0.02361885
1756341651766,-0.00759817,0.02707968,0.02512136,0.00378623,0.01082216,0.02713440,0.99162440,0.11562514,-0.05240456,0.02378301
1756341651776,-0.03291586,-0.06768206,-0.05739962,0.01105231,0.01257512,0.01182749,0.99161972,0.11568206,-0.05233979,0.02384393
1756341651787,0.02086572,-0.03206900,0.03089031,0.01197485,0.00698726,0.01279452,0.99161224,0.11574911,-0.05230067,0.02391558
1756341651799,0.01988450,0.00178590,0.04044418,0.00496902,0.00744785,0.02329860,0.99160799,0.11577719,-0.05225859,0.02404721
1756341651810,-0.06109533,0.08747306,0.03143710,0.00671498,0.01107592,0.04082214,0.99160112,0.11581580,-0.05219490,0.02428194
1756341651821,-0.01720096,-0.08354013,0.04190538,-0.00897783,0.01419453,0.03267890,0.99160667,0.11576552,-0.05211541,0.02446494
1756341651832,-0.00380132,0.10453621,0.01995691,-0.00591654,0.02025432,0.01676676,0.99161417,0.11573239,-0.05200199,0.02455884
1756341651844,0.03024561,0.16254149,-0.03542616,0.02025976,0.00622973,-0.00032517,0.99160270,0.11584686,-0.05196679,0.02455700
1756341651855,0.02252288,0.16895160,-0.00365606,0.02223591,0.01100762,-0.01760666,0.99159389,0.11597027,-0.05190570,0.02445928
1756341651866,0.03779428,0.11463481,-0.05203686,0.04484227,-0.00960019,-0.04982119,0.99156806,0.11622587,-0.05196042,0.02417530
1756341651877,0.05348177,0.20195275,-0.01465435,0.03857496,-0.00317651,0.00264844,0.99154214,0.11643610,-0.05197773,0.02418973
1756341651888,0.00489550,-0.15809249,-0.00459471,0.02929334,-0.00153235,0.01150367,0.99152083,0.11660015,-0.05198631,0.02425416
1756341651900,-0.11109228,-0.12927007,0.05984104,-0.01259756,0.00041737,-0.00120691,0.99152949,0.11652897,-0.05198395,0.02424734
1756341651911,-0.00156260,-0.27503734,0.10153064,0.00455238,0.00765127,0.00735760,0.99152775,0.11655424,-0.05194149,0.02428817
1756341651922,-0.05214611,-0.12637021,0.01416356,-0.01632464,0.00178254,0.01259163,0.99153737,0.11646200,-0.05193142,0.02435931
1756341651933,0.03760521,-0.02591566,0.07072383,-0.02954022,0.00504208,0.01819426,0.99155559,0.11629805,-0.05190343,0.02446029
1756341651944,-0.04826131,-0.02707582,-0.03725975,-0.01974498,-0.00425766,0.00382449,0.99156678,0.11618748,-0.05192727,0.02448171
1756341651956,0.02402410,-0.04306801,0.04146554,-0.00873178,0.00591774,0.00681012,0.99157324,0.11613902,-0.05189443,0.02451951
1756341651967,-0.02624127,0.07079255,0.00981524,-0.00667364,0.00495288,0.01228955,0.99157740,0.11610131,-0.05186645,0.02458894
1756341651978,0.05750838,-0.16855570,0.00244337,0.00521322,0.00435572,0.01794460,0.99157268,0.11613103,-0.05184162,0.02469123
1756341651989,0.11409055,-0.04127108,0.04308653,0.01739591,0.01412291,0.02534650,0.99156224,0.11622497,-0.05176536,0.02482810
1756341652000,-0.02002018,0.05941871,-0.02403978,0.02235419,0.00288537,0.01035297,0.99154681,0.11635127,-0.05174905,0.02488659
1756341652011,-0.01221910,0.19063852,0.02420281,0.01384292,-0.00120219,-0.00132927,0.99153771,0.11642740,-0.05175567,0.02487928
1756341652022,0.11456867,-0.14255885,0.01669428,0.02427315,0.00691551,-0.00192939,0.99152415,0.11656212,-0.05171728,0.02486857
1756341652034,0.02159319,0.02449377,0.03788105,-0.00304910,-0.00302688,0.00266829,0.99152492,0.11654474,-0.05173454,0.02488378
1756341652045,0.05247401,-0.00301008,0.00533365,-0.00671677,-0.00586189,-0.00351278,0.99152803,0.11650813,-0.05176649,0.02486464
1756341652056,0.07790955,0.04189295,0.00766366,0.00146613,-0.01042136,0.00546877,0.99152325,0.11651634,-0.05182484,0.02489526
1756341652067,0.01845217,0.09202759,-0.01220642,0.00828106,-0.01010571,-0.00867366,0.99151612,0.11656230,-0.05188093,0.02484712
1756341652078,0.00208247,0.13881249,0.12217135,0.00628971,-0.02074653,-0.02711492,0.99150957,0.11659816,-0.05199919,0.02469257
1756341652089,0.10717477,0.05995300,0.03430790,0.00942121,-0.02782794,-0.01916250,0.99149816,0.11664950,-0.05215085,0.02458813
1756341652100,0.06281333,-0.01290477,-0.04803080,0.00873488,-0.02465469,-0.00200757,0.99148564,0.11669754,-0.05228645,0.02457709
1756341652111,-0.05430699,0.00954217,-0.07471315,-0.00796180,-0.02340000,-0.01476752,0.99148602,0.11665296,-0.05241749,0.02449439
1756341652122,-0.00114894,-0.05072834,-0.00715281,-0.00208759,-0.02515143,-0.01232397,0.99148168,0.11664137,-0.05255708,0.02442599
1756341652134,0.04257129,-0.05756800,0.02612329,-0.01484892,-0.02779459,0.00794621,0.99148209,0.11655896,-0.05271134,0.02447010
1756341652145,-0.02964856,0.02203736,0.00020548,-0.00276314,-0.01920602,-0.00926157,0.99147947,0.11654349,-0.05281889,0.02441823
1756341652156,0.00723067,-0.01991513,0.00253337,0.00328599,-0.01930152,0.00667593,0.99147077,0.11656156,-0.05292505,0.02445495
1756341652167,-0.00192187,-0.02136701,-0.03464635,0.01111292,-0.01665240,0.00205628,0.99145830,0.11662324,-0.05301747,0.02446636
1756341652178,0.08454819,-0.14239042,-0.18762507,0.00334687,-0.01210434,-0.00040078,0.99145247,0.11664215,-0.05308586,0.02446410
1756341652189,-0.04108147,0.02183791,0.00136995,0.01332250,-0.00405010,0.00005294,0.99144256,0.11671609,-0.05310834,0.02446439
