UnixTime(ms),Ax,Ay,Az,Gx,Gy,Gz,QuatW,QuatX,QuatY,QuatZ
1759199191535,0.00000000,0.00000000,0.00000000,0.00000000,0.00000000,0.00000000,0.92935202,0.08417149,0.32244349,0.15890305
1759199191570,-0.03692047,0.03941373,-0.03777674,-0.01310497,-0.00093322,-0.00376215,0.92938904,0.08394609,0.32242744,0.15883834
1759199191601,0.12862267,-0.11374491,0.01647565,-0.01030800,-0.01383068,0.00078687,0.92947711,0.08378373,0.32220961,0.15885073
1759199191623,-0.08825757,0.04249069,0.14659113,0.00119868,-0.01598810,-0.00998678,0.92955564,0.08379692,0.32203374,0.15874088
1759199191657,-0.04137646,-0.00221259,0.00402955,0.01788777,0.00592172,0.00597671,0.92947711,0.08409654,0.32213293,0.15884099
1759199191668,0.01122363,-0.32249192,0.63677456,0.03774716,0.02032878,0.00864294,0.92940902,0.08431170,0.32224880,0.15889025
1759199191690,-0.04330130,0.25526746,-0.36765812,0.02205061,-0.00255327,-0.02475281,0.92944324,0.08455426,0.32222071,0.15861797
1759199191713,0.02511240,0.01287088,-0.04558109,0.00081251,0.00108923,0.00352613,0.92943128,0.08456348,0.32223308,0.15865800
1759199191724,-0.07201274,0.06500774,-0.02684841,0.00498027,0.00835855,0.01197105,0.92940134,0.08459112,0.32227947,0.15872443
1759199191735,0.08562635,-0.08538446,-0.01294070,0.00543842,0.00946739,0.00983234,0.92937104,0.08462130,0.32233201,0.15877900
1759199191747,0.02589119,-0.45773690,0.17073998,-0.02495742,-0.00403509,-0.00262140,0.92939493,0.08447655,0.32230861,0.15876380
1759199191757,0.08494984,-0.15482676,-0.04531710,-0.02647250,0.00726208,0.00203707,0.92939248,0.08433624,0.32234710,0.15877460
1759199191769,-0.04971467,0.14204810,0.01338705,-0.03695128,0.01457087,-0.01582711,0.92939816,0.08412562,0.32243015,0.15868438
1759199191780,-0.15236279,0.42887502,-0.24201881,-0.00582361,0.01632027,-0.01014893,0.92937979,0.08409417,0.32251828,0.15862958
1759199191801,0.03413082,0.02172459,0.04311622,-0.00083554,0.00684529,0.00214378,0.92935046,0.08408498,0.32259358,0.15865316
1759199191813,-0.18987692,0.17053551,-0.02520215,0.02766366,0.01771500,0.02418599,0.92927374,0.08425096,0.32269987,0.15879828
1759199191824,0.09188276,-0.09307843,-0.17534042,0.01582468,-0.00424517,0.01297532,0.92926186,0.08433721,0.32267673,0.15886899
1759199191834,0.17157572,-0.11922709,0.12945103,0.00166344,-0.00936183,-0.01134085,0.92928730,0.08434561,0.32262945,0.15881172
1759199191846,0.24726906,0.19623356,0.09355920,0.00311224,-0.01246827,-0.00644962,0.92931613,0.08436304,0.32255963,0.15877560
1759199191868,-0.03229824,-0.02003662,-0.00257934,-0.00427466,-0.00660172,-0.00032197,0.92934703,0.08431473,0.32248503,0.15877196
1759199191880,0.02590694,0.25218427,-0.10146887,0.00387428,-0.00736360,-0.01230074,0.92937135,0.08433662,0.32244343,0.15870246
1759199191890,-0.31021255,-0.51903035,-0.11529569,0.01257327,0.00322870,0.00693043,0.92935326,0.08440263,0.32246038,0.15873885
1759199191902,0.03214204,0.00890796,0.09958671,0.00544762,-0.00134404,-0.00573844,0.92935887,0.08443478,0.32245245,0.15870499
1759199191914,-0.00644915,0.00582849,0.04331330,-0.00085409,-0.00151791,-0.01536211,0.92937807,0.08442969,0.32244342,0.15861359
1759199191924,0.02365195,0.06008981,-0.09273953,-0.00451608,0.00624195,-0.01155861,0.92937917,0.08440689,0.32247494,0.15855522
1759199191936,-0.04713022,0.03986149,0.03912296,-0.00602474,0.00335942,-0.01273904,0.92938834,0.08437134,0.32249476,0.15848006
1759199191946,0.03965986,-0.00114329,0.17904969,0.00404618,0.00700742,0.00658318,0.92936716,0.08439319,0.32253260,0.15851561
1759199191957,0.04124967,0.09024041,0.18596735,-0.01152119,0.01164118,0.01768538,0.92933529,0.08433213,0.32259430,0.15860934
1759199191990,0.00993012,-0.03291853,-0.06720368,0.00077508,0.00266112,0.00420812,0.92930695,0.08434496,0.32263834,0.15867898
1759199191992,-17.72256652,17.02239466,-7.85182262,0.15293592,-0.04393935,-0.01357291,0.92931008,0.08447495,0.32260099,0.15866745
1759199192035,0.70210660,-0.66930591,0.28641945,-0.00149973,0.00427730,-0.00107613,0.92928492,0.08444256,0.32269338,0.15864420
1759199192046,0.04941319,-0.00984432,0.00095459,0.00530959,0.00445079,0.00950370,0.92926502,0.08447149,0.32271764,0.15869600
1759199192058,0.43116818,-0.11859534,0.28003877,-0.00696567,-0.00837504,-0.00236249,0.92928888,0.08442935,0.32266697,0.15868170
1759199192091,-0.15586642,0.03067299,-0.10331633,-0.00114227,-0.00400657,-0.00629580,0.92933089,0.08441068,0.32260146,0.15857877
1759199192123,-0.01025658,-0.01070251,-0.01191491,0.00602585,0.00411336,-0.00659880,0.92931699,0.08450920,0.32266871,0.15847088
1759199192136,0.18839502,-0.13335580,0.33644716,-0.01151012,0.01021510,-0.01522955,0.92931757,0.08443956,0.32273052,0.15837874
1759199192183,-0.05083732,0.03613896,-0.03529496,-0.00659997,0.00242045,0.00170566,0.92930496,0.08428314,0.32278788,0.15841916
1759199192214,0.03241788,0.00716848,-0.00336012,0.00040343,0.00427532,0.00100638,0.92927880,0.08428938,0.32285393,0.15843471
1759199192225,0.05083499,0.36486426,-0.06123621,0.01822118,-0.01835206,-0.00198136,0.92930738,0.08439233,0.32275025,0.15842352
1759199192247,0.02842805,-0.19143464,0.08965272,-0.00126379,-0.01171203,0.00060162,0.92935225,0.08437842,0.32262141,0.15843013
1759199192293,-0.03714692,-0.01088707,-0.05166090,-0.00165507,-0.00039981,0.00168712,0.92935228,0.08434027,0.32261220,0.15846902
1759199192349,-0.05599683,0.00211758,-0.01298946,0.01007445,0.01557408,-0.00708639,0.92920921,0.08462186,0.32304749,0.15827096
1759199192381,-0.12934923,0.03304910,-0.03182857,0.02644747,0.01789242,0.01375425,0.92903183,0.08504898,0.32333646,0.15849309
1759199192415,0.19116593,-0.01974463,0.01289735,-0.01635548,-0.01421491,-0.00086476,0.92914349,0.08477176,0.32309551,0.15847843
1759199192436,0.11625069,-0.00670700,0.00072846,-0.03658446,-0.03941215,-0.02866809,0.92937244,0.08438945,0.32268366,0.15817885
1759199192482,-0.01340377,-0.02308375,0.05916192,-0.01309473,-0.00316886,-0.00421191,0.92944107,0.08409023,0.32261125,0.15808261
1759199192492,-0.51257777,0.01609717,0.94106735,0.09306835,0.05461205,0.01949460,0.92928744,0.08455558,0.32288431,0.15818008
1759199192525,0.01872080,0.07499605,-0.25004325,0.03606036,0.00544218,-0.01339034,0.92924021,0.08514156,0.32297274,0.15796249
1759199192548,0.01748217,-0.03565703,-0.00571177,0.00318715,0.00196462,0.02300645,0.92918325,0.08517869,0.32299563,0.15823051
1759199192582,-0.02750015,0.01588240,-0.04551494,0.00964417,0.00721944,0.00396704,0.92911364,0.08534360,0.32311908,0.15829835
1759199192615,0.05771862,0.00676850,-0.00377108,-0.00418425,0.01413565,-0.00062338,0.92904015,0.08527414,0.32335374,0.15828800
1759199192647,0.02811660,0.01775745,0.05091010,0.00617361,0.01106454,0.02224580,0.92890831,0.08537323,0.32353132,0.15864505
1759199192659,0.32531450,0.02480574,0.35991331,-0.00006973,0.00966421,-0.00796754,0.92889671,0.08537283,0.32358737,0.15859883
1759199192693,-0.08390163,-0.07944328,-0.16697202,0.00282477,0.01041098,0.00517104,0.92881633,0.08542042,0.32376280,0.15868597
1759199192704,-0.23774838,0.13201642,0.16725898,0.04366513,0.05765093,0.00946930,0.92866699,0.08567368,0.32409717,0.15874089
1759199192725,0.07732138,-0.00752843,-0.09183551,-0.00074771,0.02041664,0.00235793,0.92858826,0.08566579,0.32431257,0.15876576
1759199192748,-0.00011140,-0.03216147,-0.01172625,0.00776168,0.01026352,0.01006483,0.92851960,0.08575428,0.32442957,0.15888050
1759199192770,-0.03310577,0.04079015,0.01120839,0.00400320,0.01463017,-0.00091453,0.92846020,0.08579891,0.32459270,0.15887031
1759199192781,-0.50955653,0.34602110,-0.21168156,0.06129851,0.03690206,0.01714934,0.92834293,0.08613299,0.32479382,0.15896377
1759199192792,0.52072132,-0.16882379,-0.00036988,0.01015672,0.00796058,-0.00984380,0.92833211,0.08618682,0.32483601,0.15891160
1759199192815,0.06704470,-0.10889560,0.01091401,0.00398527,-0.00022797,-0.00293704,0.92833456,0.08623285,0.32483337,0.15887768
1759199192826,0.02183862,-0.04725445,-0.11288172,-0.01951180,0.01437177,0.00428975,0.92831282,0.08612553,0.32491242,0.15890127
1759199192838,-0.05723702,-0.01202102,-0.03113051,-0.01581159,0.01636617,-0.00465716,0.92829238,0.08603225,0.32500898,0.15887379
1759199192849,0.10737914,0.08933497,-0.09329534,0.00698929,0.01372608,-0.00453894,0.92826618,0.08607139,0.32508585,0.15884837
1759199192859,0.06019116,0.01313029,0.01858682,0.01225291,0.01009020,0.00281413,0.92823965,0.08613449,0.32513781,0.15886287
1759199192894,-0.01901894,-0.01776314,0.05930912,0.00019398,0.00312446,0.00019960,0.92821993,0.08613782,0.32519155,0.15886630
1759199192929,0.03198201,-0.02825206,-0.07394460,-0.00979245,-0.00852503,-0.00865693,0.92831371,0.08596695,0.32504279,0.15871524
1759199192962,0.11968409,-0.03913257,-0.07376510,-0.05061731,-0.03886625,-0.01987343,0.92867418,0.08512417,0.32439567,0.15838434
1759199192993,-0.01764171,0.00660289,0.04357938,-0.03255624,-0.00386873,-0.00998855,0.92876943,0.08460978,0.32433454,0.15822652
1759199193028,-0.08862008,0.03355592,0.02360674,-0.01514263,-0.00331828,0.00087183,0.92881014,0.08435160,0.32427796,0.15824139
1759199193061,-0.00851705,0.01691635,-0.05157743,-0.00424380,0.00303941,-0.01450592,0.92883982,0.08428136,0.32432827,0.15800132
1759199193072,-0.46029401,-0.17854213,-1.58725493,-0.05817055,0.05081716,-0.00639241,0.92877771,0.08396433,0.32460522,0.15796648
1759199193131,0.02962664,0.04513399,0.31370236,0.00111991,-0.00508829,-0.00569937,0.92885588,0.08399743,0.32445486,0.15779806
1759199193175,-0.00076349,-0.02719571,-0.05232135,-0.03694346,-0.03951310,-0.00607419,0.92926121,0.08317174,0.32357174,0.15766230
1759199193209,-0.01503480,-0.01260425,0.08147605,-0.02786708,-0.03500417,-0.01646115,0.92955702,0.08269939,0.32297842,0.15738329
1759199193246,0.01025882,0.00490496,0.01027998,0.00676319,-0.03181886,0.00658723,0.92972770,0.08282316,0.32239614,0.15750383
1759199193280,0.00384570,-0.00816939,-0.02790246,0.00390730,-0.06886965,-0.00040486,0.93013399,0.08289056,0.32120813,0.15749685
1759199193287,-0.27802211,-1.03625494,-4.85776066,-0.10441986,-0.51254973,-0.00617867,0.93074113,0.08255120,0.31954235,0.15747677
1759199193326,0.05274678,0.17575729,0.68221062,-0.03326299,-0.09896601,-0.00754422,0.93148357,0.08190257,0.31761251,0.15732966
1759199193380,-0.03134067,0.02597312,0.03253851,-0.02541189,-0.06976256,-0.00845864,0.93222362,0.08121518,0.31572543,0.15710085
1759199193392,-1.86006354,-0.02194779,-4.19838938,-0.20715161,-0.54817341,0.06728894,0.93333238,0.08001370,0.31254603,0.15749113
1759199193447,0.35814729,0.00490757,0.86538703,0.00118237,-0.06565474,-0.00453730,0.93395555,0.08004633,0.31073396,0.15736590
1759199193480,-0.36147299,-0.07913102,-0.59510160,-0.04736421,-0.22557583,-0.00276543,0.93527168,0.07925772,0.30697812,0.15731985
1759199193525,0.10004144,0.05020415,0.25771327,-0.02202679,-0.14650390,0.01712866,0.93631488,0.07876652,0.30371108,0.15770182
1759199193536,-3.79295915,-0.01337003,-6.33856035,-0.08558208,-0.71370415,0.01144113,0.93770122,0.07826158,0.29950023,0.15776932
1759199193577,1.02288548,0.06884993,1.69584830,-0.02726215,-0.19012267,0.02378444,0.93888700,0.07770953,0.29565024,0.15825096
1759199193621,0.16738268,-0.04728223,0.15011440,-0.01689188,-0.12430781,0.01921534,0.93969947,0.07733959,0.29292790,0.15867177
1759199193652,-0.02893577,-0.03131154,-0.31519723,-0.04329048,-0.20210715,0.00955242,0.94071947,0.07665560,0.28973461,0.15882270
1759199193685,0.08980037,-0.03829883,-0.07146184,-0.04715007,-0.20259496,-0.00403915,0.94181017,0.07588234,0.28641205,0.15875646
1759199193717,0.00725515,-0.00009658,0.03087833,-0.05311346,-0.20950226,-0.00609115,0.94288701,0.07504846,0.28312287,0.15866083
1759199193751,0.03933845,0.03757499,0.12712023,-0.06342447,-0.18328560,-0.01825922,0.94395737,0.07396707,0.27999785,0.15834951
1759199193761,-1.18484130,-0.97778583,-4.83037654,-0.10716620,-0.60784179,-0.02597347,0.94498386,0.07339374,0.27674589,0.15821055
1759199193818,0.26105235,0.16951938,1.11215351,-0.04068773,-0.09454666,-0.00359716,0.94587212,0.07223820,0.27406077,0.15810839
1759199193852,-0.03536773,-0.02020781,-0.17744815,-0.04743453,-0.10365294,-0.02888915,0.94652784,0.07142707,0.27228830,0.15761439
1759199193895,-0.00521396,0.08138469,0.05607540,-0.04837766,-0.12074152,0.00044046,0.94734705,0.07038695,0.26969236,0.15762386
1759199193918,-0.12485999,0.02595752,-0.41326431,-0.03720129,-0.19438177,0.02530615,0.94794779,0.06997030,0.26751529,0.15790729
1759199193975,0.08565170,-0.02778743,0.29888218,-0.00615799,-0.06433173,-0.01703046,0.94856222,0.06979326,0.26566575,0.15741766
1759199194019,-0.06031970,-0.00390208,-0.04724544,0.02444963,-0.07830537,-0.00880813,0.94903222,0.07032748,0.26395478,0.15722520
1759199194063,-0.03992214,0.02554225,0.04621899,0.01421646,-0.06253671,-0.01563894,0.94945126,0.07064309,0.26256646,0.15687802
1759199194085,-0.25238534,0.10495232,-0.46482565,0.05133051,-0.04251517,-0.00273665,0.94954243,0.07120259,0.26210305,0.15684819
1759199194141,0.15659435,-0.04797727,0.22646076,-0.00727646,-0.03120173,-0.00938260,0.94984282,0.07099812,0.26122628,0.15658454
1759199194162,-0.05408049,-0.15687867,-0.18223810,-0.03797255,-0.06206588,0.04505091,0.94997344,0.07059941,0.26057458,0.15705757
1759199194185,0.13901411,-0.15814598,-0.02058673,-0.01872046,-0.06587012,-0.03992357,0.95026874,0.07038693,0.25982696,0.15660444
1759199194218,0.05929985,0.12846557,0.13920214,-0.02799572,-0.02711772,-0.02782825,0.95050202,0.06992220,0.25937680,0.15614249
1759199194253,-0.00536000,-0.01589597,0.06805045,-0.00767221,0.02432674,-0.02482360,0.95046668,0.06978717,0.25980496,0.15570560
1759199194286,0.01966299,0.02046570,0.02938683,0.03699863,0.06261395,-0.03193820,0.95022632,0.07039395,0.26083182,0.15518181
1759199194318,0.01786228,0.04027566,0.06952647,0.02116327,0.08433150,-0.05411358,0.94996920,0.07073468,0.26218956,0.15431058
1759199194352,0.14027325,-0.06670109,0.00381567,-0.04342754,0.05402353,-0.01687093,0.94981785,0.07000292,0.26309986,0.15402631
1759199194386,0.07093342,-0.04269475,-0.04116867,-0.06815285,0.04867174,-0.04718972,0.94980278,0.06884773,0.26392484,0.15322644
1759199194419,0.09365151,-0.02271197,0.10352374,-0.06335707,0.08705372,-0.05268267,0.94961588,0.06779284,0.26537429,0.15234927
1759199194454,-0.01316088,0.02658228,-0.00217962,-0.03740223,0.09957663,-0.05123652,0.94932063,0.06714578,0.26709696,0.15146288
1759199194509,-0.06724141,0.05617698,0.01359522,0.00055684,0.06348439,-0.02929782,0.94895822,0.06716095,0.26882691,0.15066452
1759199194530,1.52280351,-0.09752507,1.22407710,0.00331365,0.27818114,-0.03432442,0.94816574,0.06719641,0.27180345,0.15029724
1759199194551,-0.46892426,-0.15127195,-0.23447471,-0.03831622,0.21890311,-0.08601108,0.94766803,0.06678834,0.27413477,0.14938123
1759199194586,-0.48632064,0.34429382,-0.41943353,-0.05584305,0.13495497,-0.00742536,0.94707743,0.06582226,0.27646949,0.14925277
1759199194631,-0.10231292,-0.24549167,-0.08508435,-0.01634764,0.06060481,-0.01494516,0.94675390,0.06545116,0.27784522,0.14891351
1759199194653,0.70921194,-0.07648152,0.67134917,-0.12063355,0.11423659,-0.01993890,0.94651625,0.06416039,0.27906755,0.14870017
1759199194685,-0.46118167,0.12201262,-0.41016440,-0.01385470,0.09088599,-0.04539365,0.94621044,0.06393525,0.28054445,0.14796252
1759199194720,0.04133965,-0.01280465,0.10884588,0.01752328,0.15963724,-0.03992744,0.94546168,0.06424366,0.28335406,0.14725980
1759199194754,-0.22542280,0.05665634,0.15558917,0.04934316,0.19076079,0.00928913,0.94441732,0.06507015,0.28654931,0.14741539
1759199194788,-0.05822799,0.11379687,0.01644025,0.07733974,0.18866654,0.00043304,0.94335181,0.06637720,0.28973777,0.14742271
1759199194822,0.07775616,-0.06449474,-0.00494427,0.02160550,0.13179023,-0.01092644,0.94264761,0.06675313,0.29203092,0.14723259
1759199194855,-0.05623395,0.05473286,-0.11709901,0.04089435,0.14652624,0.01590938,0.94180352,0.06742993,0.29445593,0.14749589
1759199194889,-0.05719606,0.07339347,0.03561639,0.01465773,0.12941174,-0.00169578,0.94110573,0.06767692,0.29663652,0.14746731
1759199194936,0.00363811,-0.05114114,-0.08244451,0.03692117,0.12112926,-0.00645547,0.94017073,0.06853903,0.29946489,0.14731658
1759199194969,0.11825076,-0.06657158,0.05921682,0.02607460,0.12843567,0.02266848,0.93940522,0.06896795,0.30157765,0.14768948
1759199195002,0.01994297,-0.10477850,-0.12773068,0.00961167,0.09639811,-0.03099225,0.93896039,0.06912703,0.30317304,0.14717655
1759199195047,-0.01980592,0.06314843,-0.07716686,0.01478080,0.06275999,0.00427963,0.93846030,0.06946181,0.30459456,0.14727349
1759199195080,0.16965139,-0.05427783,0.03044118,-0.01705913,0.10492153,-0.01830658,0.93796934,0.06918289,0.30631002,0.14697417
1759199195124,-0.14348909,0.06113377,-0.07732089,0.00732235,0.06878783,-0.00016854,0.93746593,0.06934289,0.30781304,0.14697049
1759199195157,0.04490886,-0.01985171,0.00139180,-0.00701923,0.06736634,-0.02638306,0.93716906,0.06922391,0.30895490,0.14652330
1759199195191,-0.05885710,-0.12814024,0.05022820,0.00714877,0.07460570,-0.00379117,0.93676094,0.06934258,0.31019335,0.14646037
1759199195236,-0.01473418,0.09341134,-0.04739365,0.00391931,0.03207839,0.00112747,0.93651057,0.06943096,0.31091672,0.14648579
1759199195268,0.10081762,-0.02873711,0.00665009,-0.00234050,0.05200473,-0.00404520,0.93624516,0.06939328,0.31175400,0.14642066
1759199195310,-0.06174004,-0.00572739,-0.01045541,-0.01423768,0.02139063,-0.00391354,0.93613153,0.06909714,0.31219892,0.14633926
1759199195321,-0.01581861,0.36161983,-0.19986601,-0.03818312,0.11785141,0.01268772,0.93591196,0.06887949,0.31287067,0.14641158
1759199195354,-0.08835909,-0.10553923,0.04907909,0.01389178,0.00401681,0.00722465,0.93585495,0.06910593,0.31293615,0.14652934
1759199195387,0.01733622,-0.03379483,0.01070319,-0.00931986,-0.00984744,-0.00921484,0.93594603,0.06894935,0.31277071,0.14637453
1759199195409,-0.02480752,0.00650852,-0.00196478,0.01310265,0.00237301,0.00928021,0.93591054,0.06909414,0.31279693,0.14647708
1759199195456,-0.01698227,0.02936609,-0.02460116,0.00872236,0.00265789,0.00772498,0.93584663,0.06929737,0.31285886,0.14665707
1759199195489,0.02976565,0.04615875,0.03714510,0.00985086,-0.00579876,-0.00650809,0.93588349,0.06946040,0.31276289,0.14654936
1759199195522,-0.06618914,0.01335709,-0.07368075,0.01103832,-0.00321879,0.00764027,0.93586810,0.06964088,0.31271027,0.14667428
1759199195555,-0.02736920,-0.01834472,-0.00798505,-0.01371475,-0.01867847,-0.00544787,0.93600191,0.06941458,0.31240207,0.14658439
1759199195576,-0.11882734,0.00609810,-0.03101053,-0.04045673,-0.01663943,0.00520388,0.93608382,0.06898574,0.31222569,0.14663955
1759199195622,0.04729421,-0.00707640,0.02370216,0.00878756,0.00276865,0.00064319,0.93604518,0.06918874,0.31228965,0.14665441
1759199195656,0.01158154,-0.00249821,0.01004085,0.02162228,-0.00599184,0.00466571,0.93603955,0.06955199,0.31218899,0.14673279
1759199195688,0.13029562,-0.07936188,0.07436286,0.01435389,-0.00580512,0.01147591,0.93602421,0.06978811,0.31209349,0.14692157
1759199195722,-0.05018210,0.06841640,-0.07144094,0.01392925,-0.01281044,0.00716811,0.93605956,0.07002212,0.31187828,0.14704200
1759199195744,0.01542154,0.03456425,-0.07882737,-0.00283704,-0.02332762,0.00422019,0.93613823,0.06999162,0.31162750,0.14708736
1759199195776,0.03461604,0.05192432,-0.01607683,-0.01427593,0.00421781,0.00428373,0.93612173,0.06975893,0.31169625,0.14715719
1759199195810,-0.06106179,-0.06256496,0.04362557,-0.00692969,0.01181808,-0.00486041,0.93607697,0.06964216,0.31189539,0.14707529
1759199195846,-0.00683041,-0.03444499,0.01234956,0.00272517,0.01001916,-0.00425001,0.93602566,0.06969081,0.31207423,0.14699943
1759199195878,0.07545588,0.02517995,0.09184721,0.00267937,-0.00886921,-0.00621264,0.93608612,0.06973421,0.31193055,0.14689878
1759199195900,-0.02563450,0.01265212,0.08514550,0.01065013,-0.00677031,0.01612782,0.93607439,0.06985083,0.31185642,0.14707538
1759199195944,-0.03904039,-0.01054238,-0.08203653,0.00087026,0.00705305,0.00796538,0.93599297,0.06987015,0.31201299,0.14725221
1759199195965,-0.03999422,0.16909673,0.01132950,0.01197700,0.00294910,-0.00571589,0.93598294,0.06999292,0.31204322,0.14719363
1759199195988,0.04287390,-0.04030026,0.05081949,-0.01718525,0.00023690,0.01279226,0.93597364,0.06979528,0.31204595,0.14734074
1759199196021,-0.02583124,-0.02481110,-0.02625591,0.00792993,0.00517595,0.00589888,0.93592039,0.06992534,0.31213083,0.14743748
1759199196043,0.00365643,-0.06590176,0.05739068,0.00457396,-0.00381988,0.00533894,0.93592140,0.06997634,0.31208824,0.14749701
1759199196054,0.08487028,-0.40938164,0.73161765,0.00647611,-0.00441388,0.00774632,0.93592009,0.07001293,0.31206330,0.14754077
1759199196101,-0.00114949,0.07092357,-0.18246260,0.00776038,-0.00233208,-0.00124495,0.93592935,0.07019607,0.31200826,0.14751139
1759199196134,-0.01240305,-0.00403181,-0.03062947,0.03063585,-0.00058791,-0.00503487,0.93590789,0.07069543,0.31199868,0.14742933
1759199196166,-0.03627659,0.04131887,0.01828587,0.00839026,-0.00424319,-0.00507948,0.93593317,0.07082968,0.31193079,0.14734805
1759199196177,-0.16217367,-0.20845470,0.62766271,-0.03256080,-0.00589802,-0.00194324,0.93595967,0.07064734,0.31189776,0.14733717
1759199196211,0.12582756,0.03482275,-0.28730519,-0.02535524,0.01039412,-0.00210449,0.93593896,0.07021884,0.31207342,0.14730161
1759199196244,-0.01537836,0.04599205,0.02079491,-0.00053343,-0.00347467,0.00939093,0.93593430,0.07020998,0.31201574,0.14745750
1759199196278,0.04325844,-0.02107864,0.06818424,0.01401837,-0.00313029,0.00333829,0.93592514,0.07044969,0.31196221,0.14751458
1759199196289,1.13671424,-0.99107161,0.47875787,-0.03144473,-0.07334909,-0.02121787,0.93609089,0.07027675,0.31155879,0.14739788
1759199196346,-0.24489001,0.17616341,-0.14684273,0.00439057,-0.00936750,-0.00518009,0.93619264,0.07040078,0.31129416,0.14725154
1759199196380,-0.00202644,0.04397214,0.04623989,0.01979428,-0.01090845,-0.00396858,0.93623925,0.07073531,0.31110981,0.14718448
1759199196414,0.02697350,-0.01040853,-0.01214329,-0.00483518,-0.01165574,-0.01043486,0.93633856,0.07065359,0.31091283,0.14700813
1759199196446,-0.04934081,0.02709463,-0.02848025,0.00983076,-0.00830645,0.00779653,0.93635120,0.07081088,0.31077992,0.14713287
1759199196457,0.97861734,-0.98485849,-0.20436510,0.01021515,-0.04080878,-0.01309614,0.93643496,0.07086860,0.31054935,0.14705888
1759199196489,-0.24316217,0.22097276,0.02860504,-0.01092645,-0.02216482,-0.02324953,0.93662522,0.07069268,0.31019250,0.14668456
1759199196522,-0.08275126,0.03102450,-0.00321705,-0.02002396,-0.02777691,0.00437378,0.93679095,0.07036129,0.30973279,0.14675695
1759199196533,-0.17977133,-0.22434510,-0.20507852,-0.06726232,-0.03443169,-0.06107438,0.93693251,0.06999471,0.30954514,0.14642409
1759199196556,0.02725909,0.19856604,0.09813783,-0.02043714,-0.01387412,-0.00940252,0.93702001,0.06975866,0.30938489,0.14631549
1759199196567,-0.25261311,0.15639421,-0.16828885,0.01061307,-0.01372717,-0.00661374,0.93704650,0.06981756,0.30930871,0.14627879
1759199196624,0.05023760,-0.01984142,0.05631462,0.00073303,-0.00790193,-0.00708520,0.93715093,0.06983849,0.30908311,0.14607650
1759199196636,-2.93928653,-0.60463694,-3.23913244,-0.00916010,-0.32387103,-0.04806135,0.93779287,0.06978719,0.30726943,0.14580736
1759199196679,0.68382224,0.11548805,0.69579962,0.01494421,-0.07486869,0.00269781,0.93828693,0.07010924,0.30565601,0.14586550
1759199196702,-0.14859728,0.01979649,-0.21470135,-0.01288473,-0.14695538,0.02477367,0.93880699,0.06995978,0.30395133,0.14615287
1759199196731,0.12677504,0.01438733,0.16697362,-0.02438029,-0.10824181,0.01095505,0.93931522,0.06960626,0.30238182,0.14631172
1759199196738,-0.88665306,-0.44941446,-1.41154919,-0.04470724,-0.20509547,0.02372556,0.93955774,0.06944085,0.30162297,0.14639950
1759199196767,0.29777385,0.13217140,0.45562498,0.01208059,-0.05833461,-0.00710741,0.93983006,0.06961481,0.30078295,0.14629716
1759199196779,-1.03529271,-0.14260686,-1.10308896,0.01988360,-0.12335582,-0.06200648,0.94010846,0.06973112,0.30006132,0.14593442
1759199196783,-5.28153028,-2.39955089,-1.31822178,0.01356378,0.06072059,-0.12709955,0.94010689,0.06976232,0.30020098,0.14564209
1759199196800,1.40000212,0.74320537,1.19319228,0.04701765,-0.02356537,-0.04087406,0.94019278,0.07015257,0.30000538,0.14530284
1759199196825,0.25794001,0.07203378,0.05082503,0.02491205,0.02524833,0.03746327,0.93999308,0.07046895,0.30032604,0.14577862
1759199196827,-222.88047291,37.38867285,-9.44731944,1.61763627,0.07525783,1.05867923,0.93977543,0.07160130,0.30037872,0.14651970
1759199196868,7.47182162,-1.30239047,0.31614515,0.07334443,0.01707226,0.00137852,0.93954046,0.07312319,0.30073297,0.14654830
1759199196889,-1.62951712,0.87867229,0.02680441,0.11776000,0.17163994,-0.00466671,0.93888181,0.07434201,0.30250944,0.14650000
1759199196899,-2.88892892,0.29845424,-0.42242026,0.30544631,0.29776445,0.13169140,0.93814715,0.07593033,0.30405782,0.14718479
1759199196933,1.45001548,-0.47564177,0.07223923,0.16733598,0.09356536,0.04038841,0.93729754,0.07874157,0.30562971,0.14786332
1759199196945,-2.31786303,2.90091915,-0.33081772,0.07134406,0.06408797,0.08332818,0.93704895,0.07918391,0.30602706,0.14837995
1759199196970,1.34218334,-1.24702355,-0.18667696,0.15998474,-0.21264442,0.03639650,0.93765011,0.08111972,0.30345406,0.14882035
1759199196980,0.72153503,-0.93403799,-3.44248240,0.08814431,-0.84561641,0.32379619,0.93877469,0.08158689,0.29897229,0.15053647
1759199197000,0.96292898,-0.61326347,1.44394117,-0.04807410,-0.34230810,-0.00198945,0.93988035,0.08111576,0.29561768,0.15051698
1759199197033,-0.24929754,0.12393027,0.25838466,-0.04274443,-0.24818581,0.01100140,0.94120973,0.08039979,0.29146056,0.15070125
1759199197045,-1.42408725,-2.73844903,-6.94843078,-0.42833830,-0.98706772,-0.38898997,0.94349021,0.07795826,0.28583428,0.14848401
1759199197067,-0.37407748,1.17609798,3.22215405,-0.14011566,-0.20128519,-0.05298036,0.94439162,0.07638897,0.28357988,0.14789063
1759199197079,-1.92496717,1.35774158,-0.43925154,-0.01363502,-0.01592037,0.11211858,0.94432074,0.07630648,0.28348356,0.14856894
1759199197100,1.25088507,-0.11578047,0.34515820,0.10329836,0.09159094,0.06464659,0.94382917,0.07740660,0.28445901,0.14925743
1759199197112,-3.59574021,0.33513014,-0.35046527,0.20672412,0.33644409,-0.15139273,0.94327823,0.07860560,0.28641038,0.14837935
1759199197134,1.85020802,0.28887167,0.96907348,0.05556191,0.16774994,-0.04236238,0.94274298,0.07921123,0.28823886,0.14791760
1759199197145,-6.67403961,0.40689563,-2.81421235,0.45285900,0.57963220,-0.20234808,0.94170501,0.08174724,0.29148480,0.14678445
1759199197157,3.55011150,-0.05164198,2.33004909,0.17410813,0.41142533,-0.06991803,0.94093133,0.08276577,0.29389164,0.14637543
1759199197168,0.82233906,0.17653560,0.59847573,0.11143173,0.35153671,0.07843044,0.94021712,0.08336750,0.29578993,0.14679896
1759199197178,1.00578006,-0.99004124,-0.85417648,0.17514122,0.36527354,0.01244618,0.93950609,0.08430451,0.29774415,0.14686554
1759199197190,0.66829614,0.68280754,0.40332317,0.09509497,0.26688276,0.02621868,0.93895042,0.08484655,0.29926538,0.14701499
1759199197200,-1.26831997,-0.90062807,0.01008609,0.16560133,0.21708137,-0.05337326,0.93854745,0.08572424,0.30041591,0.14673211
1759199197223,1.35488545,-0.16250969,-0.05628843,0.04607436,0.13950743,0.03355242,0.93792612,0.08625179,0.30201327,0.14711629
1759199197234,-4.42986693,-0.66895453,0.41454096,0.08566256,0.61931529,-0.07620136,0.93684470,0.08672293,0.30541951,0.14669718
1759199197245,1.40746884,0.24882662,-0.61978847,0.08417433,0.47391487,-0.08771572,0.93603092,0.08718168,0.30800234,0.14621913
1759199197257,0.05998100,1.23182783,0.27916922,0.07316278,0.44386059,-0.09757741,0.93518682,0.08762798,0.31070989,0.14562391
1759199197267,-1.36169254,-2.02506781,0.25704992,0.23584440,0.71546634,-0.16777112,0.93400970,0.08880720,0.31428722,0.14478505
1759199197290,1.62519922,0.61672411,0.14221671,0.04566389,0.34318210,-0.05897872,0.93273291,0.08933005,0.31821666,0.14410974
1759199197301,-8.70350659,0.96811152,1.43479680,0.48682233,1.38619131,-0.15302422,0.92991492,0.09205625,0.32597933,0.14325281
1759199197336,2.92516210,-0.44135895,-0.25863924,0.10504653,0.25363273,-0.01426476,0.92820637,0.09388932,0.33040522,0.14300389
1759199197370,-1.06479870,0.01725735,0.19797061,0.22624659,0.74147136,-0.11691169,0.92357138,0.09770157,0.34289901,0.14103393
1759199197391,-1.87514278,0.28218803,1.62826065,0.26589540,1.47864624,-0.35840914,0.91781610,0.10054665,0.35872053,0.13719895
1759199197425,2.19763827,-0.07687675,-0.86553874,0.06698359,0.42424910,-0.04290509,0.91499041,0.10166863,0.36582670,0.13648029
1759199197447,-0.15184774,-0.73963762,1.21438490,0.14280644,0.67811776,-0.11921556,0.91199152,0.10323950,0.37328600,0.13516892
1759199197492,0.41772717,0.29808476,-0.89874366,0.02590584,0.14099064,-0.04217397,0.91075796,0.10382368,0.37646533,0.13421789
1759199197526,0.45570099,-0.09561174,0.50396373,0.05005244,0.12447752,-0.03676400,0.90986703,0.10468207,0.37860012,0.13358739
1759199197558,0.22113831,-0.12244303,-0.24681321,0.00046182,0.03403702,-0.03270004,0.90971654,0.10468944,0.37914301,0.13306583
1759199197569,3.09230130,1.19139733,3.11874389,-0.02350587,0.11432944,-0.02000063,0.90949149,0.10456368,0.37975468,0.13295882
1759199197591,-0.68405638,-0.46684212,-1.47562505,-0.02435834,-0.00233740,0.01280780,0.90951286,0.10428965,0.37972838,0.13310291
1759199197637,-0.36471882,-0.01740215,-0.19989706,-0.04094945,-0.02722546,-0.00725707,0.90990080,0.10336010,0.37911036,0.13293818
1759199197660,0.74198953,-0.39299501,0.54588310,-0.22697869,0.05863209,-0.10840597,0.91009201,0.10077254,0.37977877,0.13170235
1759199197673,0.32524563,1.25333871,-0.17133543,-0.15030884,0.17004380,0.00148832,0.90971707,0.09974293,0.38094357,0.13171254
1759199197707,-0.52614867,-0.19600636,-0.25235033,-0.02038770,0.01363636,0.01229846,0.90962840,0.09939939,0.38117334,0.13191977
1759199197719,2.92903938,-1.84532549,2.06253709,0.04233007,0.00471066,-0.02896755,0.90961431,0.09964703,0.38120090,0.13175031
1759199197755,-1.26311752,0.68424984,-0.69772120,-0.04159648,0.03306559,-0.01608723,0.90948864,0.09890037,0.38179443,0.13146155
1759199197789,0.14841811,0.02678085,0.15844807,-0.02004229,0.11103159,0.01352200,0.90867670,0.09855063,0.38373193,0.13169750
1759199197801,4.54874787,-1.73694240,2.61697908,-0.00817080,0.26154519,0.06764631,0.90795876,0.09850161,0.38530120,0.13210338
1759199197831,-1.74459484,0.52269962,-1.08970536,-0.08516108,0.05356086,-0.02001618,0.90779878,0.09722419,0.38610461,0.13180314
1759199197857,0.05366019,0.05908684,-0.04308307,-0.07338482,0.06947931,-0.01757875,0.90755281,0.09628486,0.38699395,0.13157813
1759199197860,15.06688183,9.23914693,3.00807725,-0.01995864,0.76855632,-0.18480518,0.90704369,0.09625093,0.38830049,0.13126396
1759199197887,-2.08091794,-1.17689431,-0.61844745,-0.02471615,0.06803087,-0.02748084,0.90674801,0.09592715,0.38919170,0.13090396
1759199197899,1.00646904,-0.33705841,-0.28691287,-0.06050862,0.06719472,0.01567912,0.90659714,0.09555805,0.38960158,0.13099961
1759199197922,-0.71037940,0.02520001,-0.02478997,-0.04134370,0.02740225,-0.03713778,0.90657273,0.09507226,0.38992356,0.13056324
1759199197936,0.99022710,-0.14472433,0.56021587,-0.13385909,0.06043085,-0.03661457,0.90652569,0.09414194,0.39034356,0.13030877
1759199197940,3.48216030,3.08649038,-3.68108773,-0.24862930,0.33653879,-0.09804002,0.90632053,0.09365711,0.39099981,0.13011759
1759199197963,-1.67284902,-0.10227781,0.02615523,-0.01015516,0.04496069,-0.00478286,0.90611991,0.09354185,0.39151011,0.13006330
1759199197976,0.89746023,-0.32538266,-0.21437675,0.01863417,0.13437783,-0.05867082,0.90578159,0.09366391,0.39239028,0.12967901
1759199197988,0.18880223,0.09862445,1.06375820,0.00561234,0.08214324,0.05009480,0.90553003,0.09369646,0.39286672,0.12996956
1759199198000,-0.01646681,-0.19221452,0.13899132,-0.01072243,0.09950278,0.00176000,0.90527380,0.09363159,0.39346871,0.12998021
1759199198012,-0.14085928,-0.02076249,-0.18655712,0.01246977,0.06057222,-0.02400848,0.90512747,0.09370703,0.39383517,0.12983496
1759199198024,0.15088982,-0.12717255,-0.09856076,-0.00951497,0.13099142,-0.01908712,0.90481276,0.09365089,0.39460802,0.12972234
1759199198038,-0.12951113,0.06367156,0.03583809,-0.01872900,0.05367552,0.00536747,0.90465253,0.09351604,0.39499448,0.12976099
1759199198039,78.36921076,-12.91138312,24.97211605,-0.12147083,0.81571931,-0.34136967,0.90444604,0.09343101,0.39556549,0.12952203
1759199198051,-9.23192415,1.34996928,-3.24022869,-0.07130832,0.07731000,0.02621181,0.90426308,0.09299960,0.39603321,0.12968061
1759199198063,0.07985614,0.07880999,0.06675652,-0.11287209,0.00475011,0.01845284,0.90430207,0.09235623,0.39606029,0.12978579
1759199198074,1.19384050,0.04430427,0.16142602,-0.07231483,-0.00092672,0.00578444,0.90434130,0.09194765,0.39605505,0.12981847
1759199198086,-0.95175583,-0.00172091,0.20907924,-0.11684591,-0.09414892,0.07236225,0.90458430,0.09128163,0.39551840,0.13023094
1759199198098,1.40970773,-0.27261572,-0.53663206,-0.00852487,0.08748344,0.02277983,0.90433601,0.09122962,0.39605205,0.13036989
1759199198108,-2.50160954,0.89504019,0.50121155,-0.00323649,-0.09536847,0.00878563,0.90455222,0.09121247,0.39554660,0.13041646
1759199198119,2.34162895,-0.98835846,0.03213361,0.04935188,0.04379302,-0.00076983,0.90442246,0.09147897,0.39578308,0.13041230
1759199198132,-0.53827851,0.22944698,0.74743253,0.03532240,-0.03602329,0.05497291,0.90444899,0.09169974,0.39555793,0.13075588
1759199198142,-0.12348028,-0.60053369,-1.21395064,-0.03294667,-0.01623548,0.10335761,0.90442517,0.09152677,0.39547270,0.13129851
1759199198153,-2.19581515,0.82336690,-0.74316475,-0.08217095,-0.04094031,0.03402020,0.90453780,0.09109126,0.39525572,0.13147882
1759199198164,0.70849100,0.64813554,-0.25881383,-0.10943638,0.05923545,0.04237511,0.90442293,0.09049483,0.39557855,0.13170976
1759199198175,0.96760945,-1.17656853,1.43834934,-0.02638822,0.01003736,-0.02299553,0.90443186,0.09034706,0.39563476,0.13158099
1759199198186,-0.53844904,0.43960577,0.12069067,0.01220386,0.05867210,-0.02646861,0.90429818,0.09041784,0.39597506,0.13142747
1759199198197,-0.09762873,-0.13858271,0.32245722,0.02854021,0.06882892,-0.01812780,0.90413261,0.09057338,0.39635017,0.13132867
1759199198208,0.00020440,0.35879862,0.20649634,-0.05646017,0.10709459,0.01705046,0.90390038,0.09027415,0.39691777,0.13141904
1759199198219,-0.39923673,-0.34178625,-0.41512395,0.13221662,0.07747837,-0.07354090,0.90370260,0.09098812,0.39733616,0.13102192
1759199198229,0.08023294,0.80893213,0.31239004,-0.01738904,0.12152333,0.03320035,0.90340855,0.09089769,0.39796808,0.13119456
1759199198239,-1.15639542,0.73550416,-0.92315780,0.08967048,0.09377635,0.01152650,0.90314564,0.09135053,0.39844165,0.13125277
1759199198251,-0.11270018,0.14229986,0.06987665,0.05264637,0.07694575,0.05736192,0.90287640,0.09164798,0.39887639,0.13157686
1759199198263,0.14027785,-0.09602924,0.01680503,0.06798854,0.06538764,0.03750259,0.90261624,0.09207631,0.39928834,0.13181313
1759199198274,0.49307143,-0.58557062,0.65920388,0.13940039,0.04297847,0.02774201,0.90241640,0.09282210,0.39951827,0.13196155
1759199198285,0.23772042,-0.05089600,-0.02446214,0.07009243,0.03741887,0.04839945,0.90224036,0.09322163,0.39973156,0.13223743
1759199198296,0.10791995,0.02859004,-0.26546762,0.10032429,-0.03475453,0.01607106,0.90225437,0.09375335,0.39954736,0.13232260
1759199198308,0.10896041,-0.21360195,-0.24412395,0.05917728,-0.00329570,-0.02596420,0.90224886,0.09411729,0.39952709,0.13216292
1759199198321,0.12466617,-0.13129227,-0.00162125,-0.01545315,-0.03087891,0.02694615,0.90231968,0.09402070,0.39933410,0.13233134
1759199198332,0.16446451,-0.09811909,0.16594289,-0.04018376,-0.02469974,0.01678423,0.90238988,0.09379768,0.39919701,0.13242449
1759199198343,-0.92482290,0.45478003,-0.50350518,-0.00885727,-0.01469532,-0.02169953,0.90244767,0.09374941,0.39911692,0.13230623
1759199198354,-0.69842303,0.15957133,-0.21609635,0.02354522,0.01356082,0.00975284,0.90239285,0.09388009,0.39919219,0.13236035
1759199198386,0.18525400,-0.13593503,0.01365082,0.00020365,0.00137697,0.00245356,0.90237681,0.09388339,0.39921449,0.13240010
1759199198418,0.10439838,-0.00578643,0.14057623,0.03648787,-0.01041368,0.00108711,0.90238706,0.09446902,0.39904735,0.13241755
1759199198450,0.19313885,-0.10930523,-0.06875309,-0.02194252,-0.06030236,-0.02511916,0.90289887,0.09412452,0.39810061,0.13202318
1759199198484,-0.34760417,0.07331358,-0.13794571,-0.07857331,-0.01200162,-0.01408767,0.90316817,0.09275734,0.39789178,0.13177805
1759199198520,0.05284234,0.04000273,0.04839728,-0.00134766,0.00452489,0.02632034,0.90306667,0.09273336,0.39797232,0.13224656
1759199198552,0.50107705,-0.16320594,-0.06916253,-0.09187479,-0.08900073,0.01597108,0.90379819,0.09127714,0.39656166,0.13249970
1759199198586,-0.11939854,0.04335016,-0.40427913,-0.16892543,-0.11214703,-0.02531006,0.90500454,0.08834628,0.39461591,0.13206057
1759199198629,0.16738812,-0.03604815,-0.01294834,-0.03927360,-0.02381192,0.00591924,0.90529104,0.08750190,0.39410395,0.13218783
1759199198660,0.17843344,-0.39884633,0.03541858,-0.04729320,0.03063473,-0.05991573,0.90528989,0.08677122,0.39457726,0.13126213
1759199198697,-0.56288772,0.36680913,-0.01544254,-0.09001873,-0.06661300,-0.11647959,0.90627471,0.08513738,0.39336823,0.12914803
1759199198762,0.11611119,-0.00834564,0.11146078,0.02971323,-0.02984818,-0.02784429,0.90673731,0.08611346,0.39238772,0.12823334
1759199198807,-0.37504888,0.21246203,-0.17870958,0.15115291,0.11846492,0.02082221,0.90519677,0.08948417,0.39502949,0.12869768
1759199198849,-0.10105595,0.08437492,0.35462976,0.12064368,0.09915672,0.04646376,0.90390084,0.09199959,0.39709691,0.12966645
1759199198863,-0.73551430,-0.90883981,-2.15750521,-0.29877636,-0.01295888,0.00087623,0.90414670,0.08993804,0.39700749,0.12967250
1759199198930,0.37723104,-0.05009270,0.41157342,-0.09394549,0.02246679,-0.00232097,0.90413447,0.08676268,0.39776687,0.12959405
1759199198962,0.06515705,-0.24913618,-0.71317492,-0.26934871,-0.05167772,-0.06859041,0.90504307,0.08252044,0.39695294,0.12851375
1759199198982,0.21603330,0.37943224,-0.07349986,0.09209040,-0.23724501,0.00665693,0.90602838,0.08348278,0.39447373,0.12858331
1759199199016,-0.08903966,0.15803003,0.55291603,-0.03201038,-0.02333001,-0.03407645,0.90632846,0.08294661,0.39408296,0.12801253
1759199199039,-0.24045175,-0.11287870,-0.00857683,0.02840333,0.00923399,-0.03080665,0.90630287,0.08326614,0.39418684,0.12766596
1759199199135,-0.02037061,0.01354049,0.09870953,0.00349919,0.01251109,-0.00455471,0.90605522,0.08343515,0.39479112,0.12744596
1759199199168,0.12235902,-0.42572866,0.03211326,-0.15863570,0.12271216,-0.06636664,0.90555514,0.08078594,0.39684042,0.12633764
1759199199224,-0.14126477,0.28574511,-0.07733543,-0.02464593,0.03614559,0.01232515,0.90512481,0.08009708,0.39785069,0.12668213
1759199199277,0.05533792,0.13653134,0.25674763,0.10850858,0.05425858,0.06325694,0.90400434,0.08295086,0.39927769,0.12834579
1759199199313,-0.11404500,-0.19303965,0.13553838,0.04965749,0.06856335,-0.00708639,0.90339554,0.08384221,0.40050840,0.12821859
1759199199364,0.27780342,-0.04609228,-0.07951990,0.02069440,0.03738600,-0.00770920,0.90295190,0.08436888,0.40145987,0.12802239
1759199199406,-0.12790687,-0.06365685,-0.05019434,-0.02435527,-0.00139373,-0.03032354,0.90310225,0.08385864,0.40143067,0.12738711
1759199199456,0.25409701,-0.05592603,-0.02094085,-0.14609727,-0.05070055,-0.08958632,0.90432559,0.08015508,0.40014541,0.12511610
1759199199493,0.36669353,-0.26738133,-0.15084018,-0.19102609,-0.05122811,-0.10662390,0.90530233,0.07668795,0.39921562,0.12318087
1759199199543,-0.34694826,0.26548851,0.13195288,-0.04110297,0.17711462,-0.02266500,0.90350415,0.07566243,0.40363463,0.12261538
1759199199582,-0.15832593,0.10703328,0.07720909,0.05561218,0.14136228,0.02505584,0.90208075,0.07676912,0.40644774,0.12311399
1759199199624,-0.02126836,-0.10308398,-0.18420968,-0.05391295,0.02486131,-0.02149792,0.90200250,0.07563694,0.40696983,0.12266254
1759199199661,-0.13948567,0.01500569,-0.12083378,-0.04723612,0.11930883,0.04310433,0.90097583,0.07477016,0.40915915,0.12345350
1759199199692,-0.23676775,0.22197559,0.24580134,0.04545555,0.19202878,0.03485923,0.89949471,0.07547018,0.41211639,0.12399033
1759199199723,0.14584235,-0.02847786,-0.11039020,0.00831137,0.21272683,0.04422365,0.89787621,0.07559859,0.41540302,0.12467359
1759199199764,0.18196358,-0.18828705,-0.17297159,0.09902915,0.07665472,-0.07448210,0.89718843,0.07761878,0.41696678,0.12315415
1759199199784,-0.00611302,0.28312682,-0.83705132,-0.17235035,0.02440015,-0.12040593,0.89739571,0.07581772,0.41722176,0.12189591
1759199199807,1.62316225,-1.35633906,-0.57063612,-0.31884140,-0.14778914,-0.05762396,0.89855013,0.07223075,0.41555913,0.12124764
1759199199850,-0.80699984,0.57440838,0.67108153,-0.06729216,-0.02353124,-0.03852235,0.89901462,0.07077051,0.41504850,0.12041171
1759199199861,0.05133385,-0.46085364,-1.42745952,-0.11740154,0.05448225,-0.01308607,0.89894003,0.07015416,0.41533453,0.12034300
1759199199884,-0.35438714,0.60459359,0.83666888,0.05957847,0.03905779,-0.00056578,0.89867950,0.07083931,0.41578370,0.12033650
1759199199920,0.13892535,-0.11278173,0.06069901,0.03315517,0.02679539,0.00763234,0.89839293,0.07143113,0.41626200,0.12047274
1759199199951,0.00910240,-0.02400157,-0.01878607,-0.01098658,0.06364662,0.01341538,0.89791316,0.07125809,0.41726443,0.12068403
1759199199963,-1.27072975,-0.17391919,0.36700930,0.01132453,0.20043744,0.06478931,0.89731102,0.07132434,0.41843699,0.12106304
1759199199985,0.46133971,0.09398393,-0.09089372,0.03326428,0.01795755,-0.00455610,0.89719700,0.07168858,0.41863363,0.12101316
1759199200007,0.20556519,0.09871119,-0.15386202,0.04665798,-0.01654195,0.00652752,0.89723135,0.07220649,0.41845001,0.12108561
1759199200028,0.13588157,-0.11541479,-0.00060269,-0.00273146,-0.02389701,0.00824878,0.89734099,0.07217726,0.41819431,0.12117387
1759199200040,-0.18700761,-0.09821284,0.12387552,-0.00774014,-0.03328257,0.03207413,0.89740940,0.07213237,0.41800127,0.12135990
1759199200051,-0.49249328,0.16115202,0.11721701,0.09238910,-0.03998714,-0.02681473,0.89749149,0.07264513,0.41777934,0.12121108
1759199200062,-0.16463018,0.01041069,0.00868809,0.08162783,-0.01719426,0.02175613,0.89748249,0.07311449,0.41768048,0.12133618
1759199200085,0.16594916,0.05350542,-0.06506188,0.02514713,-0.00853672,0.01240939,0.89748517,0.07339362,0.41758572,0.12147392
1759199200096,0.01058609,0.19308907,0.20353150,0.03635445,-0.01729724,0.01932409,0.89749964,0.07360811,0.41748367,0.12158794
1759199200107,0.00180723,0.04344535,0.12012882,0.01394705,-0.02182195,0.03908370,0.89751928,0.07368203,0.41736801,0.12179508
1759199200118,0.00922929,-0.12145387,-0.17603725,0.06444646,-0.00497341,0.05267459,0.89746347,0.07403649,0.41734066,0.12208479
1759199200129,-0.21560398,0.14336657,-0.04068400,0.04381794,-0.00639698,0.02798722,0.89743919,0.07427529,0.41730579,0.12223732
1759199200140,-0.03318004,0.04025455,-0.14734074,0.04509308,-0.01452445,0.04128326,0.89742468,0.07452556,0.41722518,0.12246644
1759199200150,-0.25584934,-0.24467387,0.03728964,0.05957061,-0.01119055,0.01512055,0.89741522,0.07483533,0.41716699,0.12254507
1759199200163,0.05837023,-0.03923679,-0.04893577,0.02873840,-0.03195451,0.01679125,0.89748124,0.07502213,0.41695929,0.12265421
1759199200174,-0.05367504,0.00247985,-0.28242770,0.03098018,-0.02844799,0.01752593,0.89752401,0.07518322,0.41681136,0.12274535
1759199200184,0.45496336,-0.06211860,-0.02996514,0.01992515,-0.03554332,0.02761038,0.89757984,0.07528385,0.41663186,0.12288478
1759199200195,0.06019278,-0.19621447,-0.01688027,0.00172624,-0.04489187,0.00908953,0.89768773,0.07529343,0.41638271,0.12293523
1759199200206,0.04534322,-0.14725391,-0.02981150,-0.04780207,-0.02522427,0.00705500,0.89777171,0.07502095,0.41623893,0.12297544
1759199200230,0.00582661,0.01358109,0.04796925,-0.02334253,-0.00301822,-0.00115125,0.89781271,0.07474785,0.41620362,0.12296197
1759199200240,-0.40699170,-0.14522892,-0.79046766,-0.09371940,-0.07655245,0.00112276,0.89803892,0.07425582,0.41580172,0.12296786
1759199200251,-0.03372248,-0.29050160,0.41824973,0.02067569,-0.03275664,-0.04023837,0.89814223,0.07436850,0.41562320,0.12274856
1759199200262,0.14446271,0.07203291,-0.01364115,-0.07586990,-0.11693459,-0.03316864,0.89847625,0.07397777,0.41502098,0.12257775
1759199200274,0.29909376,-0.03787683,-0.26835218,-0.13750027,-0.08180831,0.00499657,0.89876867,0.07314590,0.41452604,0.12260798
1759199200295,0.09257869,0.07051926,0.12403788,-0.12365213,-0.03412450,-0.00834581,0.89906118,0.07179809,0.41415409,0.12251701
1759199200307,0.73073044,-1.54836124,-0.76299903,-0.38775501,-0.12499812,-0.11215055,0.89964446,0.06960727,0.41344785,0.12188336
1759199200318,-0.04983204,0.69701070,0.31110884,-0.24418540,-0.04565174,-0.03029491,0.89988743,0.06825204,0.41319448,0.12171522
1759199200330,0.14877357,0.14581774,0.33525340,-0.25412446,-0.01328093,-0.05667553,0.90008265,0.06674000,0.41311546,0.12137800
1759199200352,-0.26541551,0.28379968,0.23818793,-0.09632687,-0.02236426,-0.03387664,0.90032470,0.06567559,0.41286833,0.12100366
1759199200362,0.93712511,-0.58934598,-1.03302086,-0.17314373,-0.06211195,-0.13228901,0.90063012,0.06477524,0.41254535,0.12031576
1759199200374,-0.86380826,1.13620835,0.13792047,0.02261836,-0.02499742,-0.01876727,0.90070469,0.06491208,0.41239412,0.12020222
1759199200386,-0.14772793,0.45045401,0.17795410,0.01297825,-0.03190362,-0.02124582,0.90080287,0.06498930,0.41220429,0.12007581
1759199200397,0.29078830,0.11834503,0.19104210,0.16168567,0.02983994,0.00147797,0.90067234,0.06581390,0.41235647,0.12008334
1759199200406,0.23131277,-0.15512985,0.74933849,0.09921342,-0.06360902,0.00621932,0.90077735,0.06630997,0.41203843,0.12011444
1759199200418,0.22271558,-0.16818804,0.53369523,0.10516280,0.00100702,-0.02697132,0.90075159,0.06689362,0.41204402,0.11996475
1759199200430,-0.22397609,-0.14609179,0.08540759,0.01394592,-0.01346765,-0.02088529,0.90079901,0.06697730,0.41196321,0.11983944
1759199200440,0.07640386,0.11387911,0.02091334,-0.01528652,-0.00230386,0.09627974,0.90074205,0.06689551,0.41195089,0.12035453
1759199200452,-0.45222174,-0.05017590,-0.18087498,0.03377563,0.05331370,-0.05606277,0.90063133,0.06708804,0.41225477,0.12003498
1759199200463,-0.43095120,0.02055112,-0.22429960,0.02766751,0.01345636,-0.03551469,0.90061159,0.06724436,0.41233080,0.11983432
1759199200474,-0.34142235,0.02441363,-0.20898095,0.01884106,-0.04503609,-0.00764373,0.90072180,0.06734704,0.41208536,0.11979266
1759199200484,0.01225456,-0.06175459,-0.68498737,0.05900634,-0.06907987,0.00879875,0.90085957,0.06765977,0.41171923,0.11983929
1759199200496,-0.11130661,-0.12292915,-0.19531762,0.06307434,-0.05735849,-0.05394790,0.90102842,0.06803191,0.41138082,0.11952100
1759199200508,-0.22270320,0.38984236,-0.21399041,-0.02531489,-0.08521801,-0.02208579,0.90127542,0.06788888,0.41089934,0.11939622
1759199200519,-0.22657781,0.17282745,-0.34755556,-0.00818282,-0.08296478,-0.05517580,0.90153141,0.06784306,0.41043473,0.11908723
1759199200531,0.17955308,0.05060186,-0.07014485,-0.09370984,-0.06070289,0.01706535,0.90172573,0.06728080,0.41007052,0.11918962
1759199200541,0.03883029,-0.02631003,-0.25091831,-0.03924501,-0.10427452,-0.03904051,0.90200027,0.06708654,0.40955436,0.11899637
1759199200551,0.07950084,0.19553903,0.43571117,-0.06466973,-0.14021047,-0.11399121,0.90244636,0.06674056,0.40880423,0.11838652
1759199200563,-0.19497704,-0.76772637,0.10966923,0.03588665,-0.10460197,-0.15288108,0.90281492,0.06694511,0.40820800,0.11751510
1759199200575,0.12058800,-0.00561348,0.31388957,-0.04028750,-0.05284584,-0.00726539,0.90298456,0.06669936,0.40788564,0.11747078
1759199200585,0.36812192,-0.74692234,0.29637308,0.07145863,-0.06121662,0.16057203,0.90299163,0.06706379,0.40757344,0.11828970
1759199200596,-0.02870501,0.16456382,0.60114128,0.00567950,-0.04424555,0.04295478,0.90306605,0.06709418,0.40733672,0.11851950
1759199200607,-0.10147650,0.40665872,-0.19268923,0.02084937,-0.03573085,0.02081965,0.90313229,0.06721094,0.40713663,0.11863609
1759199200618,-0.23617961,0.15448128,-0.63703796,0.06683232,0.01112721,-0.01139686,0.90308635,0.06757183,0.40719672,0.11857455
1759199200630,0.19978966,-0.01915709,-0.08671852,0.00900715,0.08706582,-0.02123862,0.90285772,0.06762723,0.40773217,0.11844393
1759199200653,0.16104032,0.01885763,0.28503759,-0.01381196,0.00079110,-0.00784030,0.90287698,0.06747115,0.40774111,0.11835534
1759199200663,0.82056940,-1.42024162,1.05940154,-0.03317368,0.18894138,0.11270087,0.90238316,0.06730362,0.40869526,0.11892448
1759199200674,-0.24446546,0.73800141,-0.27481477,0.02232004,0.01827745,0.08471012,0.90226059,0.06743308,0.40880127,0.11941580
1759199200686,-0.03824886,0.30498662,-0.27060851,0.04041865,0.05184525,0.06113646,0.90206318,0.06766347,0.40909679,0.11976427
1759199200696,0.06251601,0.07925759,0.02278249,0.04049980,0.03024944,0.08110343,0.90192129,0.06787204,0.40925258,0.12018196
1759199200708,0.02348336,0.06259636,-0.09431736,0.05621302,0.03046839,0.08998464,0.90173774,0.06821494,0.40943843,0.12073086
1759199200743,-0.09268472,-0.02982050,-0.00888806,0.02330047,0.01163184,0.00720724,0.90159985,0.06861571,0.40963850,0.12085483
1759199200752,0.79462492,1.64190358,0.00193043,0.23611619,0.03427774,0.03482422,0.90141182,0.06977268,0.40980646,0.12102547
1759199200774,-0.29039649,-0.74277538,-0.14397161,-0.02986616,-0.03040230,-0.00113127,0.90158513,0.06945460,0.40948268,0.12101342
1759199200785,0.84498540,-0.40207175,0.13640983,-0.15724961,-0.13386774,0.04197478,0.90195435,0.06858973,0.40874641,0.12124428
1759199200796,-0.73823087,-0.04027833,-0.40190850,-0.07401994,-0.05806311,-0.06264810,0.90219020,0.06815671,0.40840674,0.12087779
1759199200809,-0.47340904,0.34211113,-0.19338608,-0.04135036,-0.00678383,-0.03654961,0.90225669,0.06790861,0.40836603,0.12065849
1759199200820,-0.02264951,0.17204126,0.15446017,0.00079653,-0.01949094,-0.00976575,0.90231306,0.06791307,0.40825688,0.12060380
1759199200831,0.00513568,-0.18280689,0.08981609,0.02994162,-0.01722094,-0.04085681,0.90237405,0.06807925,0.40816131,0.12037705
1759199200841,0.12343164,0.05234252,0.37601919,0.01652717,0.01957712,-0.01717243,0.90233342,0.06816519,0.40826311,0.12028775
1759199200892,0.01951524,-0.00158054,0.05236896,-0.00111125,0.00016145,0.00568818,0.90231454,0.06813713,0.40826718,0.12043138
1759199200925,-0.08966465,0.24954028,0.04000468,0.05566998,0.01769140,0.05019156,0.90199590,0.06907238,0.40856440,0.12127460
1759199200955,0.20578695,-0.20440115,-0.21263093,0.02598193,-0.04013652,0.00158267,0.90222967,0.06945302,0.40797640,0.12129778
1759199200988,0.13925053,-0.14599386,0.07388108,-0.07064801,-0.08179252,0.01200628,0.90290911,0.06827320,0.40661047,0.12149829
1759199201008,0.51463407,0.64660382,-0.68473266,-0.03611412,-0.24547354,-0.01127124,0.90403010,0.06791928,0.40420482,0.12138783
1759199201031,-0.15413187,0.05525614,-0.11020761,0.01629733,-0.25248584,0.00219621,0.90533840,0.06811159,0.40122549,0.12141374
1759199201053,0.20766547,-0.35518790,0.25143199,-0.00316768,-0.24063704,0.00802198,0.90646092,0.06807785,0.39866271,0.12149918
1759199201075,-0.18215359,-0.35161014,0.54715101,-0.13438328,-0.15167592,0.05605364,0.90724384,0.06655260,0.39694119,0.12213539
1759199201087,-0.54972034,0.09212044,-0.69284344,0.03105648,-0.02350926,0.00146649,0.90728794,0.06672807,0.39680836,0.12214367
1759199201109,-0.24260049,0.17594157,0.23705405,0.02567633,-0.00205925,0.07989039,0.90715711,0.06701308,0.39678550,0.12303046
1759199201142,-0.05405697,0.02356298,0.08457815,0.05070017,-0.00083847,0.02123382,0.90705212,0.06785977,0.39677150,0.12338506
1759199201153,-0.34322989,0.78307045,0.27530943,0.05356712,0.02883265,0.09841508,0.90688986,0.06814903,0.39692719,0.12391650
1759199201175,0.17261239,-0.60361343,-0.04227691,-0.03028095,0.01256933,0.05711018,0.90676657,0.06781140,0.39706734,0.12455328
1759199201188,-0.06922045,0.25375446,-0.02973626,-0.00930269,0.00792329,-0.05134056,0.90679347,0.06775279,0.39711726,0.12422983
1759199201209,-0.12366950,0.05852338,-0.13127213,-0.00816555,0.01631557,-0.00824209,0.90673668,0.06766706,0.39728857,0.12414329
1759199201221,0.23277198,0.66497699,0.50928257,-0.20280534,0.02775223,0.03708779,0.90672248,0.06638938,0.39746341,0.12437695
1759199201232,-0.39426013,-1.97903372,-0.88564073,0.18147712,0.03677586,-0.13664509,0.90666294,0.06738751,0.39766568,0.12362540
1759199201253,0.18146794,0.49573469,0.25845574,-0.04381648,-0.00371006,0.00854575,0.90670187,0.06692743,0.39762672,0.12371513
1759199201264,-0.14729134,-0.10654549,0.63228828,-0.10347400,0.01272297,-0.01549472,0.90672381,0.06637902,0.39769416,0.12363301
1759199201276,-0.08312517,0.23617649,-0.50118711,-0.06801587,0.03667208,-0.02448235,0.90667746,0.06597433,0.39791235,0.12348734
1759199201287,0.09278928,0.03457922,-0.41342831,-0.02101827,0.01634426,-0.01344983,0.90665725,0.06586293,0.39799898,0.12341605
1759199201297,0.03005823,-0.07617969,0.18454265,-0.02926158,-0.01917947,0.00602113,0.90671023,0.06570345,0.39789445,0.12344887
1759199201309,0.03671409,0.09020062,-0.06130822,-0.06495831,0.01314000,0.00378132,0.90670134,0.06533969,0.39796803,0.12347004
1759199201320,-0.04948811,-0.04180414,-0.11326874,-0.04287797,-0.02060316,0.00939393,0.90676370,0.06509314,0.39784957,0.12352406
1759199201331,0.13041508,-0.01341816,0.13928130,-0.09581733,0.00879560,0.01270905,0.90677044,0.06458052,0.39789662,0.12359205
1759199201342,0.00889934,-0.34529588,0.17366155,-0.09177568,-0.02867651,0.09498013,0.90680470,0.06406657,0.39773603,0.12412394
1759199201353,-0.01883093,-0.44115398,0.36876195,0.01992056,0.10325174,-0.13226207,0.90664840,0.06417514,0.39829876,0.12340311
1759199201364,-0.23041319,0.53389716,0.20636098,0.03636669,-0.03861300,0.00599891,0.90672571,0.06438243,0.39807866,0.12343731
1759199201376,0.11159600,0.48672053,-0.33132493,0.00062088,0.01167753,0.02071626,0.90668055,0.06438594,0.39814464,0.12355435
1759199201387,-0.03391189,0.22601524,-0.23367491,0.06488717,-0.01634395,0.00324915,0.90669280,0.06476228,0.39804985,0.12357320
1759199201398,0.05279242,-0.11390842,-0.08445231,0.12101202,-0.04654502,-0.02885910,0.90678054,0.06543995,0.39778919,0.12341159
1759199201410,0.33211403,-0.17489688,0.14491906,-0.01799952,-0.00159028,-0.00883493,0.90679861,0.06533825,0.39778021,0.12336167
1759199201420,0.29059878,-0.22111169,0.24708065,-0.02512764,0.00047294,0.02516985,0.90678912,0.06520759,0.39778267,0.12349255
1759199201432,-0.15127380,-0.27463654,0.12567596,-0.01628865,-0.00052846,0.02442021,0.90677776,0.06511149,0.39777955,0.12363663
1759199201443,-0.12112009,-0.05792114,0.20745334,0.02168844,0.03894621,0.01270285,0.90666974,0.06522644,0.39798596,0.12370396
1759199201453,-0.41129343,0.31223428,0.10511441,0.09746071,0.04118256,-0.00658177,0.90653649,0.06576247,0.39821247,0.12366776
1759199201465,-0.10030597,0.30759886,-0.32755559,0.02824064,-0.00554036,0.03352234,0.90651154,0.06593050,0.39817950,0.12386721
1759199201487,0.13748885,-0.07718863,-0.16433015,0.00365521,0.00015532,0.01049435,0.90649279,0.06596925,0.39818115,0.12397845
1759199201498,0.42480732,-0.25170810,-0.03017603,0.08173281,-0.02213149,-0.06764529,0.90656682,0.06643512,0.39805500,0.12359288
1759199201509,-0.16006480,0.19606791,-0.18460195,-0.02286668,-0.01713435,-0.01017013,0.90662714,0.06630478,0.39795733,0.12353491
1759199201520,-0.02014470,-0.03894463,-0.09563354,-0.00025323,0.00283977,0.01099135,0.90661241,0.06630342,0.39797267,0.12359426
1759199201531,-0.00408811,-0.01277534,0.13925125,-0.00787656,0.01360080,0.00565139,0.90657912,0.06626088,0.39804611,0.12362478
1759199201543,-0.12868348,0.08368106,0.15534691,0.00708653,0.00550197,0.00657281,0.90655614,0.06630340,0.39807913,0.12366421
1759199201565,-0.10882363,-0.05663878,-0.03465136,0.01355496,0.00305174,0.00303485,0.90652592,0.06645251,0.39811269,0.12369760
1759199201577,-0.33921847,-0.13819534,-0.17400057,0.00249972,0.00826219,0.03212989,0.90647837,0.06646700,0.39816062,0.12388395
1759199201588,0.71214726,0.03846954,-0.11213028,-0.03880040,-0.00957629,0.04369225,0.90648425,0.06625360,0.39810795,0.12412426
1759199201600,-0.00368766,0.06515495,-0.09244552,-0.04060784,-0.01669819,-0.00182993,0.90654752,0.06600996,0.39800776,0.12411328
1759199201610,0.00437101,-0.11359652,-0.28985242,-0.07383254,-0.04485936,0.00260286,0.90667098,0.06564079,0.39778346,0.12412629
1759199201620,0.05409020,0.06591652,0.21223849,-0.09438925,-0.04478079,0.01857250,0.90679647,0.06514525,0.39754836,0.12422380
1759199201632,0.09037642,-0.16993618,0.05186530,-0.07943720,-0.00432170,0.00786232,0.90683420,0.06468451,0.39752329,0.12426940
1759199201643,0.08491184,-0.09582914,0.28441604,-0.05870966,-0.00280227,0.02083600,0.90684860,0.06435280,0.39750746,0.12438712
1759199201654,-0.00362852,-0.06455437,0.17562400,-0.04386998,0.00803916,0.02144452,0.90682945,0.06410274,0.39755328,0.12450936
1759199201666,-0.07855221,0.27846312,-0.00517054,-0.05019179,-0.00232542,-0.00564458,0.90685932,0.06382167,0.39754026,0.12447775
1759199201676,-0.26500651,-0.15705824,-0.20188412,0.03715832,-0.01901116,0.00020526,0.90688775,0.06400746,0.39744521,0.12447877
1759199201687,-0.33161857,0.32257935,0.04962949,-0.03983706,-0.02155882,0.04475841,0.90692132,0.06378836,0.39732663,0.12472495
1759199201698,0.32717459,0.16024446,-0.33257875,0.05013217,0.07222041,0.06615944,0.90666211,0.06408163,0.39774912,0.12511198
1759199201709,-0.62389517,-0.22021836,0.58778648,0.03574879,-0.05035447,-0.04678241,0.90680640,0.06428004,0.39746966,0.12485234
1759199201720,0.04610917,0.60595393,0.10432477,0.02245728,0.00899986,0.00304914,0.90677363,0.06440355,0.39751915,0.12486911
1759199201731,-0.49828487,-0.20998020,-0.26513020,0.13728128,0.00745121,0.00743842,0.90669750,0.06514487,0.39755939,0.12490927
1759199201744,0.20372431,-0.01685729,0.15565558,0.03632113,0.03699726,0.01685981,0.90655991,0.06538096,0.39779987,0.12501886
1759199201754,-0.07057798,-0.21904577,0.53580933,0.03067990,0.04096393,0.05579575,0.90642181,0.06553282,0.39800264,0.12529505
1759199201765,0.09028640,0.13125684,-0.07814147,0.02132978,0.02377668,0.02372883,0.90634013,0.06564694,0.39812985,0.12542200
1759199201787,0.14444681,-0.06293434,-0.25403147,0.03612172,0.01114882,-0.00011479,0.90625642,0.06604970,0.39825416,0.12542072
1759199201799,-0.84388274,0.47714059,-0.33717579,0.05723011,0.03770496,0.05986459,0.90608354,0.06639022,0.39847850,0.12577691
1759199201801,-23.70176821,1.99764779,-4.60363901,0.08708911,-0.02425408,0.04218472,0.90608228,0.06645989,0.39845910,0.12581066
1759199201821,2.41677155,-0.57837071,0.43674984,-0.00612332,0.00537305,0.00153951,0.90606047,0.06639712,0.39851417,0.12582644
1759199201843,0.03175811,0.00311669,0.00886573,-0.01053037,-0.01602265,0.00065920,0.90614352,0.06628392,0.39834193,0.12583353
1759199201844,-33.70701308,0.18553145,24.61515170,-0.21336237,-0.18721415,-0.13136741,0.90621899,0.06614524,0.39822024,0.12574814
1759199201865,2.13645453,0.12330334,-1.31673400,-0.00964607,-0.02032965,-0.00522680,0.90632828,0.06604347,0.39800576,0.12569300
1759199201876,0.03621077,-0.13017719,-0.19050565,0.01586682,-0.03591129,-0.00546111,0.90641048,0.06612836,0.39781364,0.12566378
1759199201898,0.00988556,-0.04329932,-0.11138339,0.00246440,-0.00652391,-0.00516484,0.90644838,0.06615583,0.39774090,0.12560619
1759199201921,-0.09094696,0.01248093,0.00935481,-0.01502813,0.02580842,0.00008273,0.90633005,0.06598226,0.39803898,0.12560715
1759199201932,0.11970891,-0.14206053,0.07552370,-0.00550760,0.01049752,0.01121500,0.90630036,0.06595390,0.39809305,0.12566491
1759199201955,0.04655788,0.05265177,0.01942514,-0.01047437,0.00522812,0.00215746,0.90627881,0.06583082,0.39815448,0.12569026
1759199201966,0.28113856,-0.32408388,0.25497572,-0.03588336,-0.01370825,-0.00532569,0.90633030,0.06563346,0.39807908,0.12566096
1759199201977,-0.01970401,0.16181922,-0.42043442,-0.02442248,-0.02397014,-0.01633907,0.90641037,0.06549914,0.39794725,0.12557110
1759199201988,0.08908306,0.09263214,0.01842594,-0.03057680,-0.01461619,-0.02023858,0.90647378,0.06532944,0.39786613,0.12545878
1759199201999,-0.05678859,0.01176353,0.00950115,0.00129214,-0.02433590,-0.00654018,0.90653813,0.06533667,0.39772984,0.12542215
1759199202021,-0.04060983,0.02054570,0.01748149,-0.01056275,0.00379423,0.00141944,0.90652608,0.06522101,0.39777139,0.12543769
1759199202032,0.20532534,-0.00097311,0.01238357,-0.02377538,-0.00874926,0.00724031,0.90655153,0.06508787,0.39772240,0.12547824
1759199202070,-0.06326834,-0.03036223,-0.00369870,-0.00614720,0.01252025,0.00173017,0.90645228,0.06497261,0.39795715,0.12551068
1759199202100,0.16878375,-0.24394153,0.01362304,0.00381391,0.01555862,0.00342084,0.90633820,0.06503001,0.39819131,0.12556216
1759199202134,-0.16297970,0.30234155,-0.08464834,0.01509221,-0.00322734,-0.00528810,0.90635646,0.06528884,0.39813596,0.12547147
1759199202167,-0.00697883,-0.06066261,-0.02396701,0.00187773,0.00661235,0.01257551,0.90627731,0.06531992,0.39824539,0.12567960
1759199202188,0.33100839,-0.28116987,-0.17600797,-0.08151841,-0.05096946,-0.05821386,0.90665085,0.06448028,0.39772041,0.12507999
1759199202210,-0.07332452,0.13817739,0.10819423,-0.05658561,-0.00177082,-0.01009757,0.90671876,0.06385784,0.39770093,0.12496892
1759199202233,-0.19468940,0.04995865,0.04841997,0.02911014,0.02041712,-0.00004921,0.90659273,0.06419115,0.39793470,0.12496836
1759199202244,-0.07165500,0.12814589,0.36367080,-0.04542943,0.00550775,-0.00403638,0.90660055,0.06392766,0.39796665,0.12494495
1759199202266,-0.05252937,0.01238591,-0.10490144,0.01875051,-0.00868842,-0.02082212,0.90665813,0.06412922,0.39787325,0.12472111
1759199202278,0.05985620,-0.10423852,-0.13055756,-0.02368723,0.01567691,-0.00361102,0.90662963,0.06398592,0.39796809,0.12469926
1759199202288,-0.04461974,-0.01270170,0.20204743,-0.04245127,-0.00462225,-0.00563532,0.90665861,0.06377366,0.39794498,0.12467109
1759199202301,-0.02534962,0.18761046,-0.14153663,-0.00478401,0.00573249,-0.00797131,0.90665178,0.06374352,0.39798110,0.12462087
1759199202322,-0.02766774,0.01452739,0.04246889,-0.00033872,0.00160878,-0.00323824,0.90664922,0.06373986,0.39799847,0.12458589
1759199202333,-0.17955701,0.23430431,-0.37007232,-0.00559572,-0.00292176,0.00514043,0.90665421,0.06371105,0.39798343,0.12461237
1759199202344,-0.17755572,-0.01773021,0.15848812,0.01429400,-0.00451267,-0.00021342,0.90665979,0.06379038,0.39795838,0.12461118
1759199202356,0.03551109,0.04431699,0.15833048,-0.00577239,0.00271959,0.00755883,0.90664855,0.06375488,0.39797511,0.12465767
1759199202366,-0.06860002,-0.07761385,0.10875255,-0.00439292,-0.00301281,-0.00480676,0.90666070,0.06373159,0.39795914,0.12463219
1759199202379,0.20404312,-0.12418639,0.06485885,-0.01873155,-0.00418796,-0.00497319,0.90668468,0.06361452,0.39793296,0.12460111
1759199202389,0.19208110,-0.11607509,-0.14638517,-0.01673160,0.00864142,0.00194965,0.90667010,0.06353003,0.39797660,0.12461096
1759199202400,0.01474387,-0.10039293,-0.03728765,0.01106490,0.00027746,-0.01124944,0.90667366,0.06359088,0.39797813,0.12454908
1759199202422,0.02005723,0.02998021,0.05205497,-0.00234295,-0.01310614,-0.00689681,0.90674881,0.06356523,0.39783462,0.12447356
1759199202433,0.18319148,-0.01674973,-0.40164471,-0.06894090,-0.08961891,-0.01397034,0.90701115,0.06317227,0.39732379,0.12439393
1759199202445,-0.06875053,-0.37100076,0.29182880,0.00385472,-0.01432273,-0.01363024,0.90705721,0.06319482,0.39724000,0.12431420
1759199202455,0.08377579,-0.56773044,0.55775241,-0.02889688,-0.04696018,-0.00770376,0.90717769,0.06304744,0.39700050,0.12427491
1759199202466,-0.15336049,0.29201120,-0.01539755,-0.01719128,-0.01181171,0.00855264,0.90720546,0.06295547,0.39693731,0.12432066
1759199202478,-0.28890843,0.57168830,-0.29307023,-0.00883070,0.00677173,0.01365421,0.90717971,0.06290160,0.39697862,0.12440395
1759199202489,-0.12901108,0.11861588,-0.03758474,0.02495703,0.01120867,0.00998946,0.90713486,0.06304136,0.39704139,0.12445990
1759199202500,-0.06362121,0.08649820,0.15881578,0.03298054,-0.00622228,-0.01144454,0.90714565,0.06321946,0.39700779,0.12439809
1759199202522,0.08056697,-0.01693848,-0.05388769,0.01155025,-0.00674233,0.00152412,0.90716714,0.06334766,0.39693295,0.12441501
1759199202535,-0.60871960,0.16873241,-0.08439142,0.02979489,0.00249177,-0.00914219,0.90715552,0.06352792,0.39694802,0.12435970
1759199202545,0.37133355,-0.01872775,0.19376843,-0.00751418,0.01020257,-0.00095533,0.90713553,0.06348847,0.39700159,0.12435469
1759199202556,0.19733290,-0.05194948,0.12818658,-0.00621050,0.02375398,0.00548911,0.90707498,0.06345338,0.39713580,0.12438570
1759199202566,0.00373170,-0.05719747,0.08216609,-0.01886091,0.01786250,-0.01184653,0.90705156,0.06336285,0.39722154,0.12432884
1759199202578,0.33787092,-0.25337736,-0.08880297,-0.01432592,0.00553357,0.00068400,0.90704208,0.06327331,0.39725612,0.12433311
1759199202590,0.18025846,-0.10954561,-0.00829947,-0.03082824,-0.01416651,-0.01777844,0.90710195,0.06310222,0.39717750,0.12423444
1759199202601,-0.08379088,0.08273911,-0.20248760,-0.06140406,-0.02624924,-0.00437344,0.90719187,0.06276450,0.39703312,0.12421039
1759199202612,-0.09454389,0.12373674,-0.05995291,-0.04412649,0.01216588,-0.00251191,0.90718075,0.06251077,0.39710308,0.12419594
1759199202622,0.09639698,-0.25421443,0.12973985,0.01396048,0.02057856,-0.02356481,0.90714533,0.06258406,0.39721112,0.12407223
1759199202634,0.15129240,-0.11346930,0.32758638,-0.02402271,-0.01349820,-0.01479821,0.90719902,0.06244953,0.39713553,0.12398936
1759199202646,-0.06764561,0.13505018,0.02897973,-0.07848851,-0.00448645,0.01303095,0.90723158,0.06199038,0.39710928,0.12406559
1759199202656,-0.25312870,-0.04797444,-0.24027020,-0.01771703,0.04047492,0.01749928,0.90713327,0.06189825,0.39731975,0.12415659
1759199202667,-0.16554398,0.19119654,-0.06499616,0.00523589,0.02426935,0.02977388,0.90705266,0.06192626,0.39744959,0.12431588
1759199202668,-12.88476776,12.39459573,8.64957648,0.10995978,0.07156441,0.07169350,0.90700882,0.06202522,0.39751400,0.12438040
1759199202679,1.94405992,-1.67553594,-1.31350612,0.10653162,0.04571073,0.00598715,0.90686370,0.06257386,0.39774941,0.12441123
1759199202689,0.25081112,-0.17596512,0.07258374,0.07381043,0.04764330,0.02685395,0.90670777,0.06296137,0.39799954,0.12455222
1759199202700,0.06470894,-0.01184092,0.14323716,0.01992380,-0.00330929,0.04829904,0.90667227,0.06306895,0.39798167,0.12481303
1759199202723,0.09589114,-0.03608992,-0.13227172,0.00071219,-0.00226287,0.02622318,0.90664209,0.06307700,0.39795610,0.12510935
1759199202735,-0.15474790,0.06543983,0.04176025,0.01202702,-0.02064055,-0.00090501,0.90669217,0.06314916,0.39783225,0.12510392
1759199202745,-0.04407564,-0.16819814,-0.31338696,-0.01053345,-0.03024185,0.00274309,0.90676232,0.06309492,0.39767651,0.12511805
1759199202767,0.06753678,-0.02986419,0.01710710,-0.00286987,-0.01909022,-0.00385346,0.90686470,0.06306263,0.39746174,0.12507470
1759199202779,0.15368667,-0.35814460,0.27744106,0.05518808,-0.11271485,-0.04242620,0.90715740,0.06337720,0.39681927,0.12483287
1759199202790,0.40134645,0.22143055,0.05506324,-0.04364529,-0.07011749,0.01389885,0.90733380,0.06313497,0.39643012,0.12491001
1759199202812,-0.15108037,0.10998834,-0.08669268,-0.01947365,-0.04206603,0.01704090,0.90752316,0.06292271,0.39597160,0.12509575
1759199202823,-0.08042951,0.13056145,-0.35089842,0.09941546,-0.00991311,-0.02947388,0.90753141,0.06348441,0.39591559,0.12492923
1759199202835,-0.03152157,-0.05067648,0.03837432,0.03003098,-0.01509610,0.01983384,0.90754217,0.06366910,0.39582275,0.12505121
1759199202847,0.30458355,-0.29516612,0.08554719,0.00811596,-0.04075990,0.01023748,0.90763139,0.06371495,0.39559245,0.12510905
1759199202857,0.20241155,-0.27909035,0.03124181,0.00367057,-0.05838768,-0.00423103,0.90776664,0.06373422,0.39528592,0.12508683
1759199202867,0.05123161,0.01461733,0.19378605,-0.07197015,-0.05657259,0.01570209,0.90790413,0.06337437,0.39500305,0.12516534
1759199202879,-0.40074152,0.30811485,-0.18543356,-0.05132788,-0.01947233,-0.00117425,0.90797859,0.06306127,0.39488427,0.12515818
1759199202913,-0.06012392,0.02446624,-0.00218560,-0.01491957,0.00714681,0.00370817,0.90793540,0.06281211,0.39500362,0.12522011
1759199202923,-1.12952745,0.64274267,0.41438075,0.05896225,0.06895041,0.00751461,0.90775795,0.06310987,0.39535182,0.12525806
1759199202934,0.24662321,-0.21002165,-0.02662793,0.05346006,0.11207427,0.01712782,0.90744749,0.06341192,0.39598504,0.12535483
1759199202946,-0.02141784,-0.75734771,0.47173435,0.03526969,0.05016901,-0.03101406,0.90732795,0.06362178,0.39628355,0.12517030
1759199202968,0.24426804,0.11548294,-0.19654677,-0.01902950,0.00506021,0.01116464,0.90730122,0.06341150,0.39633946,0.12529366
1759199202979,-0.14131854,-0.00127797,0.15996568,-0.00461480,0.05145630,0.00492769,0.90717900,0.06338681,0.39661476,0.12532003
1759199203036,0.07042181,0.04574216,-0.09693898,0.00556090,0.00567695,0.00451459,0.90707955,0.06354502,0.39677627,0.12544847
1759199203046,-2.07882722,1.07971120,3.74659541,0.26200286,-0.03499973,0.12098724,0.90698050,0.06484193,0.39660302,0.12604735
1759199203108,0.31523408,-0.11133511,-0.48652048,0.04888556,0.00177055,0.02776908,0.90672311,0.06637939,0.39665870,0.12692069
1759199203139,-0.03201710,-0.03566098,0.13776364,0.00023762,0.00453644,0.03946578,0.90660925,0.06638297,0.39672720,0.12751663
1759199203168,0.04729245,-0.05946418,-0.20336415,-0.04160982,-0.01572820,0.00885820,0.90673448,0.06578171,0.39649993,0.12764463
1759199203190,0.10622856,-0.03661320,0.04745345,0.00831876,0.00275039,0.00250024,0.90670998,0.06587613,0.39653115,0.12767300
1759199203213,0.04944604,-0.07047974,0.11239951,0.00896468,0.03694754,-0.00077263,0.90651696,0.06597967,0.39695789,0.12766408
1759199203235,-0.03082078,0.01642075,0.01211785,0.02004084,0.12488331,-0.02893303,0.90594550,0.06619912,0.39832536,0.12734726
1759199203257,-0.10443232,-0.09143442,0.16716480,0.00322234,0.14892006,-0.04765264,0.90529152,0.06623473,0.39997093,0.12682070
1759199203280,0.08187058,0.10691229,-0.23250657,-0.02768595,0.06767835,0.00893738,0.90495901,0.06591911,0.40074246,0.12692259
1759199203291,0.50877211,0.02198262,1.54553090,-0.00224249,0.22548896,0.03903134,0.90438482,0.06590688,0.40197138,0.12713531
1759199203301,-0.75220881,0.41850961,-1.18768997,0.09453655,0.14768633,0.02904608,0.90399355,0.06638902,0.40272458,0.12728344
1759199203313,-0.42339473,0.08244166,-0.35767833,0.02793821,0.16812311,-0.05929758,0.90359153,0.06655246,0.40370810,0.12693655
1759199203325,-0.07409013,-0.02055198,-0.25203536,0.05381226,0.05218310,0.01093408,0.90341707,0.06687802,0.40402380,0.12700270
1759199203347,0.19413452,-0.11466996,-0.15504982,0.02581378,0.03291069,-0.00863714,0.90324814,0.06716068,0.40438418,0.12690813
1759199203357,-0.43586401,0.78524714,0.11154189,0.09578314,-0.02117812,0.02290911,0.90324384,0.06762523,0.40428146,0.12701924
1759199203369,0.31587258,-0.61864508,-0.09902689,0.00072463,0.03602236,-0.07823591,0.90321160,0.06762973,0.40450480,0.12653417
1759199203380,0.01627822,-0.40042579,0.12416740,-0.02802764,0.02243738,0.05103980,0.90312696,0.06747277,0.40463045,0.12682000
1759199203390,0.01359545,-0.04484518,-0.05312583,-0.03349939,0.02096259,0.02874328,0.90307175,0.06730360,0.40473631,0.12696515
1759199203413,-0.00067047,0.01614365,-0.03361707,-0.02054541,0.02865445,-0.03506949,0.90299819,0.06706733,0.40506584,0.12656185
1759199203424,-0.73302035,-0.13654732,0.60019010,0.00347410,0.01308066,0.05403680,0.90292416,0.06708609,0.40513647,0.12685365
1759199203435,0.27434617,0.43911891,-0.62128449,0.10158689,-0.00663414,0.04496541,0.90286626,0.06762450,0.40510131,0.12709197
1759199203446,0.43959148,0.15275326,0.02717982,0.09891950,-0.07029706,0.04021072,0.90296850,0.06817350,0.40471116,0.12731514
1759199203457,0.20124610,-0.08828705,-0.22954634,0.15443178,-0.03011580,0.11133096,0.90289094,0.06903060,0.40454402,0.12793302
1759199203468,-0.16039246,0.30844106,0.50619348,-0.02573245,-0.08131540,0.01052901,0.90309380,0.06888907,0.40409679,0.12799093
1759199203480,-0.15612590,-0.19427729,-0.21273789,0.07624198,-0.05069703,0.06528795,0.90313886,0.06934271,0.40379514,0.12837940
1759199203492,0.18159483,0.06661517,0.12937398,0.01225585,-0.04560895,0.04798641,0.90321203,0.06941379,0.40353061,0.12865772
1759199203502,0.19402149,-0.10395147,0.35615562,0.03394533,-0.08517917,0.02681642,0.90338107,0.06959540,0.40307490,0.12880119
1759199203514,-0.02497764,0.06186220,0.10547846,0.07128974,-0.05124648,0.09079660,0.90340667,0.07001244,0.40277511,0.12933235
1759199203525,-0.06909528,0.12539000,-0.04581698,0.05151609,-0.01574749,0.16768538,0.90328548,0.07030866,0.40268456,0.13029654
1759199203535,-0.05060973,0.21245515,-0.07699439,0.04078457,-0.00532458,0.16364425,0.90316796,0.07050443,0.40265900,0.13108203
1759199203547,-0.46059075,-0.50612208,-0.55118774,0.16766889,-0.05144942,0.00019094,0.90322627,0.07151044,0.40235030,0.13108317
1759199203557,-0.03769055,0.24328661,0.00758585,0.08353806,-0.02765500,0.00746112,0.90325065,0.07195319,0.40220373,0.13112272
1759199203568,0.25418540,0.18633420,0.05553092,0.03764902,-0.02613378,0.09312704,0.90322436,0.07215461,0.40206392,0.13162095
1759199203580,0.31527650,0.11376894,0.14109249,0.00483877,-0.02740901,0.08371128,0.90322194,0.07218316,0.40190220,0.13211484
1759199203592,-0.16637596,-0.10912385,-0.15699092,0.00914321,-0.01933289,0.01532552,0.90325599,0.07223848,0.40178524,0.13220756
1759199203602,-0.03960704,-0.37284575,-0.05068978,-0.02666053,0.10260771,-0.12886007,0.90313483,0.07210784,0.40228802,0.13157615
1759199203613,0.15109379,-0.13745699,0.15634371,-0.05705741,-0.02293910,0.02408710,0.90319503,0.07180259,0.40216529,0.13170502
1759199203624,0.51197851,-0.23136774,0.08684182,-0.11522162,0.04061437,0.03431678,0.90311394,0.07113430,0.40240086,0.13190405
1759199203635,0.28517934,0.01683873,0.13756530,-0.11533696,-0.07152318,0.06933382,0.90328154,0.07050571,0.40201106,0.13228192
1759199203647,-0.23085624,0.09400454,-0.32717363,-0.05816702,-0.08073961,-0.03123683,0.90355383,0.07015380,0.40152258,0.13209294
1759199203657,-0.51906273,0.28333991,-0.51244359,-0.02618273,-0.04772624,-0.05353385,0.90371217,0.07002027,0.40127918,0.13181992
1759199203692,-0.03543014,-0.00485518,0.06113165,0.00731458,0.00095823,-0.00623681,0.90371074,0.07014608,0.40129566,0.13171264
1759199203703,-1.20457832,0.55737856,1.11987236,0.26669341,0.12555533,0.05491130,0.90324885,0.07159956,0.40197993,0.13201191
1759199203725,0.47480060,-0.25402194,-0.27258364,-0.01252695,0.03286935,-0.00405631,0.90310399,0.07146051,0.40234478,0.13196689
1759199203736,0.18322959,-0.80472040,0.33327411,0.04542893,0.07450800,-0.01092296,0.90291028,0.07171037,0.40275458,0.13190681
1759199203748,0.03416731,0.43179501,-0.23204984,-0.06135960,-0.00959244,0.00234399,0.90296305,0.07134221,0.40269702,0.13192087
1759199203759,0.05232781,0.13552085,-0.73242324,0.01411065,0.00655000,0.00424326,0.90293791,0.07141841,0.40273239,0.13194379
1759199203770,0.25327777,0.11767692,0.03473277,-0.00469743,-0.02839479,-0.00078893,0.90301220,0.07139187,0.40257196,0.13193933
1759199203781,0.08168856,0.03921051,0.26782179,-0.00121723,-0.03951866,-0.01246170,0.90312253,0.07138499,0.40234868,0.13186892
1759199203791,0.10256184,-0.00597923,0.00186212,-0.00497617,-0.01922893,-0.00634189,0.90317146,0.07136036,0.40225350,0.13183753
1759199203803,-0.05568329,0.03166394,0.05952820,-0.01112106,-0.01002247,0.00095156,0.90320294,0.07129308,0.40219286,0.13184329
1759199203813,0.13159210,0.08465681,0.11379665,-0.00849766,0.00199971,0.00309470,0.90319951,0.07124974,0.40220306,0.13185907
1759199203825,-0.01824820,-0.07222847,0.00235811,-0.01026424,0.01825517,0.00471642,0.90315305,0.07119021,0.40230894,0.13188642
1759199203837,0.02943127,-0.01183467,0.05599324,-0.02680371,0.02522128,0.00978585,0.90309236,0.07103609,0.40245396,0.13194269
1759199203848,0.13278288,0.22352452,-0.09638065,-0.01054262,0.02094098,0.01194727,0.90303547,0.07097758,0.40257019,0.13200900
1759199203859,0.10681569,0.17018139,-0.17128283,0.00299341,0.05688065,0.02922386,0.90287412,0.07099374,0.40287734,0.13216681
1759199203869,-0.15279311,0.17374468,0.03142735,0.00160047,-0.00902909,0.00592179,0.90289051,0.07100238,0.40282859,0.13219879
1759199203893,-0.11429998,-0.22917828,-0.04535517,0.04552543,0.01220297,0.00355419,0.90277962,0.07153048,0.40297014,0.13224001
1759199203914,0.09098783,0.14430884,-0.02274219,0.05671771,-0.04920728,0.02142981,0.90293256,0.07213736,0.40244362,0.13246931
1759199203926,0.93360327,0.52928273,-0.38897219,-0.01687686,-0.15947414,-0.00948379,0.90337117,0.07203694,0.40149475,0.13241288
1759199203937,-0.16073674,-0.81224006,-0.12215661,-0.00625979,-0.10303337,-0.01300368,0.90363604,0.07200251,0.40092807,0.13234136
1759199203948,-0.27559546,-0.32429551,-0.41387915,-0.05267125,-0.12219373,-0.03461013,0.90399113,0.07170755,0.40024378,0.13214755
1759199203970,-0.35391705,-0.07143952,0.22845409,-0.01400028,-0.03720486,-0.02938110,0.90423378,0.07155215,0.39983081,0.13182142
1759199203992,0.11662448,-0.05656577,-0.00993168,-0.03856787,-0.03930720,0.00165172,0.90445667,0.07112597,0.39939646,0.13183967
1759199204004,1.17278635,-1.17824366,-0.63041207,-0.20986724,-0.12202135,-0.06657739,0.90491592,0.06991924,0.39869484,0.13145685
1759199204014,-1.30243923,0.80878320,0.25514027,-0.19529942,-0.05408508,-0.12277912,0.90519888,0.06894274,0.39842442,0.13084295
1759199204025,-0.34452470,0.44171475,-0.00464276,-0.09644464,0.01307425,-0.06450884,0.90525868,0.06841229,0.39849632,0.13048815
1759199204037,-0.08215188,0.10682040,0.56638445,-0.01904576,-0.02293697,-0.02395257,0.90534633,0.06830088,0.39836214,0.13034803
1759199204059,-0.01300930,0.08369329,0.14975118,0.00486384,0.01261074,-0.00003714,0.90528042,0.06835511,0.39850275,0.13034762
1759199204070,-0.21835141,0.06327880,-0.08054627,0.02749353,0.02988793,0.01284402,0.90518558,0.06850770,0.39866863,0.13041890
1759199204104,0.01463342,0.04783191,0.04859745,0.00831423,0.00514750,0.00546025,0.90512239,0.06865029,0.39875691,0.13051255
1759199204115,-1.22126846,0.20772127,0.04197917,0.00428941,-0.01731090,0.03967575,0.90513097,0.06867366,0.39866257,0.13072878
1759199204147,0.34564739,-0.09084433,-0.03119906,0.00555175,0.00420915,0.00114567,0.90509179,0.06876277,0.39873012,0.13074717
1759199204158,-0.68099145,-0.21920417,-0.72159717,-0.08263108,0.06705433,0.01109744,0.90495358,0.06830417,0.39910227,0.13080876
1759199204192,0.28329589,0.03011890,0.23594145,-0.03685413,-0.00883154,-0.00474531,0.90507887,0.06767580,0.39895170,0.13072785
1759199204203,-0.00746846,-1.02888327,-0.95089748,-0.17115985,-0.03126429,-0.01280912,0.90523471,0.06673443,0.39877974,0.13065740
1759199204248,0.04877169,0.22086704,0.24120451,-0.00630848,-0.01145676,-0.00696728,0.90537998,0.06659375,0.39852426,0.13050203
1759199204260,0.10882376,0.55915690,-0.57582295,-0.02481619,0.03225864,0.07387990,0.90524515,0.06644857,0.39871297,0.13093423
1759199204292,-0.01924714,-0.07254205,0.18159288,0.00604228,-0.00432988,0.00318475,0.90526149,0.06654706,0.39864239,0.13098614
1759199204315,-0.14962203,0.06730821,-0.16338354,0.05907783,-0.02698240,-0.00380531,0.90535099,0.06720282,0.39834289,0.13094390
1759199204327,-0.85205108,0.79368261,-0.42738757,0.16949075,0.00674020,0.07810191,0.90518923,0.06821977,0.39838333,0.13141251
1759199204348,0.34978871,-0.42214888,0.54716152,0.04448132,-0.03440968,0.03926049,0.90525290,0.06868682,0.39802203,0.13182475
1759199204359,0.08894384,-0.23712134,0.23097803,-0.00851434,-0.05765589,0.06329308,0.90534757,0.06863872,0.39769627,0.13218235
1759199204382,0.08529735,-0.07166178,-0.11477760,-0.01135040,-0.03433050,0.01036308,0.90551338,0.06850819,0.39730147,0.13230153
1759199204392,-0.02522164,0.05372234,-0.08291645,0.02407005,-0.03578644,0.02157079,0.90556967,0.06863456,0.39711359,0.13241477
1759199204403,-0.40256204,0.03485114,0.06619818,0.07131118,-0.08483899,-0.06421647,0.90579180,0.06901964,0.39665546,0.13206800
1759199204416,0.07995957,0.13904986,0.00990940,0.00056021,-0.01918441,-0.00778306,0.90585207,0.06902319,0.39653364,0.13201858
1759199204427,-0.11428329,-0.00395632,0.19116385,0.06644206,-0.02443090,-0.01867724,0.90589792,0.06938862,0.39639927,0.13191586
1759199204437,0.06246224,-0.05663583,0.19276474,0.06836972,0.02650882,-0.00830369,0.90581657,0.06974415,0.39653712,0.13187268
1759199204448,0.38134628,-0.10112289,0.25790471,0.03422878,0.03175950,0.01608340,0.90571835,0.06992214,0.39670227,0.13195631
1759199204459,-0.02995088,-0.06596691,-0.05700975,0.03571443,0.04806026,0.00350497,0.90557723,0.07012928,0.39698102,0.13197664
1759199204492,0.03895788,0.00100900,-0.13165535,0.00355819,0.01046155,-0.00047101,0.90549741,0.07018852,0.39715520,0.13196880
1759199204494,-94.34346499,10.16918131,110.02652872,-0.07612282,0.75783810,-0.03487699,0.90528833,0.07013904,0.39764780,0.13194613
1759199204515,5.72759777,-0.61588867,-6.71041161,-0.01160901,0.01537424,-0.00562311,0.90523545,0.07001715,0.39780923,0.13188709
1759199204526,0.19099153,-0.06766313,0.08646255,-0.03156791,0.02282781,0.02764088,0.90516802,0.06983406,0.39794163,0.13204740
1759199204538,-0.04542530,-0.04184396,-0.08383035,-0.03512562,0.01544546,0.01288657,0.90513253,0.06962506,0.39803353,0.13212408
1759199204561,-0.00647137,-0.01276044,-0.11440837,-0.00454837,0.00573433,0.01757465,0.90507968,0.06957434,0.39809746,0.13232004
1759199204572,-0.34224018,-0.09199919,0.43337843,0.01918545,-0.01451683,0.01389348,0.90509550,0.06967986,0.39801762,0.13239645
1759199204582,0.52450494,0.26203284,-0.27551551,0.01958432,-0.00250065,0.01626617,0.90508114,0.06978072,0.39800474,0.13248022
1759199204592,-0.03592323,0.10425719,-0.02454239,-0.00018652,-0.02933303,0.01081186,0.90514117,0.06977973,0.39784928,0.13253752
1759199204604,0.05435148,-0.14020495,-0.16331698,-0.00937375,-0.02268795,-0.00276371,0.90520498,0.06972584,0.39771882,0.13252163
1759199204616,0.12966865,-0.01945322,-0.04437184,-0.05161003,-0.02896800,-0.01018882,0.90531317,0.06941876,0.39754646,0.13246101
1759199204626,0.06379454,-0.08335269,0.04335389,-0.01944654,-0.02888780,0.02106340,0.90537138,0.06931666,0.39739480,0.13257159
1759199204637,0.02067879,0.05604248,0.01608841,-0.02212374,-0.02156254,0.01781261,0.90541796,0.06919609,0.39727729,0.13266867
1759199204673,-0.04095128,0.01109385,-0.06499145,0.00179119,-0.00664877,0.00183796,0.90546240,0.06922779,0.39715960,0.13270120
1759199204683,-0.01054527,0.00721953,0.43502624,0.09789465,-0.11527232,0.13916993,0.90557745,0.06972705,0.39657171,0.13341097
1759199204704,-0.22120823,0.09311774,0.03800581,0.08701657,-0.01189510,0.05016728,0.90548177,0.07065813,0.39644444,0.13394776
1759199204715,-0.23007200,0.26265728,0.05123504,0.02774718,-0.02223413,0.04733319,0.90548483,0.07081074,0.39632215,0.13420809
1759199204727,0.16943421,0.14668227,0.07371900,0.01395897,-0.03546289,-0.01221393,0.90558143,0.07089380,0.39611114,0.13413542
1759199204749,0.07018936,-0.10460411,-0.18449115,0.00313503,-0.02133835,0.02565170,0.90563979,0.07092844,0.39587536,0.13441887
1759199204760,0.03801448,0.51561500,0.20331636,0.02771681,0.04728209,0.03401577,0.90549191,0.07107534,0.39612595,0.13459915
1759199204771,-0.21651727,-0.07593602,0.12976452,0.01358486,-0.05105209,0.02139573,0.90559584,0.07115345,0.39583240,0.13472218
1759199204783,0.08507079,-0.40564034,-0.12925798,0.01726318,0.02309317,0.00960474,0.90551983,0.07125530,0.39596865,0.13477885
1759199204804,0.09920723,-0.11905435,-0.10206381,0.00805604,-0.00032756,0.00627957,0.90550479,0.07134029,0.39596520,0.13484510
1759199204806,-16.37906762,16.27009062,67.14285895,0.05384210,0.15143313,0.00164800,0.90545175,0.07138068,0.39607877,0.13484633
1759199204838,0.80625371,-0.77133882,-3.15876484,-0.01259615,0.00870598,0.00051687,0.90540544,0.07117914,0.39621807,0.13485460
1759199204849,-0.28514626,0.23602613,1.00902386,-0.02793742,0.07516978,0.02449855,0.90521295,0.07102269,0.39663902,0.13499179
1759199204860,0.09280191,0.13985460,0.16905397,-0.00070847,0.01647930,-0.01517587,0.90518622,0.07101883,0.39672883,0.13490909
1759199204871,0.14562275,-0.31785154,-0.50967724,0.04070944,0.04125660,0.00474697,0.90506855,0.07123662,0.39694955,0.13493448
1759199204882,-0.02036547,-0.17052635,-0.51484193,0.02063882,0.00542517,0.00896829,0.90503863,0.07135220,0.39697993,0.13498470
1759199204893,0.09897307,-0.04543932,-0.11226904,-0.00577279,0.01188252,0.00112729,0.90501129,0.07132016,0.39704588,0.13499096
1759199204904,0.10415169,0.08508451,-0.17187537,0.01490035,-0.00510687,-0.00775786,0.90502352,0.07140211,0.39701779,0.13494829
1759199204915,0.02732651,-0.02118075,-0.09088128,0.00783645,-0.02710473,-0.02695846,0.90511065,0.07144678,0.39686330,0.13479463
1759199204938,0.00206789,-0.02320493,-0.02236225,-0.00696374,-0.01805543,-0.00920754,0.90522227,0.07136774,0.39665837,0.13469012
1759199204939,18.18374371,-11.95922769,-19.28189983,-0.82307248,-0.41127548,-0.04486547,0.90538571,0.07083275,0.39639104,0.13466096
1759199204950,-2.22246130,1.40881811,2.07650002,-0.00697836,0.01340814,0.03063248,0.90533135,0.07079436,0.39646478,0.13482944
1759199204960,-0.21994114,0.05258755,0.11185353,0.00234910,-0.01073734,0.01608617,0.90534196,0.07080611,0.39641110,0.13490987
1759199204972,0.12569029,0.05779390,0.19491584,0.00559807,0.00740523,0.05550309,0.90527139,0.07083914,0.39645479,0.13523734
1759199205005,0.01356947,-0.00507678,-0.00193549,0.00188309,-0.00918187,0.00775563,0.90531670,0.07087059,0.39630145,0.13536686
1759199205016,-0.13252451,0.51114055,0.24476930,-0.12836477,-0.12470209,0.02778125,0.90563670,0.07019025,0.39564053,0.13551410
1759199205028,-0.22982372,-0.26791475,-0.07958533,-0.05633506,-0.06234571,0.01064438,0.90581210,0.06986069,0.39527581,0.13557637
1759199205039,0.26297554,-0.35364118,0.49508389,-0.01912974,-0.06307944,0.02408319,0.90594916,0.06975739,0.39493518,0.13570642
1759199205061,0.17572332,-0.01263226,-0.14879821,-0.02356357,-0.00469111,0.05202711,0.90590467,0.06949230,0.39488240,0.13629172
1759199205072,-0.17264172,-0.11037897,1.43873809,0.01592142,-0.05778166,0.00964808,0.90602281,0.06957589,0.39457905,0.13634237
1759199205083,-0.57291320,0.15196158,-0.79877178,0.07712460,0.04539207,0.11668793,0.90576935,0.07002707,0.39484459,0.13702500
1759199205094,-0.63857746,0.13856561,0.64964495,0.01311354,0.01289688,-0.05160026,0.90577539,0.07009526,0.39491166,0.13675668
1759199205104,0.11342540,0.62329920,-0.34963660,0.00742176,-0.00808362,0.04846842,0.90575176,0.07013534,0.39486800,0.13701841
1759199205144,0.20773779,-0.17806281,-0.25075652,0.02666622,0.03121451,-0.02022553,0.90550406,0.07065799,0.39547981,0.13662199
1759199205172,-0.45810210,0.14938088,0.61515349,0.04780006,0.04843664,0.02509433,0.90510201,0.07132720,0.39615792,0.13697331
1759199205206,0.13837932,-0.03103665,-0.16531441,0.03112252,0.01277641,0.04002355,0.90486252,0.07185472,0.39637448,0.13765171
1759199205216,-0.49299642,0.10064241,1.90615639,-0.07227721,-0.00581203,0.00032025,0.90490732,0.07146081,0.39634281,0.13765345
1759199205251,0.44558254,-0.22957431,-0.85545873,-0.06026411,-0.02052797,-0.00240503,0.90514872,0.07042728,0.39599075,0.13761221
1759199205261,1.21284226,-0.64929918,0.98142716,0.04372050,-0.03715211,-0.01798903,0.90522738,0.07064807,0.39580313,0.13752136
1759199205283,-0.40960818,0.37467989,-0.52671386,0.01813234,-0.00977411,0.01140664,0.90523972,0.07084753,0.39569562,0.13764683
1759199205295,-0.39414417,0.14760144,0.01912236,0.03032649,0.02583201,0.02982700,0.90513320,0.07102494,0.39584674,0.13782132
1759199205328,0.11228010,-0.02339477,-0.01250217,0.00397879,-0.00387996,0.01630677,0.90511492,0.07109098,0.39578233,0.13809201
1759199205339,0.73565045,-0.40322465,0.77203346,-0.05907894,-0.07973876,0.02097177,0.90532167,0.07075423,0.39532782,0.13821155
1759199205351,-0.17080221,0.17363488,-0.93645592,-0.01259199,-0.04947659,-0.00398035,0.90545499,0.07068183,0.39504333,0.13818867
1759199205383,-0.20343831,0.09335243,-0.06404551,0.01488138,-0.00236626,-0.00510583,0.90546535,0.07091993,0.39500547,0.13810697
1759199205405,-0.10090120,0.15572331,0.36128248,0.07088558,0.04918701,0.03264280,0.90510642,0.07171385,0.39555636,0.13847257
1759199205416,-0.17145846,0.02107708,-0.04995622,-0.00431306,0.02193952,0.04136795,0.90502383,0.07169099,0.39567264,0.13869182
1759199205427,-0.15889857,-0.04028942,-0.36227778,-0.00928534,0.04348358,0.02094010,0.90490240,0.07163853,0.39591832,0.13881013
1759199205439,0.32703355,-0.05900183,-0.01919426,0.01141355,0.05272964,0.03634859,0.90473091,0.07170473,0.39622415,0.13902096
1759199205449,-0.08271374,0.10467853,-0.10736575,0.05397993,0.05645605,0.03160850,0.90454794,0.07199622,0.39652902,0.13919164
1759199205461,-0.44320600,0.31607196,-0.28992946,0.07134127,0.07293321,0.00543059,0.90432642,0.07240643,0.39694838,0.13922287
1759199205472,-0.25653254,-0.03602415,-0.05104571,0.17319360,0.13782356,0.03843958,0.90387183,0.07338498,0.39772709,0.13944005
1759199205483,0.17194804,-0.17748871,0.47803923,0.05275988,0.02035314,0.05078626,0.90375582,0.07367515,0.39783903,0.13971938
1759199205494,0.56164486,-0.25587979,0.19994585,-0.02540100,-0.00035332,0.04765461,0.90372775,0.07353672,0.39783710,0.13997909
1759199205505,0.16003604,-0.31003847,-0.38378548,0.02105428,0.00635518,0.00914371,0.90369544,0.07365146,0.39787174,0.14002893
1759199205516,-0.00021747,0.02456992,-0.33120016,-0.01440121,0.00839468,-0.00985815,0.90368991,0.07357154,0.39791833,0.13997421
1759199205528,0.07486844,0.05396992,0.04176152,-0.03684666,-0.01168957,0.00914198,0.90372858,0.07335967,0.39785111,0.14002678
1759199205539,0.09397940,0.11819574,-0.02630067,0.00172225,-0.00616604,0.00027963,0.90374288,0.07336940,0.39781628,0.14002836
1759199205550,0.11876591,0.22848057,-0.10473594,-0.02425222,-0.01767560,-0.02186028,0.90381642,0.07323359,0.39771729,0.13990594
1759199205584,-0.06112565,-0.07312632,0.05249671,-0.00564111,-0.00580503,-0.00236013,0.90387365,0.07313797,0.39761890,0.13986594
1759199205606,0.06026776,-0.11592849,-0.09543544,-0.03148758,0.01857305,-0.02249818,0.90384986,0.07279003,0.39782413,0.13961733
1759199205617,0.43177636,-1.10721617,-0.04334594,-0.08369797,0.04124122,-0.04586389,0.90382698,0.07235062,0.39804065,0.13937655
1759199205628,-0.08381568,0.79383018,-0.09265130,-0.17659202,-0.03563341,-0.05808208,0.90404160,0.07137053,0.39784288,0.13905419
1759199205639,0.18660702,-0.00305076,0.08673534,-0.00441821,0.00237262,-0.07837517,0.90410341,0.07134645,0.39785581,0.13862705
1759199205650,-0.01240638,0.26905194,0.29087017,-0.02588859,-0.00893582,0.00082532,0.90413644,0.07120018,0.39780532,0.13863171
1759199205661,-0.18754657,-0.08078442,0.03185141,0.02093850,0.01308846,0.02763153,0.90407179,0.07131639,0.39787797,0.13878507
1759199205672,-0.27901351,0.25652891,-0.25088704,0.01713329,-0.00101210,0.01705233,0.90405275,0.07140891,0.39787250,0.13887715
1759199205683,-0.16147463,0.14938928,0.02590463,-0.01210029,-0.00971985,-0.02315589,0.90410328,0.07133934,0.39781661,0.13874400
1759199205695,-0.12271862,-0.09133260,-0.08851164,0.00875959,0.00015458,-0.00959359,0.90410756,0.07139189,0.39781754,0.13868644
1759199205707,-0.11099945,0.00068579,0.10811751,-0.03198924,-0.00751468,-0.01003873,0.90415066,0.07120476,0.39777358,0.13862771
1759199205718,0.04260850,0.02284858,0.00972181,-0.04828482,0.02323607,-0.02369911,0.90413514,0.07093678,0.39790254,0.13849618
1759199205751,-0.01215525,-0.09860809,0.03558853,0.02879031,-0.00554170,-0.01732070,0.90418171,0.07141182,0.39781110,0.13821039
1759199205763,-0.01201633,0.76866960,-0.14795049,-0.03019213,0.01115260,0.04451301,0.90412850,0.07123972,0.39787467,0.13846412
1759199205784,-0.01036613,-0.23023389,0.04210935,0.04353589,-0.00785642,0.00208722,0.90412519,0.07171208,0.39778943,0.13848676
1759199205796,-0.44164965,0.05871739,0.05093147,0.02421860,-0.01306358,0.00152680,0.90414709,0.07185982,0.39770974,0.13849608
1759199205806,-0.34747554,0.30531746,0.23514521,0.04805539,-0.03976031,0.00152080,0.90421422,0.07210010,0.39751094,0.13850368
1759199205819,0.38459876,-0.31636953,-0.06265388,0.09993804,0.00325761,-0.00256822,0.90415952,0.07270472,0.39753065,0.13848814
1759199205829,0.03965242,-0.01640137,0.29143406,0.04063343,-0.00251897,0.01024953,0.90413954,0.07292211,0.39751717,0.13854298
1759199205840,0.69293198,-0.61796413,0.15397042,0.03629860,-0.00888738,0.01867107,0.90412945,0.07311631,0.39746962,0.13864287
1759199205851,-0.07184419,-0.06455565,-0.09370981,-0.00161907,-0.02465902,0.02667246,0.90416624,0.07310764,0.39733770,0.13878557
1759199205862,-0.03031883,0.07356887,-0.13961806,-0.01985459,0.00424044,-0.01558499,0.90417850,0.07299348,0.39736208,0.13869595
1759199205873,-0.39562235,0.30655806,-0.32105765,0.00938686,-0.03004881,-0.01164849,0.90425677,0.07304511,0.39719681,0.13863189
1759199205885,-0.06856924,0.24940211,-0.22809000,0.02096924,-0.04776249,0.01572315,0.90435627,0.07316883,0.39691501,0.13872465
1759199205918,0.10771343,-0.03173747,0.05129190,0.00728313,-0.01887861,-0.01031268,0.90450927,0.07328900,0.39660351,0.13855449
1759199205930,-0.33084004,0.06811948,-1.13141514,-0.05001138,-0.11676127,0.01704992,0.90481684,0.07299643,0.39592046,0.13865423
1759199205940,0.04157533,-0.08469882,0.45780559,-0.10697461,-0.02841700,0.00147172,0.90492190,0.07245621,0.39577696,0.13866167
1759199205951,0.01552105,0.37628328,0.48361488,-0.02107482,0.01684050,-0.00309807,0.90489223,0.07233608,0.39587295,0.13864401
1759199205962,-0.28316246,0.06241088,0.00102469,-0.02051156,0.02706136,-0.04288547,0.90487167,0.07222019,0.39602584,0.13840170
1759199205974,0.19620759,-0.40736996,-0.07115872,0.00704942,0.02682608,0.01987711,0.90478265,0.07226108,0.39618143,0.13851699
1759199205984,0.18187489,-0.18847833,0.30789133,0.00865290,0.04940370,-0.00255011,0.90466856,0.07230608,0.39643833,0.13850373
1759199205996,0.15103631,0.11182130,0.19653771,-0.01309735,0.01846844,-0.00221044,0.90462930,0.07222946,0.39654637,0.13849080
1759199206008,0.04528368,-0.09122049,-0.22783352,-0.00399144,0.02532444,-0.00828347,0.90457363,0.07220611,0.39669452,0.13844234
1759199206018,0.00713619,-0.10012048,-0.19732936,0.01149780,0.04249541,-0.02477067,0.90449714,0.07226187,0.39690062,0.13832220
1759199206029,0.15127030,0.01703974,0.28693056,-0.01621496,0.03686999,-0.01669871,0.90442498,0.07216701,0.39711631,0.13822452
1759199206040,0.24709481,-0.10705738,0.11118480,0.00615082,0.01218570,0.00098783,0.90439261,0.07220023,0.39718212,0.13822985
1759199206051,0.08758039,0.31187564,-0.01167568,0.01146243,0.04616189,-0.05728682,0.90432477,0.07226270,0.39743370,0.13791764
1759199206062,0.03688271,0.03166248,-0.12793379,0.02418612,0.04058571,-0.00140855,0.90421228,0.07240177,0.39766707,0.13790954
1759199206085,-0.10468313,-0.01229895,0.04815135,-0.00171863,0.01262069,0.00664920,0.90413964,0.07238235,0.39780968,0.13798468
1759199206097,0.31825735,-0.08065867,-0.29033507,0.05677857,0.04211175,-0.00381233,0.90400795,0.07271450,0.39805603,0.13796237
1759199206119,-0.16252287,-0.00142441,0.13024502,0.00735069,0.01342912,0.01358405,0.90391400,0.07279499,0.39820308,0.13811112
1759199206121,21.15712966,-4.63789434,-13.71369064,-0.25743799,0.17022512,-0.03597968,0.90386029,0.07251181,0.39839033,0.13807154
1759199206141,-2.37710557,0.47405241,1.41831804,-0.00294230,0.00315921,-0.03041406,0.90389531,0.07248224,0.39842208,0.13776588
1759199206151,0.21069501,-0.13100567,0.13529216,0.02984855,0.01478663,-0.03357319,0.90387631,0.07263148,0.39849601,0.13759801
1759199206162,0.06235389,0.02690660,-0.02006727,0.04520528,-0.00207614,-0.01349011,0.90387245,0.07289141,0.39848408,0.13752045
1759199206174,-0.00279805,0.09122996,-0.04460689,0.02589346,-0.01147313,-0.02398728,0.90391115,0.07304289,0.39841696,0.13738012
1759199206196,-0.11756722,0.02326412,-0.09304407,0.02062251,-0.00353982,-0.04427857,0.90398450,0.07327180,0.39837767,0.13688863
1759199206198,4.76335978,-29.39028067,-84.36312547,0.67596305,0.26895624,-1.21767428,0.90399218,0.07377877,0.39857938,0.13597537
1759199206218,-0.49208601,2.14328369,6.33407384,-0.01084699,0.03672110,-0.00390022,0.90384490,0.07367030,0.39894659,0.13593637
1759199206230,-0.08201163,-0.30985071,0.01962953,0.02444023,0.07423980,-0.09761161,0.90372511,0.07381572,0.39938832,0.13535558
1759199206264,0.01509392,0.10531112,0.11932386,0.00030457,0.00893052,-0.02059116,0.90370972,0.07382097,0.39954237,0.13500038
1759199206274,-0.34329633,-1.64677579,0.82843338,0.11849923,0.25453013,-0.11389351,0.90319288,0.07440162,0.40078957,0.13444230
1759199206296,0.16610228,0.88759288,-0.41221489,0.08962526,0.01552323,-0.00070872,0.90303792,0.07537854,0.40095877,0.13443458
1759199206308,0.19701400,-0.01781563,-0.10363927,0.11651570,0.00768733,-0.00814394,0.90296548,0.07608346,0.40100528,0.13438531
1759199206320,0.12337638,0.03464222,-0.00795848,-0.01538230,0.01068470,0.01990191,0.90292604,0.07598886,0.40107099,0.13450771
1759199206330,0.04945116,-0.06158688,-0.22498949,-0.02003546,-0.01689742,-0.02337631,0.90299066,0.07588667,0.40098482,0.13438849
1759199206341,-0.09347803,-0.13247494,0.25684578,-0.00204594,0.01127935,0.00131832,0.90296448,0.07587604,0.40104347,0.13439534
1759199206352,-0.00447171,-0.06154267,-0.00913637,-0.04177601,-0.01955707,0.00569968,0.90302629,0.07564836,0.40093688,0.13442640
1759199206363,0.05113608,0.05524489,0.15908966,-0.06369630,-0.01892297,0.01164856,0.90309463,0.07528529,0.40082902,0.13449280
1759199206386,-0.03393924,0.04844368,-0.04084748,-0.05508709,-0.01498958,0.01379423,0.90319915,0.07465729,0.40065814,0.13465006
1759199206397,-0.03442153,0.15808799,-0.61444658,-0.01934100,-0.01051539,0.04986835,0.90319266,0.07455092,0.40060031,0.13492433
1759199206409,-0.11393701,0.19597492,0.36896436,-0.04592196,0.01423483,0.01850036,0.90316141,0.07427998,0.40068429,0.13503348
1759199206431,-0.00735978,-0.14212042,0.09716855,-0.00172575,0.00348777,0.00829915,0.90313230,0.07426100,0.40072266,0.13512477
1759199206441,-0.18594743,0.39395075,0.18273803,-0.03633355,0.02290276,0.03811884,0.90306399,0.07406843,0.40084404,0.13532680
1759199206452,0.36956568,-0.25737963,0.13865862,-0.00411173,0.02237019,0.02916385,0.90299137,0.07404705,0.40096037,0.13547846
1759199206475,-0.00434441,-0.07094594,-0.05112563,0.01227245,0.00539644,0.01595905,0.90292409,0.07418941,0.40102297,0.13566358
1759199206486,-0.08726882,-0.18253764,-0.16594511,0.05003966,-0.01367377,0.00476658,0.90293077,0.07445962,0.40094913,0.13568932
1759199206497,-0.05025436,-0.30015783,-0.26093452,0.01152483,-0.01572236,-0.01836529,0.90297910,0.07452301,0.40086265,0.13558831
1759199206508,-0.09340616,-0.25706155,-0.06345233,0.01648233,0.01354189,-0.04265523,0.90297370,0.07461449,0.40093781,0.13535158
1759199206518,-0.05213989,0.12569729,0.18164134,-0.00117321,0.01548918,-0.04339999,0.90297221,0.07460827,0.40101990,0.13512156
1759199206530,-0.01243822,0.09358039,0.02880961,-0.01781277,0.03418307,-0.05168303,0.90293717,0.07450406,0.40121987,0.13481921
1759199206541,0.06407818,0.08282687,-0.11456746,-0.02494032,0.01584995,-0.00284919,0.90291162,0.07436440,0.40130863,0.13480325
1759199206552,0.16060563,0.21073549,-0.00831538,-0.04894367,-0.00749318,-0.03475431,0.90298184,0.07409031,0.40126667,0.13460863
1759199206565,-0.02600137,0.02851856,-0.10990157,0.01324059,-0.02461216,-0.05378027,0.90309075,0.07417108,0.40111654,0.13428057
1759199206575,0.15997244,0.12273126,-0.06741821,-0.01642560,-0.01431012,-0.03148814,0.90315761,0.07408238,0.40103926,0.13411053
1759199206586,0.26505143,-0.09585942,0.26544420,-0.03928781,-0.04608195,0.00106276,0.90327401,0.07388791,0.40081116,0.13411580
1759199206597,-0.00968325,-0.06613331,0.05576020,-0.04422103,-0.05816598,-0.01885572,0.90346724,0.07362258,0.40046216,0.13400266
1759199206608,0.14336823,-0.14362873,-0.27721964,-0.07749723,-0.01144553,-0.04561050,0.90355880,0.07323122,0.40040436,0.13377233
1759199206619,-0.09852843,0.07107709,0.01751052,-0.08517847,-0.02315975,-0.01928596,0.90367077,0.07275422,0.40027467,0.13366433
1759199206630,0.02929366,-0.08439373,0.09620450,-0.07516601,0.00205666,-0.02729142,0.90372434,0.07231450,0.40028670,0.13350467
1759199206641,0.39253735,-0.05938121,0.45659328,-0.09502762,0.00890995,-0.00835738,0.90374939,0.07182511,0.40033259,0.13346163
1759199206651,0.15452396,0.16400048,0.07927059,-0.05628733,-0.00791822,0.01373678,0.90378089,0.07152678,0.40029062,0.13353444
1759199206663,-0.20907143,0.13751468,-0.10780548,0.02216717,0.00981840,-0.02427392,0.90376614,0.07165646,0.40034806,0.13339243
1759199206674,-0.10774307,0.13902652,-0.06354373,0.02188009,-0.02488620,0.04418651,0.90378145,0.07177790,0.40020994,0.13363767
1759199206685,-0.04254649,0.08054682,0.11983672,-0.02920186,-0.04352485,0.04067894,0.90386861,0.07161437,0.39996620,0.13386547
1759199206697,-0.01167163,0.02605490,-0.06868398,-0.00462305,-0.02383309,0.01404572,0.90392202,0.07158640,0.39982201,0.13395045
1759199206709,-0.25685905,-0.00566524,-0.07591707,0.01639245,-0.02974915,0.01809596,0.90397294,0.07167737,0.39965690,0.13405088
1759199206721,-0.20580819,-0.03550395,-0.01668949,0.05045457,0.01939922,0.03311652,0.90386617,0.07198515,0.39977524,0.13425289
1759199206731,-0.14485009,-0.04243226,0.12204675,0.06143073,0.04210881,0.05927443,0.90370119,0.07229844,0.39998999,0.13455519
1759199206742,-0.06543629,-0.14838770,0.09594903,0.05679105,0.00880575,0.01997498,0.90363777,0.07261363,0.40003886,0.13466605
1759199206753,0.05071053,-0.04798349,-0.09692455,0.03870725,0.01385521,-0.01185799,0.90359512,0.07283427,0.40011784,0.13459846
1759199206763,-0.00540625,-0.01785002,-0.23473773,0.01430879,-0.01728323,0.04780982,0.90359197,0.07290581,0.40003142,0.13483751
1759199206775,-0.17502808,0.11206575,-0.14175539,0.01055335,-0.00755337,0.00080779,0.90360561,0.07296649,0.39998799,0.13484215
1759199206810,0.02756717,-0.00381639,0.07628823,-0.00179859,0.00244889,0.01219871,0.90355785,0.07293538,0.40003036,0.13505319
1759199206820,-0.59017769,-0.38150917,-0.76479666,0.05670959,0.01048475,-0.02128762,0.90352700,0.07322460,0.40008383,0.13494463
1759199206842,0.36003190,0.04413189,0.27786576,-0.01262756,-0.01508937,-0.01407252,0.90363385,0.07308695,0.39991935,0.13479124
1759199206843,38.96370472,-49.30230947,-38.03743894,-0.55744035,-0.65631777,-0.49206999,0.90391980,0.07269675,0.39945993,0.13444679
1759199206864,-2.45028520,3.25101469,2.55136461,-0.07437849,-0.01088216,-0.00879457,0.90404408,0.07193065,0.39934785,0.13435620
1759199206875,-0.19279196,0.02898596,-0.34665789,-0.06325016,-0.01128016,-0.02276712,0.90411836,0.07157961,0.39928524,0.13422984
1759199206886,-0.16120162,0.21819294,-0.12421780,-0.01388367,0.01005093,-0.02240776,0.90411827,0.07149770,0.39934454,0.13409764
1759199206898,0.12779043,-0.04510616,0.12924808,-0.03078361,0.00502411,0.01060028,0.90411004,0.07131146,0.39937494,0.13416177
1759199206908,0.35118466,-0.33596330,0.20369764,-0.06929600,-0.01021845,0.02656518,0.90414014,0.07096498,0.39932384,0.13429460
1759199206920,-0.02817674,0.07349598,0.04943245,-0.02237723,-0.03371800,-0.03445029,0.90425980,0.07084190,0.39913840,0.13410512
1759199206931,-0.10972584,0.06023838,-0.21842449,-0.01588771,-0.04670005,-0.05229173,0.90443292,0.07074896,0.39886520,0.13379921
1759199206942,0.04969824,-0.00849217,-0.25254927,-0.05872054,-0.02118539,-0.04624682,0.90454398,0.07043480,0.39875186,0.13355179
1759199206953,-0.03287610,0.13602400,0.17839081,-0.06753325,-0.03861323,-0.01614428,0.90468321,0.07005324,0.39853369,0.13346058
1759199206965,-0.11949870,-0.07165254,0.19045105,-0.00352462,-0.03055696,-0.05121564,0.90480343,0.07003333,0.39836105,0.13317121
1759199206975,-0.05506286,-0.03095025,-0.03500783,-0.00173684,0.02568712,-0.01681228,0.90475643,0.07002395,0.39849976,0.13308042
1759199206998,-0.07030236,0.05625861,0.14586783,0.00575506,0.00006701,-0.00480807,0.90475902,0.07008840,0.39850051,0.13302657
1759199207009,0.26445050,-0.29568011,-0.27513977,-0.01878174,0.00140280,-0.01373753,0.90477459,0.06998604,0.39850815,0.13295170
1759199207021,-0.32008242,0.40898262,0.32403663,-0.02183826,-0.00411697,-0.01980716,0.90481273,0.06985611,0.39848366,0.13283385
1759199207031,0.03589755,-0.03713278,-0.06768153,0.01243776,0.01544710,-0.00603776,0.90477524,0.06992389,0.39856784,0.13280094
1759199207043,0.10071140,0.02498407,0.31653837,-0.00000113,0.01354722,0.00874396,0.90473426,0.06992388,0.39864439,0.13285035
1759199207053,0.31290136,-0.10745414,0.22870276,-0.00686385,0.00529258,0.02087383,0.90470871,0.06988785,0.39867217,0.13295994
1759199207064,-0.00861632,0.02047959,0.00064939,-0.00221340,0.01664827,0.01913802,0.90465282,0.06987545,0.39876540,0.13306711
1759199207075,-0.29521995,0.16395329,-0.09987581,0.00002815,-0.00230401,0.01243305,0.90464841,0.06987561,0.39875296,0.13313425
1759199207087,-0.25538698,0.21016004,-0.23591355,0.00527881,-0.00322253,0.00423841,0.90465061,0.06990543,0.39873475,0.13315819
1759199207098,-0.05381347,-0.04591911,-0.10439042,0.02110694,-0.00807302,0.00165258,0.90465995,0.07002258,0.39868995,0.13316737
1759199207099,-13.08194699,2.59576814,-8.12450486,0.14980254,-0.10865424,-0.00386721,0.90468390,0.07011995,0.39861932,0.13316485
1759199207109,1.84612457,-0.55740161,1.24460816,0.00590250,-0.00805684,0.01110003,0.90469126,0.07014975,0.39857864,0.13322091
1759199207120,0.02878745,-0.00352139,0.09355802,-0.00476734,-0.00924500,0.00541722,0.90471167,0.07012306,0.39852686,0.13325124
1759199207131,-0.04756875,-0.14351613,-0.06178150,0.00884880,-0.00813941,0.00413760,0.90472438,0.07017217,0.39848169,0.13327421
1759199207143,-0.40394032,0.64530422,0.07637796,0.00955411,-0.01032169,0.00379803,0.90474336,0.07022806,0.39842131,0.13329643
1759199207154,-0.12281420,0.48955744,-0.08909333,0.01068552,0.01467338,0.00803994,0.90469631,0.07028736,0.39850274,0.13334105
1759199207165,-0.11400370,0.02558859,-0.01725100,0.04752820,-0.01935867,-0.01221503,0.90473276,0.07054877,0.39839627,0.13327386
1759199207188,0.26225985,-0.35428043,-0.07989376,0.00423886,0.00273616,-0.04239438,0.90478631,0.07059709,0.39842746,0.13279057
1759199207198,-0.02564932,-0.48444629,-0.23610811,0.01524295,0.01149926,0.05798664,0.90470948,0.07067636,0.39848726,0.13309210
1759199207209,0.28383049,-0.14125679,0.30593578,-0.01104888,-0.02377554,0.00202393,0.90476962,0.07061614,0.39835768,0.13310313
1759199207220,-0.09660449,0.12915144,-0.30169739,-0.01895294,-0.03391073,-0.03074921,0.90488785,0.07050906,0.39816609,0.13292940
1759199207232,-0.01660162,0.02518179,-0.38561975,-0.02203270,-0.04713755,-0.01339811,0.90503311,0.07037796,0.39788562,0.13284968
1759199207244,0.01141482,-0.04075602,0.04234763,-0.03839734,-0.05635063,-0.02050614,0.90520686,0.07016102,0.39756724,0.13273382
1759199207279,0.04402226,0.03611239,0.14124930,-0.02685803,-0.00798246,-0.00338758,0.90531501,0.06968294,0.39742515,0.13267352
1759199207310,0.01499255,-0.03953659,-0.20664117,-0.06832309,-0.02569072,-0.01092432,0.90559087,0.06864102,0.39703337,0.13250692
1759199207321,-0.66274444,-0.00403647,-1.16259327,-0.07684540,-0.07031432,0.00441960,0.90578690,0.06822221,0.39665015,0.13253101
1759199207355,0.14711562,0.02358109,0.46525714,-0.02659864,-0.04103899,-0.01749113,0.90617059,0.06776870,0.39595044,0.13223279
1759199207364,-0.72409837,0.76050424,-1.57753477,-0.02564919,-0.10383925,-0.06181358,0.90644065,0.06764559,0.39545201,0.13193608
1759199207410,0.15919768,-0.14057267,0.39296352,-0.00502086,-0.01961535,-0.00211719,0.90665119,0.06753111,0.39500478,0.13188781
1759199207446,-0.01198869,-0.03323341,-0.06903860,0.01400071,-0.01445739,-0.01300691,0.90677903,0.06778172,0.39474599,0.13165499
1759199207480,0.09815207,-0.09798379,0.14943047,-0.01115066,0.00657997,0.00517550,0.90673086,0.06758882,0.39485983,0.13174452
1759199207495,-0.40973823,0.38001598,-0.74605464,-0.02546890,-0.01615443,0.00858679,0.90678540,0.06740799,0.39474513,0.13180549
1759199207533,0.04658394,-0.00184778,0.19337382,-0.00000300,-0.01814426,0.00023779,0.90693671,0.06740793,0.39439585,0.13181007
1759199207543,-0.37626687,0.06615278,-1.21965420,0.01644565,-0.04230117,-0.00151410,0.90702190,0.06748851,0.39418858,0.13180265
1759199207567,0.11225298,-0.03106564,0.36087556,-0.00454098,-0.01186925,-0.00970716,0.90710372,0.06743470,0.39404793,0.13168762
1759199207589,0.03480709,-0.18284104,0.04356982,-0.00127284,-0.01427173,-0.01580989,0.90719774,0.06742076,0.39389165,0.13151450
1759199207603,0.08606927,-0.07655553,-0.37326392,-0.02975152,-0.07329232,-0.02041765,0.90745833,0.06721102,0.39337494,0.13137055
1759199207613,0.16867134,-0.12439360,0.09309818,-0.03951180,-0.03916473,-0.04140875,0.90759938,0.06699568,0.39316149,0.13114488
1759199207626,-0.10200688,0.15777801,0.17720572,-0.03507467,-0.00859821,-0.02708578,0.90766071,0.06678523,0.39310990,0.13098236
1759199207637,0.03424079,0.06624551,0.10729797,-0.00613057,0.01925028,-0.02319725,0.90763368,0.06674875,0.39322444,0.13084434
1759199207651,0.20553781,0.05286373,0.54322532,0.00099666,0.01842793,-0.01046463,0.90758947,0.06675548,0.39334883,0.13077370
1759199207661,0.11481846,0.12933294,0.09620911,-0.04001577,0.03741554,-0.01505295,0.90753446,0.06655740,0.39353404,0.13069919
1759199207672,-0.15729681,-0.09102839,-0.34955662,0.01112619,0.00734136,-0.02733685,0.90753410,0.06661915,0.39357478,0.13054747
1759199207683,-0.39232755,0.13786408,-0.55449566,0.00277427,-0.00714636,-0.02054992,0.90756686,0.06663469,0.39353476,0.13043239
1759199207694,0.01293263,0.00935876,0.01492067,-0.00152487,-0.01534142,-0.01965777,0.90762102,0.06662607,0.39344809,0.13032132
1759199207706,0.08034346,-0.05768573,-0.02472658,-0.02835210,-0.01708003,-0.01036851,0.90768191,0.06646872,0.39335329,0.13026378
1759199207718,0.14120406,-0.00804711,0.11655856,-0.05488597,-0.01138632,-0.00688506,0.90774249,0.06613391,0.39328383,0.13022178
1759199207727,0.24833058,-0.16245994,-0.03709422,-0.07446873,-0.05252402,0.00858765,0.90787038,0.06578019,0.39303435,0.13026257
1759199207737,0.08350587,0.21161719,0.01332138,-0.06841982,-0.03737776,-0.02886509,0.90799163,0.06545177,0.39285493,0.13012402
1759199207748,0.08100860,0.34131917,0.48489945,-0.01784059,-0.05147916,0.00196251,0.90811495,0.06535722,0.39258209,0.13013442
1759199207758,-0.09331728,-0.15092297,-0.00073832,-0.03414764,-0.00630283,-0.02585601,0.90816336,0.06517111,0.39254774,0.12999350
1759199207769,-0.14724871,0.23565548,0.19104886,-0.09044075,-0.00389031,-0.03115409,0.90823393,0.06466464,0.39252596,0.12981904
1759199207782,-0.14386716,-0.28501427,-0.27330622,-0.01881222,-0.00695642,-0.00958254,0.90826821,0.06455177,0.39248422,0.12976155
1759199207791,-0.05897749,-0.17560744,-0.28761163,0.03326464,-0.02074583,-0.00151511,0.90830126,0.06471310,0.39238360,0.12975420
1759199207803,-0.07154969,0.10172651,0.12347098,0.02668976,-0.04000566,-0.00509193,0.90839624,0.06487057,0.39214757,0.12972416
1759199207815,0.09409249,-0.01167610,0.07492165,0.01568542,-0.01342212,0.00720815,0.90841719,0.06496076,0.39207039,0.12976560
1759199207826,0.03850018,-0.10583185,0.12687300,0.01569940,-0.01656573,0.00500971,0.90844719,0.06504947,0.39197679,0.12979391
1759199207837,-0.07481253,-0.01854663,0.06745936,0.00560814,-0.01838946,-0.01645160,0.90850105,0.06508003,0.39187657,0.12970425
1759199207848,0.26167183,-0.14510611,0.09788935,0.02396695,-0.00368715,-0.01215168,0.90851004,0.06521425,0.39185592,0.12963620
1759199207878,-0.01634011,0.04334406,0.05076063,0.00672948,0.00015315,-0.00619087,0.90851506,0.06531552,0.39185823,0.12954302
1759199207900,0.00729458,-0.06795381,-0.05755535,0.01768427,0.00702641,-0.00424520,0.90847530,0.06550563,0.39193376,0.12949739
1759199207912,-0.75805236,0.32028319,-0.76025473,0.01588106,0.02914624,-0.01407540,0.90840265,0.06560409,0.39211447,0.12941012
1759199207922,0.14477024,0.02615223,0.38709299,-0.02776694,0.03318767,-0.00324079,0.90834273,0.06546387,0.39228207,0.12939376
1759199207935,0.05100193,-0.04839182,0.12469697,-0.00841582,0.02321108,-0.01318511,0.90829333,0.06540875,0.39243410,0.12930739
1759199207967,0.12379739,-0.00025403,0.15954955,0.00182445,0.00613779,-0.00198430,0.90825381,0.06543757,0.39253108,0.12927604
1759199207978,-0.09024769,0.05788399,0.10546327,0.01443469,0.03478862,-0.01272633,0.90817033,0.06552202,0.39273459,0.12920159
1759199208014,0.02578654,-0.02237575,-0.12206274,0.00307811,0.00056627,-0.00507370,0.90817480,0.06557604,0.39274453,0.12911255
1759199208028,-0.14825408,-0.45124417,-0.87644189,-0.06871124,-0.03093913,-0.04300188,0.90835308,0.06507444,0.39251867,0.12879863
1759199208041,0.28284444,0.04310054,0.59692237,-0.02068602,-0.02514398,-0.03405614,0.90845952,0.06494619,0.39236278,0.12858749
1759199208064,0.16741203,0.17176362,0.50700613,-0.00164317,-0.01439636,-0.00609805,0.90854228,0.06492729,0.39219722,0.12851736
1759199208075,0.22379090,-0.29318341,-0.16636600,-0.01616815,-0.01079771,-0.02557217,0.90859698,0.06483352,0.39213459,0.12836904
1759199208089,-0.51017447,0.20760273,-0.46626500,-0.01641835,-0.02261117,-0.02044926,0.90869229,0.06472023,0.39197858,0.12822794
1759199208105,-0.00860504,0.09784900,0.03903085,-0.01738025,-0.01293576,-0.00772113,0.90875751,0.06457685,0.39187186,0.12816424
1759199208117,-0.17550038,-0.01454935,-0.20170503,-0.04057839,-0.00461692,-0.00521615,0.90879085,0.06433540,0.39184439,0.12813321
1759199208131,-0.02333960,0.03233633,-0.00762178,0.00505590,-0.00088385,-0.01326778,0.90880420,0.06437105,0.39183815,0.12803967
1759199208144,-0.11248699,0.15627927,0.04843592,0.01421774,-0.02412747,-0.01302848,0.90887269,0.06445778,0.39169098,0.12796019
1759199208145,23.01890876,6.21184603,5.63630569,0.15030849,-0.05595962,0.05161002,0.90887794,0.06458554,0.39164341,0.12800406
1759199208159,-2.26276745,-0.65091643,-0.20197297,0.00016610,-0.00717672,0.01684442,0.90888292,0.06458671,0.39159282,0.12812282
1759199208172,-0.12946725,-0.04228956,-0.11455484,0.01240537,-0.00264291,0.00935834,0.90887639,0.06466300,0.39157656,0.12818037
1759199208185,-0.32916949,-0.08027037,-0.22621013,0.01395607,0.00553210,0.01286174,0.90884342,0.06475162,0.39161169,0.12826204
1759199208196,-0.08336470,-0.01595005,0.05804229,0.01596297,0.00665105,0.00077501,0.90881977,0.06484341,0.39164993,0.12826650
1759199208208,-0.06771343,-0.08351857,-0.00714042,0.01900342,0.01812753,-0.00405383,0.90876904,0.06495553,0.39175689,0.12824258
1759199208221,-0.01447052,0.01815675,0.06760556,0.00788448,0.02635003,-0.00966242,0.90869774,0.06500875,0.39193475,0.12817736
1759199208233,-0.00998010,0.09060274,0.00589838,0.01464696,0.03672761,-0.00634986,0.90860174,0.06509663,0.39215512,0.12813926
1759199208235,-4.18428286,-0.24099409,0.31297038,0.29399549,0.01531662,-0.03078556,0.90858070,0.06536123,0.39216890,0.12811155
1759199208250,1.12736667,-0.28539587,0.19872630,0.03909101,0.00063741,-0.00341634,0.90856111,0.06565441,0.39217368,0.12808593
1759199208262,0.04534291,-0.08379978,-0.03333654,0.02528017,0.02543153,-0.03950644,0.90851801,0.06580483,0.39232500,0.12785087
1759199208274,-0.10323712,0.00857581,0.03368184,0.02258058,0.00857367,-0.00776012,0.90849295,0.06593805,0.39237558,0.12780508
1759199208285,-0.72230265,0.48409796,-0.22532641,0.02628203,0.02508586,0.02567369,0.90839887,0.06608918,0.39251983,0.12795271
1759199208295,-0.09060745,-0.04463559,0.09876482,0.05523000,0.00354610,0.00961318,0.90836396,0.06636809,0.39253773,0.12800125
1759199208305,-0.03340538,-0.02081094,-0.12878571,0.04253333,0.00187682,-0.00292641,0.90834693,0.06657437,0.39254684,0.12798706
1759199208315,-0.02654603,-0.04992817,-0.15396412,0.04344936,0.01653827,-0.00901933,0.90830250,0.06678728,0.39262787,0.12794286
1759199208327,0.10631029,0.09543243,0.05009945,0.02469809,-0.00748698,0.01156369,0.90830119,0.06694040,0.39258146,0.12801456
1759199208337,-0.13173032,-0.07018964,-0.10369743,0.05749673,-0.01527463,-0.00956574,0.90832007,0.06723364,0.39250355,0.12796577
1759199208350,0.51774418,0.37804772,0.38966291,0.03191035,0.00214791,-0.04178397,0.90833624,0.06743308,0.39251698,0.12770462
1759199208360,0.21028519,0.04678965,0.06538630,0.05963747,0.01040115,-0.00341231,0.90829398,0.06773126,0.39256898,0.12768756
1759199208371,0.10737062,0.07242987,0.25635099,-0.00259570,-0.01871085,0.03107542,0.90831489,0.06771738,0.39246888,0.12785382
1759199208382,-0.54878138,-0.37602479,-0.52122976,0.01351279,-0.02158266,0.03420254,0.90833465,0.06779372,0.39234694,0.12804706
1759199208392,-0.30842530,-0.08064263,-0.29563370,0.02085104,-0.02526797,-0.00841272,0.90838894,0.06790111,0.39221681,0.12800373
1759199208404,0.03837836,0.05615051,-0.03524002,-0.02369952,-0.01850487,0.00299452,0.90844309,0.06776365,0.39210948,0.12802110
1759199208416,0.06685540,-0.06146015,0.02067822,-0.01113313,0.00137934,-0.00460720,0.90844839,0.06769685,0.39211776,0.12799346
1759199208427,-0.33236335,-0.16551736,0.18364557,-0.03371400,-0.01292122,-0.02930110,0.90851433,0.06751480,0.39204798,0.12783523
1759199208437,0.35855505,0.17200355,-0.64370809,-0.06299125,0.03929979,0.02425164,0.90843579,0.06719984,0.39224448,0.12795649
1759199208448,0.96273816,-0.73419622,0.88222263,-0.06837203,0.02078547,-0.01955045,0.90842930,0.06682379,0.39235880,0.12784896
1759199208459,0.39084446,-0.07231573,0.36850309,-0.05554314,-0.01071419,-0.02140501,0.90849490,0.06651275,0.39229880,0.12772910
1759199208471,-0.00842849,0.03562474,-0.09255008,-0.01391655,0.01764744,-0.00100853,0.90845710,0.06643134,0.39240204,0.12772320
1759199208481,-0.88084106,0.44010238,-0.38658411,-0.01745926,0.01107476,0.01578989,0.90842645,0.06633793,0.39246129,0.12780767
1759199208493,-0.14681341,0.16689680,0.06344294,0.02038376,-0.01791762,0.00804625,0.90845588,0.06645514,0.39235826,0.12785394
1759199208523,0.00612202,0.03136344,-0.02119721,-0.00004143,-0.00469644,0.00036614,0.90848616,0.06645451,0.39228641,0.12785954
1759199208558,-0.00891915,-0.01422402,-0.00312676,0.03198523,-0.01144006,0.01162415,0.90850282,0.06701425,0.39208621,0.12806296
1759199208579,0.41431495,0.08962779,0.43350763,0.11594856,-0.01706359,0.00746968,0.90847869,0.06822011,0.39190875,0.12814065
1759199208613,-0.26946003,-0.02537140,-0.25382205,0.00751271,0.00824509,-0.00117677,0.90841262,0.06834557,0.39204644,0.12812100
1759199208625,-1.00219480,-0.12769096,-0.54796839,-0.00441500,0.05875353,0.01652961,0.90824839,0.06831908,0.39239896,0.12822017
1759199208658,0.39501337,0.00529672,0.16255930,-0.01089926,0.01342710,0.00286959,0.90815839,0.06813707,0.39262319,0.12826810
1759199208690,0.17201270,-0.05589748,0.11105943,-0.00326817,-0.00071952,0.00223215,0.90816225,0.06808478,0.39261168,0.12830381
1759199208701,-1.88668975,0.37720720,-0.96725739,-0.05576318,0.00281609,0.01238569,0.90816880,0.06778087,0.39262703,0.12837131
1759199208724,0.46672435,-0.16147811,0.07309072,-0.02464727,-0.00548477,-0.00809551,0.90823194,0.06749003,0.39256231,0.12827579
1759199208746,0.11460736,-0.00576224,0.06813842,-0.01976172,-0.00761096,-0.01208861,0.90830076,0.06727957,0.39248125,0.12814704
1759199208757,0.28685201,0.11427748,0.40830419,-0.00002108,0.01512894,-0.00715388,0.90827008,0.06727945,0.39256522,0.12810734
1759199208780,-0.11969437,0.03677121,-0.01709951,0.00093522,0.01515815,0.00512593,0.90818450,0.06729034,0.39274181,0.12816705
1759199208791,-0.38634457,0.03624207,-0.16486203,0.02597999,0.06065206,0.01085144,0.90802114,0.06743323,0.39307540,0.12822674
1759199208802,-0.07488438,0.10088750,-0.06321383,0.01572462,0.02024763,0.00765537,0.90796276,0.06751658,0.39318271,0.12826731
1759199208813,0.09901561,-0.02546974,-0.13489168,0.00506213,0.01124685,0.00200309,0.90793262,0.06754416,0.39324400,0.12827823
1759199208824,0.02325255,-0.21661402,-0.09680497,0.00693545,0.00366062,-0.01060944,0.90792924,0.06758300,0.39326450,0.12821881
1759199208836,0.11642042,0.01272826,-0.01899325,-0.02184920,-0.01266648,-0.01457332,0.90798287,0.06745518,0.39319040,0.12813356
1759199208846,0.65596704,-0.52135083,0.42993303,-0.01971805,-0.01111889,-0.01301044,0.90802506,0.06735265,0.39313259,0.12806591
1759199208869,-0.04352272,0.15177006,0.06520956,-0.01964838,-0.00510091,-0.00193327,0.90806973,0.06712964,0.39307469,0.12804396
1759199208880,0.42552699,-0.64487595,0.05258091,-0.06451804,-0.00486322,-0.00236041,0.90811038,0.06676511,0.39304721,0.12803063
1759199208891,-0.86855607,0.95191914,-0.51041795,-0.00550237,-0.00602109,-0.00651785,0.90813160,0.06673540,0.39301470,0.12799543
1759199208924,0.05411000,-0.00350463,0.08315898,0.00008103,-0.00088036,0.00241428,0.90813218,0.06673675,0.39300000,0.12803575
1759199208935,-0.38057656,-0.27138151,-0.85757152,-0.03287352,-0.06697552,-0.00467463,0.90830839,0.06655595,0.39263163,0.12801004
1759199208956,0.34614739,0.32116955,0.50292311,-0.01544576,-0.00347381,-0.00359912,0.90834182,0.06639145,0.39259464,0.12797171
1759199208968,0.41544828,0.28983908,0.27231670,-0.04030658,-0.02616080,-0.01446802,0.90843626,0.06615768,0.39244290,0.12788779
1759199208979,-0.95158595,-0.59715327,-0.41932701,-0.02790743,0.00057777,-0.00718301,0.90845175,0.06600279,0.39244611,0.12784793
1759199208991,-0.21321921,0.09921896,0.02407246,-0.00385628,0.02454080,0.01280991,0.90838142,0.06598042,0.39258845,0.12792223
