UnixTime(ms),Ax,Ay,Az,Gx,Gy,Gz,QuatW,QuatX,QuatY,QuatZ
1761620191556,0.00000000,0.00000000,0.00000000,0.00000000,0.00000000,0.00000000,0.99917697,-0.01142382,0.00272974,0.03882552
1761620191566,-0.56373482,1.10602165,-2.73159310,0.05601008,-0.07315593,0.06893183,0.99916743,-0.01113817,0.00235665,0.03917707
1761620191578,0.34614342,-0.66815069,1.55257697,0.00282369,-0.04400096,0.02898551,0.99916178,-0.01112236,0.00211024,0.03933939
1761620191589,0.06193861,-0.19173952,0.26893719,0.00182424,-0.03594938,0.03181017,0.99915509,-0.01111187,0.00190353,0.03952230
1761620191600,-0.06569104,-0.17415344,0.13858385,-0.01622804,-0.04958465,0.03931982,0.99914591,-0.01120193,0.00162834,0.03974052
1761620191612,0.02536656,-0.09559744,0.21080486,-0.02855737,-0.03530915,0.00927715,0.99914231,-0.01136328,0.00142884,0.03979294
1761620191623,0.08174762,-0.07204816,0.12782238,-0.02613062,-0.04057265,0.03444564,0.99913299,-0.01151353,0.00119555,0.03999100
1761620191634,-0.06224316,0.16172821,-0.11320358,-0.00656039,-0.04164377,0.03861227,0.99912469,-0.01154798,0.00097692,0.04019371
1761620191645,-0.17433500,-0.00143243,-0.19813178,0.05422003,-0.03237474,0.03303856,0.99912079,-0.01123892,0.00079238,0.04038203
1761620191656,-0.10341486,0.18601013,0.00321022,0.05387511,-0.01537589,0.02029463,0.99911959,-0.01093453,0.00070551,0.04049670
1761620191668,0.03734334,0.23395021,0.05974935,0.07119511,-0.02481241,0.01943207,0.99911954,-0.01053227,0.00056532,0.04060649
1761620191679,0.14190471,0.20066212,0.21659139,0.03180166,-0.02074558,0.01831111,0.99911727,-0.01035259,0.00044811,0.04070995
1761620191690,0.03734334,-0.09954335,0.14190471,0.04713106,-0.01694249,0.01294014,0.99911705,-0.01008630,0.00035238,0.04078306
1761620191701,-0.09284632,0.02194193,-0.09937247,0.03515366,-0.01563558,0.00285028,0.99911840,-0.00988944,0.00026482,0.04079902
1761620191713,-0.01253669,-0.10827929,0.08355573,0.03021670,-0.00324397,-0.00453881,0.99912112,-0.00971872,0.00024650,0.04077338
1761620191724,0.02025126,0.12929207,-0.07669913,0.04034469,-0.00340066,-0.01543585,0.99912682,-0.00949279,0.00022745,0.04068694
1761620191735,-0.41591149,0.10729022,-0.28247572,0.06166585,-0.01353500,0.00150554,0.99912974,-0.00914438,0.00015098,0.04069544
1761620191746,-0.32981620,0.15746593,-0.19371136,0.05466478,-0.00898366,-0.03014331,0.99913928,-0.00884099,0.00010112,0.04052815
1761620191758,-0.09426671,0.06605524,-0.10099524,0.04987637,-0.00985323,-0.03201180,0.99914906,-0.00855919,0.00004545,0.04034728
1761620191769,0.40065204,-0.09034172,0.32038708,0.04221410,0.00674810,-0.00989953,0.99915329,-0.00832279,0.00008324,0.04029184
1761620191780,0.18544971,-0.24173407,0.17538035,0.01823259,0.00150858,-0.00832005,0.99915603,-0.00821977,0.00009176,0.04024483
1761620191791,-0.11394584,-0.39641625,0.16603831,-0.01567109,0.00305541,0.00221723,0.99915482,-0.00830675,0.00010872,0.04025714
1761620191803,-0.02327334,-0.14833061,0.23675592,-0.01480604,0.01996242,0.00837709,0.99915212,-0.00839262,0.00022450,0.04030573
1761620191814,-0.16292643,0.18994100,-0.01777028,-0.02297661,0.02842034,0.02330646,0.99914565,-0.00852244,0.00038508,0.04043741
1761620191825,-0.14264636,0.26599725,0.10349995,0.01786209,0.06483481,0.02038900,0.99914170,-0.00842331,0.00074491,0.04055057
1761620191836,-0.52358856,0.24227320,0.13451866,0.06460502,0.06668272,0.01339323,0.99914129,-0.00806152,0.00111833,0.04062557
1761620191848,-0.14825135,0.17901825,0.12924477,0.05640041,0.09345156,0.01901316,0.99913873,-0.00774568,0.00164166,0.04073204
1761620191859,-0.09883423,-0.11807840,0.03041053,0.05920491,0.09099291,0.02717390,0.99913407,-0.00741413,0.00215122,0.04088422
1761620191870,0.31707319,-0.08988331,0.03600591,0.02337560,0.09853022,0.03320770,0.99912614,-0.00728439,0.00269806,0.04106852
1761620191881,0.11825392,-0.15990090,0.10913676,0.01843965,0.10458240,0.02752738,0.99911871,-0.00718021,0.00328895,0.04122405
1761620191892,0.06442054,-0.05809124,0.13550180,0.01623279,0.11566494,0.03871836,0.99910805,-0.00708931,0.00393668,0.04144087
1761620191903,-0.03832107,-0.14082222,0.06178366,0.03685980,0.10940407,0.00855891,0.99910493,-0.00688473,0.00454387,0.04148837
1761620191915,0.05594773,0.00685627,0.05147326,0.01691704,0.10743604,0.00667705,0.99910108,-0.00678915,0.00515088,0.04152610
1761620191926,0.09784890,-0.00265616,0.15658563,0.00285299,0.10868992,0.02508190,0.99909210,-0.00677332,0.00575411,0.04166530
1761620191937,-0.11164227,-0.21652014,-0.38239191,0.02065055,0.10198784,-0.00035502,0.99908950,-0.00665768,0.00632525,0.04166332
1761620191948,-0.17761074,0.00854714,-0.17146002,0.02371027,0.09776231,-0.00986060,0.99908907,-0.00652608,0.00686783,0.04160859
1761620191959,0.07353223,0.01221506,0.03096094,0.01172446,0.10117751,-0.00743335,0.99908719,-0.00646101,0.00742936,0.04156733
1761620191971,0.20198347,0.21546118,0.27609202,0.03690828,0.09383489,-0.01742893,0.99908852,-0.00625433,0.00795484,0.04146973
1761620191982,0.04561580,0.13533281,0.06082107,0.06722694,0.09743221,-0.01650692,0.99909014,-0.00587786,0.00850046,0.04137729
1761620191993,-0.03310333,0.06918861,-0.07678036,0.07225299,0.10089836,-0.00724366,0.99908916,-0.00547685,0.00906044,0.04133709
1761620192004,0.10180267,0.04837393,-0.00733410,0.07092955,0.10161271,0.01277269,0.99908292,-0.00507610,0.00963455,0.04140926
1761620192015,0.04729763,0.00971329,0.01520648,0.07478120,0.09538350,0.00687248,0.99907812,-0.00466106,0.01016393,0.04144740
1761620192026,0.05047875,0.05450962,-0.03041053,0.05477746,0.09939593,0.00420239,0.99907271,-0.00435431,0.01072055,0.04147093
1761620192037,-0.60823041,-0.03540823,-0.30214559,0.04768080,0.08810228,-0.00460864,0.99906952,-0.00408968,0.01120952,0.04144535
1761620192049,-0.08523853,-0.11710907,-0.01986274,0.03001421,0.08988592,-0.01046016,0.99906685,-0.00392160,0.01171288,0.04138678
1761620192060,-0.09123160,-0.16437725,0.02280790,0.02442073,0.06818891,-0.03463079,0.99907084,-0.00378485,0.01209474,0.04119285
1761620192071,0.70052579,-0.09917986,0.28341699,0.01225609,0.07549368,-0.01840081,0.99907014,-0.00371682,0.01251373,0.04109072
1761620192082,0.27506464,-0.04526478,0.19807942,0.03495838,0.05384634,-0.01418560,0.99907029,-0.00352106,0.01281527,0.04101128
1761620192093,0.08362897,0.06723579,0.04561580,0.02621306,0.04760393,0.00747000,0.99906562,-0.00337426,0.01308185,0.04105311
1761620192104,-0.05618581,0.12362563,0.07145895,0.01755111,0.04586891,-0.00542292,0.99906382,-0.00327686,0.01333642,0.04102302
1761620192116,0.00626704,0.05162599,0.01280804,0.02420506,0.05347394,0.00074922,0.99906004,-0.00314131,0.01363588,0.04102721
1761620192127,0.05464798,-0.02556102,0.04981335,0.02178520,0.04930309,-0.00512898,0.99905777,-0.00301822,0.01391444,0.04099823
1761620192138,-0.55392616,-0.17754601,-0.24435830,0.02993188,0.03340583,-0.00360190,0.99905650,-0.00285509,0.01409650,0.04097860
1761620192149,-0.13262644,-0.16394034,-0.14346545,0.01980435,0.03712207,0.00866650,0.99905178,-0.00274221,0.01430810,0.04102800
1761620192160,-0.10384361,-0.06942316,0.03747220,0.00405516,0.04981316,0.01294620,0.99904495,-0.00271990,0.01458207,0.04109921
1761620192172,0.48145403,0.04031339,0.18273966,-0.00363536,0.05053115,0.01309507,0.99903771,-0.00274026,0.01486504,0.04117254
1761620192183,0.13856402,0.02926452,0.02474111,0.02384355,0.06475420,0.02202934,0.99902760,-0.00260793,0.01522443,0.04129480
1761620192194,-0.06009402,0.14155192,-0.12970789,0.04163276,0.04784568,0.01839084,0.99901966,-0.00237062,0.01549715,0.04139963
1761620192205,-0.01640583,0.13262075,-0.03731798,0.03940260,0.07389363,0.01912341,0.99900950,-0.00215588,0.01589987,0.04150385
1761620192216,0.01583301,-0.13144840,-0.09946197,0.04027573,0.07920488,0.02633085,0.99899666,-0.00193034,0.01634342,0.04165130
1761620192227,0.10055394,-0.05103069,0.01478938,0.00639108,0.07505328,0.01439846,0.99898650,-0.00189487,0.01675996,0.04173122
1761620192238,-0.27451670,0.09060768,-0.06027313,-0.00826053,0.06983879,0.00037045,0.99897968,-0.00194112,0.01715106,0.04173329
1761620192250,-0.06842370,-0.11154488,0.06082107,-0.02820976,0.05879042,-0.01429312,0.99897700,-0.00209910,0.01748029,0.04165325
1761620192261,0.14091374,-0.00121805,0.04588853,-0.04065298,0.06205854,0.00205640,0.99896994,-0.00232472,0.01782471,0.04166466
1761620192272,0.38285338,-0.12071536,0.03014382,0.00782245,0.04774705,-0.00188761,0.99896563,-0.00228053,0.01809448,0.04165400
1761620192283,0.11403917,0.08528771,-0.07839757,0.01730871,0.04579809,-0.00423590,0.99896222,-0.00218533,0.01834637,0.04163070
1761620192294,0.05771090,0.08615814,-0.05211260,0.02242708,0.03796601,0.00471377,0.99895746,-0.00205974,0.01855898,0.04165710
1761620192305,0.05048430,0.07724577,-0.10165969,0.00916741,0.03402827,-0.00664931,0.99895558,-0.00200886,0.01874784,0.04162019
1761620192316,0.09821780,-0.11213402,-0.02089012,0.00643977,0.03482610,0.00440439,0.99895094,-0.00197279,0.01894286,0.04164486
1761620192328,-0.00760263,-0.14115358,-0.00760263,-0.01048718,0.02305411,-0.01118344,0.99895098,-0.00203152,0.01907197,0.04158223
1761620192339,-0.61180966,-0.08342264,0.32652367,-0.01710842,0.01767028,-0.00558679,0.99895020,-0.00212562,0.01916915,0.04155150
1761620192350,0.13406180,0.00509082,0.03277795,-0.01740602,0.00137354,0.01369166,0.99894655,-0.00222570,0.01917705,0.04163023
1761620192361,0.07112519,0.11610002,-0.09004072,0.00860353,0.01238033,0.01868333,0.99894111,-0.00217881,0.01924452,0.04173205
1761620192372,0.68786896,0.14465221,-0.32336277,0.00175025,-0.00739131,0.01939585,0.99893745,-0.00216919,0.01920387,0.04183873
1761620192383,0.08752488,0.13543487,-0.14396242,0.01585861,-0.00145863,0.02927646,0.99893080,-0.00207879,0.01919556,0.04200561
1761620192394,0.09056933,-0.02349034,-0.09513237,0.03708780,-0.00839331,0.01548457,0.99892850,-0.00187481,0.01914939,0.04209077
1761620192406,-0.01336950,-0.16459543,-0.06480687,0.00900797,-0.00587973,-0.00179646,0.99892964,-0.00182482,0.01911676,0.04208080
1761620192417,0.08339781,-0.05031619,-0.07992704,0.00194973,-0.01613504,-0.01937794,0.99893606,-0.00181370,0.01902479,0.04197035
1761620192428,-0.06630122,0.09334032,-0.12689911,0.00030595,-0.03338976,-0.05388875,0.99895210,-0.00181201,0.01883948,0.04167126
1761620192440,-0.17215691,-0.04642196,-0.15537566,0.01662068,-0.03146909,-0.01065808,0.99895864,-0.00170979,0.01864594,0.04160572
1761620192450,0.12715205,0.13163202,-0.14555883,0.00965556,-0.04631551,-0.01408903,0.99896581,-0.00166248,0.01841900,0.04153668
1761620192461,0.10263555,-0.06592484,0.08471506,0.01163072,-0.03341054,-0.00426680,0.99897034,-0.00159734,0.01823190,0.04151279
1761620192473,0.33451586,-0.12446342,0.15965530,-0.01527603,-0.03210120,0.00467161,0.99897237,-0.00168289,0.01805213,0.04153895
1761620192484,0.02830023,-0.18463937,-0.03877028,-0.01997743,-0.04413989,0.00859178,0.99897459,-0.00179376,0.01780716,0.04158663
1761620192495,0.07458800,-0.17353112,-0.06041011,-0.03057485,-0.03980715,-0.00227720,0.99897875,-0.00196498,0.01758424,0.04157388
1761620192506,-0.09848066,-0.00813140,0.00677271,-0.03929933,-0.05526021,-0.01635907,0.99898742,-0.00218309,0.01727754,0.04148309
1761620192517,0.04985841,0.10767489,-0.06546860,0.00080064,-0.04642861,-0.00478420,0.99899306,-0.00217857,0.01701522,0.04145606
1761620192528,0.03969516,0.15776358,0.03653301,0.03049849,-0.03911022,0.00391025,0.99899621,-0.00200778,0.01679620,0.04147795
1761620192539,-0.21465329,-0.25646384,-0.21790143,0.03538236,-0.04524569,0.01354094,0.99899766,-0.00181141,0.01654509,0.04155311
1761620192551,0.01935059,-0.00665176,0.13932422,0.01003430,-0.03314785,0.01616404,0.99899705,-0.00175572,0.01636112,0.04164282
1761620192562,-0.10062305,-0.12139470,0.03870117,-0.01137105,-0.03779242,0.00546884,0.99899909,-0.00181883,0.01615137,0.04167317
1761620192573,0.25146908,0.23131124,0.27520163,-0.03491229,-0.03451217,0.01294137,0.99899879,-0.00201434,0.01595810,0.04174564
1761620192584,0.07602633,-0.17135623,0.08362897,-0.04405589,-0.02613556,0.01279042,0.99899759,-0.00226105,0.01581174,0.04181727
1761620192597,-0.15887608,-0.01564621,-0.05222862,-0.03844555,-0.02871338,-0.00178664,0.99900048,-0.00251671,0.01562080,0.04180539
1761620192606,0.71160110,-0.25570241,0.43994881,-0.05370603,-0.02761013,0.02528102,0.99899713,-0.00275033,0.01550069,0.04191536
1761620192617,-0.16525503,0.26049866,-0.20422946,-0.00661256,-0.02875790,0.01093001,0.99899694,-0.00278769,0.01533821,0.04197711
1761620192629,0.00835671,0.12153999,0.07445695,0.00104424,-0.03930139,-0.00137307,0.99900060,-0.00278190,0.01512009,0.04196949
1761620192641,-0.05095829,0.11304797,-0.10393013,-0.01152616,-0.02749208,-0.01296232,0.99900657,-0.00285624,0.01494277,0.04188589
1761620192652,0.15202065,-0.05571535,0.12568562,-0.01886743,-0.02091660,-0.02674906,0.99901400,-0.00295813,0.01482982,0.04174144
1761620192662,0.16879138,-0.12574096,0.11412656,-0.04307760,-0.02524337,0.01004512,0.99901316,-0.00316059,0.01471117,0.04178865
1761620192673,-0.19466211,-0.06970592,0.00222471,-0.02900072,-0.02883708,-0.01391290,0.99901830,-0.00332444,0.01454824,0.04171004
1761620192695,-0.20978673,0.07946593,-0.08457033,-0.01144968,-0.00952591,-0.00321257,0.99902087,-0.00345039,0.01444346,0.04167471
1761620192704,2.35011857,-0.80469131,1.42890799,-0.05693769,-0.09491884,0.01383933,0.99902341,-0.00370376,0.01402107,0.04173629
1761620192715,-1.12783783,0.65869122,-0.50168837,-0.00665164,-0.05181348,-0.00325566,0.99902806,-0.00374101,0.01373091,0.04171806
1761620192727,-0.09478721,0.12532503,-0.16009866,0.02098377,-0.05155283,-0.00386946,0.99903361,-0.00361721,0.01342675,0.04169523
1761620192738,-0.15489359,0.22537145,0.22789864,0.00080789,-0.05070732,-0.00250549,0.99903791,-0.00361277,0.01314786,0.04168145
1761620192749,-0.17575136,0.08009564,0.04196034,0.01117970,-0.06253755,0.00397539,0.99904178,-0.00354960,0.01279452,0.04170391
1761620192761,-0.06805920,0.03436588,-0.03860836,0.00753495,-0.05711154,-0.01819860,0.99905045,-0.00350627,0.01246613,0.04159927
1761620192772,0.17755948,-0.16517986,0.05422903,-0.00293784,-0.04516249,-0.00960433,0.99905580,-0.00352287,0.01221097,0.04154500
1761620192783,0.14971905,-0.17683376,-0.13351653,-0.00934644,-0.04315048,0.02483905,0.99905269,-0.00357615,0.01196501,0.04168659
1761620192795,-0.03527963,-0.03760924,0.05254274,0.00430801,-0.05676691,-0.01077196,0.99905910,-0.00355181,0.01164427,0.04162572
1761620192806,0.07780925,0.10523345,0.04635588,0.01313947,-0.05526202,-0.00049893,0.99906304,-0.00347823,0.01133481,0.04162293
1761620192817,0.01997202,0.20025030,0.06608438,0.02458166,-0.06441526,0.00271765,0.99906694,-0.00333934,0.01097086,0.04163829
1761620192829,0.09709269,-0.04221548,-0.06721802,0.03218136,-0.06426739,0.00932626,0.99906925,-0.00315752,0.01060775,0.04169098
1761620192840,-0.37343344,0.01788396,-0.04481201,0.02163752,-0.07760739,0.00445509,0.99907314,-0.00303526,0.01016927,0.04171615
1761620192855,-0.19088585,-0.04144810,-0.14700652,0.01630221,-0.06832238,0.00485890,0.99907699,-0.00291544,0.00966710,0.04175186
1761620192861,1.27748511,0.05692793,1.32040861,-0.00093784,-0.12137740,0.00624932,0.99908004,-0.00291868,0.00924835,0.04177342
1761620192872,-0.21173958,-0.14357151,-0.38699827,-0.00343077,-0.10278693,-0.01245799,0.99908757,-0.00293669,0.00870872,0.04170802
1761620192883,0.06132791,-0.16272605,-0.05930054,-0.00401220,-0.09468615,0.00180188,0.99909157,-0.00295916,0.00817847,0.04171811
1761620192973,-0.13988542,0.01204019,-0.12118458,-0.00059149,-0.01092907,-0.00217479,0.99909946,-0.00298574,0.00768721,0.04162035
1761620193010,0.49258411,0.31967767,0.89484660,0.08486310,-0.15985328,0.01501281,0.99910975,-0.00139456,0.00468996,0.04190184
1761620193016,4.81633913,-0.59850748,15.67439967,0.12808283,-0.26176027,-0.01837429,0.99911552,-0.00103593,0.00395703,0.04185039
1761620193066,-0.85905378,-0.18820416,-2.25183117,0.01469827,-0.01322204,-0.00422818,0.99912154,-0.00066627,0.00362450,0.04174406
1761620193091,0.00957173,-0.05084451,0.31262712,0.01922881,-0.01362255,0.00998010,0.99911709,-0.00042783,0.00345558,0.04186781
1761620193127,-0.09819181,0.06497170,-0.11470014,0.00741843,-0.00057440,0.01740237,0.99910407,-0.00029504,0.00344530,0.04217931
1761620193130,-1.15527787,4.69339959,57.92159608,0.39995837,-0.11856550,-0.09707131,0.99910971,0.00020491,0.00329709,0.04205797
1761620193162,0.03925036,-0.25437455,-4.53846891,0.00198600,-0.01887237,-0.00959508,0.99911724,0.00023728,0.00298947,0.04190157
1761620193185,-0.00060082,-0.03696048,0.12118813,-0.00348627,-0.01864885,0.01145266,0.99911227,0.00019666,0.00277221,0.04203500
1761620193190,0.04216819,-0.80165432,15.34303260,-0.04555949,-0.14007093,0.13391753,0.99910012,0.00009188,0.00245005,0.04234301
1761620193217,0.03039037,-0.00117565,-2.63933841,-0.01014179,-0.02744715,0.00669839,0.99909717,-0.00004352,0.00208363,0.04243243
1761620193229,0.07896970,-0.17204361,1.49623136,-0.04831266,-0.07298205,0.01858442,0.99909305,-0.00034305,0.00163114,0.04254765
1761620193261,-0.02352341,0.08277740,-0.71468493,0.00424532,-0.02433919,-0.00282470,0.99909555,-0.00027513,0.00124171,0.04250246
1761620193263,17.00595022,19.13547750,159.05126937,0.58592069,-0.68597497,0.53460889,0.99907782,0.00019361,0.00069293,0.04293015
1761620193284,-1.10174566,-1.41159566,-11.38538654,0.02257259,-0.04231102,0.01572254,0.99907064,0.00043739,0.00023597,0.04309995
1761620193312,-0.10408147,-0.06297933,-0.23245830,-0.00074526,-0.03044928,0.00449200,0.99906793,0.00042692,-0.00019184,0.04316306
1761620193315,9.53719501,-5.46178163,68.14276008,-0.28350322,-0.39568315,-0.01946222,0.99906888,0.00005837,-0.00070623,0.04313776
1761620193330,-1.41642110,1.19282372,-11.51621903,-0.00445388,-0.04264773,0.00931175,0.99906566,0.00002563,-0.00101969,0.04320620
1761620193360,-0.16385235,-0.02276560,-0.32770470,0.00530647,-0.02375031,-0.00577096,0.99906903,0.00010682,-0.00138307,0.04311791
1761620193362,2.26317473,27.43756960,183.34028387,0.09867014,-0.63125051,-0.27842292,0.99907778,0.00018576,-0.00188807,0.04289517
1761620193393,-0.04455376,-1.46140835,-9.51565839,0.00452635,-0.01714556,-0.00145637,0.99907819,0.00025523,-0.00215125,0.04287281
1761620193426,-0.02306930,0.03230762,0.00371189,0.00337854,-0.02610895,-0.00396540,0.99907999,0.00031199,-0.00258988,0.04280619
1761620193458,0.01877502,0.02351048,0.23233256,0.00615781,-0.05386144,-0.00857246,0.99908322,0.00041083,-0.00345436,0.04266861
1761620193490,-0.08852506,-0.05494136,-0.27857216,-0.02542744,-0.04522503,0.00226096,0.99907911,0.00001416,-0.00415987,0.04270388
1761620193520,-0.02735770,-0.17506399,-0.00435557,-0.05385417,-0.02220514,0.00620513,0.99907323,-0.00081250,-0.00450072,0.04279913
1761620193552,0.01505059,-0.03486658,-0.10823169,-0.02885415,-0.03359367,0.02022960,0.99905648,-0.00126840,-0.00503150,0.04311875
1761620193553,-173.86644949,-114.81951012,125.07019703,-0.68303062,-0.47628703,-0.19796179,0.99905975,-0.00171237,-0.00534108,0.04299008
1761620193585,6.91843591,4.62839884,-5.02982284,-0.05115201,-0.01520383,0.01174384,0.99904855,-0.00253336,-0.00558510,0.04317857
1761620193608,0.04271509,-0.04499104,0.02074242,-0.05333092,-0.01893635,-0.00474457,0.99904793,-0.00313600,-0.00579909,0.04312495
1761620193619,-0.22591724,-0.39947582,0.38836190,-0.07082028,-0.02831210,-0.00786627,0.99904756,-0.00354675,-0.00596330,0.04307933
1761620193655,0.09466772,0.29285626,-0.23990361,-0.03194674,-0.01198492,-0.00216378,0.99904576,-0.00411221,-0.00617543,0.04304103
1761620193690,-0.08954840,0.05227787,-0.02392708,-0.02895016,-0.00727861,-0.00270245,0.99904478,-0.00461884,-0.00630280,0.04299374
1761620193722,-0.00564001,0.00084249,0.21405676,-0.01695991,-0.02953472,-0.00355316,0.99904282,-0.00489274,-0.00677979,0.04293635
1761620193756,-0.01338481,0.04067596,0.05146083,-0.00209089,-0.02564424,0.00999650,0.99903243,-0.00492776,-0.00720933,0.04310379
1761620193790,-0.18597963,0.04832387,0.08884029,0.01517780,-0.01208460,0.01266930,0.99902268,-0.00466519,-0.00741839,0.04332297
1761620193824,0.00684302,-0.05462605,-0.09096215,-0.01382664,0.00379189,0.01922082,0.99900781,-0.00490024,-0.00735393,0.04364973
1761620193860,-0.00024074,-0.03667137,-0.12380589,-0.00678257,0.02542022,0.03804246,0.99898047,-0.00502165,-0.00689891,0.04433069
1761620193896,0.01932161,-0.07386188,-0.27106841,-0.05232983,0.01479991,-0.02769304,0.99899934,-0.00597667,-0.00662881,0.04382529
1761620193929,0.12721332,-0.23513554,0.06175687,-0.08434792,-0.07219773,-0.00226298,0.99898356,-0.00733045,-0.00778759,0.04378897
1761620193972,0.11014950,0.07730969,0.02344506,-0.05865091,-0.05888911,0.02840435,0.99893542,-0.00860318,-0.00906548,0.04440534
1761620194007,-0.22715821,-0.11554841,0.18525102,-0.10353770,-0.10195825,0.00109938,0.99889975,-0.01040473,-0.01083955,0.04442447
1761620194010,-28.33282949,-18.26388452,30.72931931,-0.11502082,-0.95124669,0.47638388,0.99885284,-0.01056576,-0.01217130,0.04509141
1761620194044,2.34977243,1.99277204,-2.51252876,0.00254006,-0.03436738,0.03497976,0.99881898,-0.01052258,-0.01275554,0.04568607
1761620194076,0.02537935,-0.07400139,-0.03087433,-0.00227181,-0.01348961,0.00157654,0.99881458,-0.01055961,-0.01297542,0.04571176
1761620194137,0.09572389,-0.01673003,-0.02400212,0.00609236,0.00178226,0.00571355,0.99880924,-0.01037380,-0.01292107,0.04588603
1761620194168,-0.88539338,0.14343688,0.58197269,-0.00385481,0.04484135,0.03092666,0.99879537,-0.01043297,-0.01223275,0.04636075
1761620194178,-3.10969786,-4.12272398,2.03198884,-0.32598398,0.00412978,0.06831565,0.99876206,-0.01203029,-0.01221251,0.04669550
1761620194214,1.39348022,0.87718053,-0.95434919,-0.06522635,-0.01764431,0.02137396,0.99872502,-0.01321089,-0.01253188,0.04708237
1761620194236,-0.16666988,0.12029544,0.03914726,0.06165090,-0.02781195,0.00459905,0.99872753,-0.01252040,-0.01284337,0.04713388
1761620194281,0.22361470,0.01239501,-0.20328609,0.03191809,-0.00945877,0.01227167,0.99872043,-0.01180064,-0.01305667,0.04741060
1761620194283,-269.67553322,6.85515682,118.13980133,0.03030479,-0.01169217,0.14983296,0.99871594,-0.01178094,-0.01306427,0.04750799
1761620194308,13.40284510,-0.44370261,-5.64127474,-0.03729583,0.01959530,-0.00846692,0.99871860,-0.01226020,-0.01281247,0.04739919
1761620194349,0.12882922,0.10405828,-0.16066870,-0.00364562,-0.00917731,-0.05692609,0.99876970,-0.01233457,-0.01299968,0.04623790
1761620194359,-4.31280052,1.31723422,-0.94643284,0.15335534,-0.06004321,-0.18255868,0.99881769,-0.01155245,-0.01330590,0.04530685
1761620194394,1.16598549,-0.40521648,0.20701558,-0.02198032,0.00022782,0.00400399,0.99881009,-0.01193491,-0.01330194,0.04537652
1761620194415,-0.56813065,-0.11844004,-0.16510616,-0.10235412,0.00410736,-0.01990543,0.99880669,-0.01301475,-0.01325861,0.04516652
1761620194437,0.09013934,-0.08983137,-0.12508306,-0.04497875,-0.01503175,-0.06213359,0.99882849,-0.01350727,-0.01342320,0.04448616
1761620194448,-1.71745278,-0.32241752,-2.03672985,-0.06035233,-0.07173655,-0.00857942,0.99882045,-0.01384826,-0.01382852,0.04443768
1761620194460,0.95322220,0.10020927,0.08201425,-0.05093660,-0.06230289,0.02754940,0.99880469,-0.01413350,-0.01417741,0.04459196
1761620194482,0.53594920,0.16406451,1.15177004,-0.06513446,-0.04568963,-0.02029484,0.99879697,-0.01484998,-0.01468000,0.04436872
1761620194504,0.02101719,0.13844221,-0.09282886,-0.03835670,-0.04838219,-0.02755686,0.99879606,-0.01527382,-0.01521462,0.04406421
1761620194527,-0.03905180,0.13047711,-0.10769369,-0.01825104,-0.04935076,-0.02825139,0.99879831,-0.01548462,-0.01578462,0.04373791
1761620194533,-12.06101018,-3.27944804,-7.77599816,0.01604772,-0.21204077,0.12972658,0.99877213,-0.01543728,-0.01641014,0.04412060
1761620194546,4.38891712,-0.21284196,3.25198381,-0.04417723,-0.06245497,0.03389579,0.99875065,-0.01573106,-0.01682547,0.04434601
1761620194558,0.21884913,0.56082969,0.20704771,-0.16565826,-0.06531662,0.01835351,0.99872293,-0.01672501,-0.01721737,0.04445613
1761620194578,0.66331845,0.31791332,0.03436643,-0.04915601,-0.04677641,-0.02656635,0.99871812,-0.01722394,-0.01769215,0.04418648
1761620194589,-0.21724890,0.10052399,-0.98951039,-0.05198718,-0.10520770,-0.05278514,0.99871553,-0.01750987,-0.01827079,0.04389616
1761620194593,-11.05455270,-1.09000155,-11.84227664,-0.07081564,-0.37950888,-0.21275960,0.99871740,-0.01764442,-0.01899186,0.04349192
1761620194612,2.58441380,0.34305462,2.79647091,-0.01702957,-0.07114186,-0.02471887,0.99871161,-0.01780705,-0.01967126,0.04325585
1761620194624,-0.11550056,-0.85429132,-0.64325390,-0.00673312,-0.08985623,-0.01311471,0.99870339,-0.01784813,-0.02021939,0.04317585
1761620194635,-0.70205587,-0.78288598,-0.30209940,-0.07688097,-0.12776632,0.00524259,0.99868132,-0.01824791,-0.02088377,0.04320312
1761620194646,0.43679884,0.51632535,-0.39937691,-0.13814315,-0.06088473,0.01173056,0.99865774,-0.01899388,-0.02121255,0.04326646
1761620194659,0.33573355,0.37423411,0.22095693,-0.10229044,-0.04791940,0.04486412,0.99862578,-0.01965365,-0.02152163,0.04355584
1761620194660,-61.45473688,-50.21315328,-183.34581138,-0.88773755,-0.37942706,0.40170520,0.99859529,-0.02027507,-0.02178723,0.04383703
1761620194678,4.91724798,4.15271608,14.71565007,-0.05137083,-0.02766388,0.01419887,0.99857506,-0.02072970,-0.02203205,0.04396269
1761620194692,-0.02765469,-0.05929367,-0.37306336,-0.03926110,-0.01860517,-0.00168170,0.99856695,-0.02100453,-0.02216229,0.04395092
1761620194712,-0.05551722,-0.30323190,-0.35199742,-0.04793148,-0.02105083,-0.02499441,0.99856287,-0.02150302,-0.02238122,0.04369097
1761620194725,0.11387425,-0.00495075,0.49389451,-0.07088993,-0.02869722,-0.03838488,0.99855971,-0.02193899,-0.02255771,0.04345491
1761620194735,-0.13829300,-1.01130538,-0.67612600,-0.10974335,-0.02014404,-0.02933076,0.99855176,-0.02247673,-0.02265641,0.04331119
1761620194745,0.12748229,0.27803646,-0.09661289,-0.12219012,0.00283683,0.00524697,0.99853581,-0.02313656,-0.02264109,0.04333952
1761620194756,-0.04843602,-0.34325887,-0.29593789,-0.09943026,0.02761852,0.00295199,0.99852600,-0.02366851,-0.02249333,0.04335531
1761620194758,-20.07365067,-35.36390977,-100.56206449,-0.60770531,0.21482711,0.10221134,0.99851250,-0.02424583,-0.02228925,0.04345241
1761620194772,3.10335038,5.75278201,14.05091623,-0.04572882,0.03465105,0.00942887,0.99850715,-0.02456822,-0.02204496,0.04351889
1761620194781,0.08758220,-0.57258065,-1.58766719,-0.01246591,0.07493344,0.00708770,0.99851187,-0.02462556,-0.02170026,0.04355149
1761620194793,0.24157346,0.14929330,0.87254890,-0.03688915,0.06081227,0.01126338,0.99851132,-0.02483767,-0.02135059,0.04361626
1761620194805,-0.24158598,0.01839475,-0.01986821,-0.06879013,0.03107376,-0.01991513,0.99851015,-0.02525041,-0.02116415,0.04349677
1761620194825,0.12374667,0.30764259,0.72987618,-0.03829546,0.02638980,-0.01491495,0.99851248,-0.02564103,-0.02089497,0.04334463
1761620194827,5.69094368,-35.03586582,-80.80535786,-0.29834997,0.34389016,-0.07184079,0.99851515,-0.02595430,-0.02053389,0.04326920
1761620194855,-0.45331968,2.71034668,6.14900978,-0.03175306,0.02191747,0.00497888,0.99850674,-0.02639884,-0.02022705,0.04333890
1761620194867,0.24131592,-1.46520758,-4.83571855,-0.08686480,0.14554930,0.01485467,0.99850630,-0.02689831,-0.01939014,0.04342432
1761620194869,5.00697417,-12.15767226,-38.58369515,-0.12185260,0.42793761,0.03564151,0.99851065,-0.02705672,-0.01883382,0.04347065
1761620194889,-0.77560495,2.49386265,7.79241578,-0.01608809,0.05211307,-0.00762773,0.99851908,-0.02721358,-0.01832572,0.04339628
1761620194890,10.28664092,-12.79067280,-155.84831564,-0.15426699,0.73591851,-0.12909335,0.99853010,-0.02732928,-0.01777378,0.04329946
1761620194900,-1.46928703,1.88377071,21.86999687,0.01039476,0.10749889,-0.03587444,0.99854852,-0.02727782,-0.01724166,0.04312188
1761620194911,0.30710734,-0.55352713,0.29356096,0.02716836,0.11050804,-0.02732599,0.99856882,-0.02713247,-0.01665044,0.04297569
1761620194922,0.06235591,-0.36652351,0.23068793,-0.02358362,0.14160678,-0.01590892,0.99858184,-0.02726336,-0.01586452,0.04288740
1761620194934,0.06604839,-0.05970673,0.80725810,-0.08203659,0.11343769,-0.01660579,0.99858314,-0.02775558,-0.01518390,0.04278776
1761620194946,0.07507313,0.42723453,-0.00747528,-0.12338962,0.10830454,-0.02527691,0.99857836,-0.02850826,-0.01452324,0.04263357
1761620194957,0.09217358,0.71025800,-0.64466887,-0.11687937,0.10839675,-0.04873054,0.99857967,-0.02913356,-0.01394332,0.04237286
1761620194969,-0.26763865,-0.10664740,0.01508155,0.00077771,0.09217894,-0.03765607,0.99859737,-0.02912878,-0.01337642,0.04214128
1761620194979,0.12069874,-1.22094025,-0.09219620,0.04091561,0.09567420,-0.01760883,0.99861347,-0.02892216,-0.01289326,0.04205235
1761620194988,0.49473153,-1.19679582,0.44776081,-0.06555983,0.10740898,0.01335610,0.99860882,-0.02919751,-0.01244214,0.04210845
1761620195001,-0.32259915,0.79916297,1.15200909,-0.11183010,0.04544041,0.00853623,0.99858907,-0.02990763,-0.01215360,0.04216265
1761620195013,-0.32520359,0.55785812,-0.17738378,-0.17674163,0.03853649,0.00070702,0.99855759,-0.03102994,-0.01190889,0.04216714
1761620195025,-0.06927968,0.63869210,-0.37396002,-0.15457638,0.06389199,-0.03774893,0.99854316,-0.03191102,-0.01154470,0.04195197
1761620195036,-0.16816923,0.25641533,-0.51762550,-0.05058260,0.04099867,-0.04679514,0.99854783,-0.03220440,-0.01130691,0.04168056
1761620195068,0.07517314,-0.09550263,0.54452947,0.01083096,0.02617074,-0.01100701,0.99856555,-0.03202948,-0.01088426,0.04150280
1761620195080,0.91556432,-2.43060415,-2.64541092,-0.04501247,0.13878747,0.04034417,0.99855628,-0.03227930,-0.01011398,0.04172671
1761620195091,-1.02506919,2.24357067,2.66040014,-0.05039551,0.06282011,0.04311163,0.99854021,-0.03256656,-0.00975591,0.04197245
1761620195113,-0.00286897,0.24372929,0.10999704,-0.00017741,0.04563664,0.01804198,0.99853655,-0.03256852,-0.00925163,0.04217181
1761620195147,-0.04610875,0.12468107,-0.14259831,0.07747769,0.07490612,0.02288031,0.99857292,-0.03125914,-0.00798571,0.04255849
1761620195157,0.12740781,0.42266552,-3.25820121,0.16271378,0.36604275,0.34105198,0.99853609,-0.03042930,-0.00611889,0.04429785
1761620195180,0.33793556,-0.65207587,1.78253856,0.01910690,0.03753519,0.16491310,0.99846006,-0.03021149,-0.00569099,0.04617786
1761620195202,-0.08225518,0.17338213,0.05006945,0.02351661,0.00951027,0.07123635,0.99843124,-0.02994692,-0.00558400,0.04697927
1761620195225,0.02177586,0.12099408,-0.04657041,0.03661649,0.01515087,0.09314893,0.99839509,-0.02954048,-0.00541583,0.04801322
1761620195235,1.94059836,0.50845145,0.03874839,0.11123966,0.09760861,0.44484022,0.99830448,-0.02898428,-0.00492778,0.05023743
1761620195246,0.02830625,-0.58362599,1.42031674,0.04751839,-0.03289869,0.13009328,0.99827404,-0.02871580,-0.00511366,0.05097245
1761620195258,-0.56422862,-0.06358332,0.34176098,-0.01000350,-0.11608002,0.03026765,0.99825972,-0.02877382,-0.00578693,0.05114800
1761620195278,-0.47533253,0.05933622,-0.38901135,0.01175258,-0.05866305,-0.01531706,0.99826762,-0.02865218,-0.00639409,0.05098947
1761620195289,0.72585021,0.40937426,0.89797002,0.03543682,-0.11631580,0.01566820,0.99826449,-0.02845728,-0.00703383,0.05107565
1761620195301,-0.03852943,1.55756628,0.32460080,0.03123153,-0.07051844,0.06548271,0.99824716,-0.02827614,-0.00744283,0.05145545
1761620195312,0.09201808,-1.04053772,-0.05033468,0.06109654,-0.05264374,0.06312479,0.99823627,-0.02793400,-0.00773764,0.05180895
1761620195323,0.03801317,-0.59606427,1.06436866,0.02851999,-0.03557646,-0.00579591,0.99824085,-0.02777429,-0.00793687,0.05177649
1761620195325,59.28533421,12.94663110,161.46472530,-0.37375196,-0.54668724,-0.03719173,0.99823045,-0.02807329,-0.00837422,0.05174674
1761620195346,-4.87242300,-1.08445915,-12.78097307,-0.05305928,-0.03100850,-0.01120264,0.99821788,-0.02863306,-0.00870135,0.05162855
1761620195357,0.41973728,1.61463967,0.99052286,-0.07153614,-0.08009516,-0.05740178,0.99821883,-0.02901221,-0.00912586,0.05132432
1761620195369,-0.54799880,0.33868288,-1.23121219,0.05710660,-0.05946757,-0.05596274,0.99824379,-0.02865243,-0.00950050,0.05097175
1761620195379,0.15211892,2.14801987,-1.52424466,0.25165511,-0.07023401,-0.10453530,0.99830341,-0.02736899,-0.00985870,0.05043862
1761620195391,-0.40385088,-0.63632687,-0.90789816,0.29640654,-0.09370727,-0.09509269,0.99837410,-0.02557573,-0.01042563,0.04986331
1761620195402,0.40903070,-2.24855729,0.78329302,0.52662393,-0.10480389,-0.08836740,0.99845520,-0.02291628,-0.01095489,0.04941706
1761620195414,0.49702583,-2.64948883,1.07560137,0.28172084,-0.06809009,0.05306571,0.99847309,-0.02112735,-0.01138726,0.04975402
1761620195425,0.79984570,-1.42098779,1.87216558,-0.06007517,-0.07812161,0.17057683,0.99841603,-0.02144575,-0.01180130,0.05065808
1761620195436,-0.61832192,1.12075313,-0.76213670,-0.26137161,-0.09553850,0.09490752,0.99834813,-0.02294864,-0.01235065,0.05120380
1761620195446,1.20284391,1.10297632,1.97924343,-0.30024008,-0.12822210,0.03519851,0.99829586,-0.02443483,-0.01298535,0.05137803
1761620195459,-0.35892222,0.67055881,-1.79987370,-0.14758312,-0.13202912,0.02183627,0.99825508,-0.02534984,-0.01380393,0.05151342
1761620195469,1.04877526,-0.85628983,-0.35079999,0.01205374,-0.17484990,0.01668047,0.99823936,-0.02528777,-0.01470441,0.05159932
1761620195479,-1.48323369,-1.71425155,-2.04955928,0.06520914,-0.21447261,-0.00855065,0.99823320,-0.02495194,-0.01580894,0.05155529
1761620195490,0.09237549,-1.60684086,0.92935839,-0.08955260,-0.23684961,0.03467218,0.99819105,-0.02542657,-0.01706424,0.05173905
1761620195501,0.10619436,0.87804655,0.73689768,-0.27828660,-0.23211083,0.09344186,0.99809730,-0.02702672,-0.01839888,0.05227634
1761620195504,38.81400381,-32.90705958,30.21470989,-1.64150091,-1.32550498,0.50162522,0.99798475,-0.02891444,-0.01992321,0.05285321
1761620195542,-2.72210780,2.69823454,-2.18568986,-0.04855646,-0.07943323,0.03158680,0.99789290,-0.02985158,-0.02145627,0.05346283
1761620195568,1.08797802,-0.92215120,0.97456527,-0.07388174,-0.39831716,0.22340465,0.99757906,-0.03081204,-0.02663440,0.05636709
1761620195579,4.60348970,-2.27101742,6.56544569,-0.35965556,-0.80618767,0.69306898,0.99716107,-0.03280813,-0.03110874,0.06021363
1761620195590,-3.44731474,1.65482379,-5.18876296,-0.21669863,-0.68760859,0.59381228,0.99678642,-0.03402165,-0.03495935,0.06353898
1761620195615,-1.54288078,1.43443841,-1.34556910,-0.02831185,-0.18338874,0.16636104,0.99656025,-0.03436988,-0.03721503,0.06558522
1761620195625,1.01507778,1.02764218,0.21680280,0.15383507,-0.40670035,0.38245477,0.99637525,-0.03357763,-0.03930953,0.06755486
1761620195657,-0.48409418,-0.24956041,-0.26020591,0.09278968,-0.06203923,0.03724487,0.99634404,-0.03209764,-0.04029906,0.06814891
1761620195668,7.50297331,-1.55551898,10.29117143,0.25779490,-0.11581138,0.29417557,0.99625337,-0.03071843,-0.04091865,0.06972275
1761620195680,-6.67439945,0.82774092,-7.85682837,0.04406916,0.10981677,0.24525968,0.99618660,-0.03046283,-0.04028171,0.07114526
1761620195702,-0.67751107,0.12405166,-1.25773000,-0.00769029,0.07709466,0.09342727,0.99614263,-0.03055012,-0.03940669,0.07220566
1761620195713,-0.72037034,-0.63389741,-0.74517660,-0.05079152,0.16546997,0.18664991,0.99609423,-0.03083201,-0.03848833,0.07324157
1761620195725,0.06822556,-0.42737040,0.01269313,-0.08642085,0.16165409,0.15553412,0.99604845,-0.03132461,-0.03756690,0.07412811
1761620195736,0.03970187,-0.08177762,0.02568174,-0.12221624,0.18545974,0.10876212,0.99601954,-0.03201513,-0.03651905,0.07474262
1761620195747,-0.14888808,-0.36529962,-0.57090338,-0.09344010,0.16225638,0.09531720,0.99599596,-0.03252438,-0.03563476,0.07526210
1761620195758,0.48161316,0.65343868,0.50569381,-0.08340190,0.13458020,0.05624278,0.99598377,-0.03297892,-0.03490130,0.07556862
1761620195769,0.36356824,-0.12187333,0.07256410,-0.06539850,0.11680997,0.00605750,0.99599198,-0.03335823,-0.03422380,0.07560375
1761620195781,0.48186130,0.29535861,-0.17173446,-0.07643325,0.07229091,0.00782097,0.99598777,-0.03381683,-0.03379005,0.07565068
1761620195791,0.56808377,-0.27372835,-0.47095028,-0.08256483,0.07794222,0.01178362,0.99598289,-0.03418837,-0.03343931,0.07570370
1761620195802,0.17527096,0.28938174,0.23396169,-0.05693026,0.04198299,0.02117000,0.99597042,-0.03451572,-0.03319791,0.07582543
1761620195804,30.68667385,-18.08875186,-63.20683840,-0.56700877,0.26680439,0.11431259,0.99595472,-0.03496933,-0.03298447,0.07591688
1761620195814,-4.45271384,3.10727304,9.24048338,-0.05455953,0.03331509,0.01389928,0.99594493,-0.03525304,-0.03281123,0.07598916
1761620195826,0.21727458,0.21166175,0.31698577,-0.05909960,0.04826454,0.01319822,0.99593600,-0.03559877,-0.03252888,0.07606637
1761620195836,0.34654595,0.40638123,-1.04089572,-0.02331456,0.03991878,-0.03871594,0.99595445,-0.03572467,-0.03231332,0.07585730
1761620195848,-0.06563625,0.44742563,0.11211161,0.03161442,-0.00758150,-0.03626164,0.99597522,-0.03554447,-0.03235653,0.07565061
1761620195858,-0.19290991,-1.73592581,-0.98328841,0.11103518,0.00427357,-0.06075482,0.99601859,-0.03498929,-0.03233517,0.07534684
1761620195869,-0.00626959,0.60918277,1.61933450,-0.07926465,0.02271433,-0.01857439,0.99601492,-0.03542921,-0.03220910,0.07524375
1761620195881,0.14096271,0.66626595,0.44229404,-0.12639162,0.02955474,-0.05348743,0.99601753,-0.03617492,-0.03203473,0.07492817
1761620195891,0.20655517,0.36275330,-1.24523483,-0.06169395,0.00729326,-0.04461397,0.99602434,-0.03648956,-0.03199753,0.07470064
1761620195902,0.20417502,-0.26928144,-0.02115132,-0.02191059,-0.01055629,-0.02391507,0.99602804,-0.03661445,-0.03205770,0.07456433
1761620195913,0.25734577,0.20677124,0.14788979,0.02078351,-0.00673488,-0.04123697,0.99604745,-0.03650326,-0.03209374,0.07434371
1761620195925,0.21844946,-0.46340380,0.17592534,0.03819219,-0.02322561,-0.01972141,0.99605972,-0.03628174,-0.03222844,0.07422932
1761620195936,-0.11892968,0.02965087,0.42333905,-0.01662717,-0.06987276,-0.02674246,0.99605465,-0.03637652,-0.03262672,0.07407689
1761620195948,-0.09611449,-0.13980321,0.62459650,-0.01084667,-0.09354993,-0.06590419,0.99606299,-0.03644106,-0.03318334,0.07368476
1761620195959,0.29826027,-0.05308961,-0.27036493,-0.00273005,-0.12518039,-0.06923750,0.99606729,-0.03645580,-0.03385931,0.07331088
1761620195970,-0.00744374,0.62143247,0.19981331,-0.02430678,-0.13113590,-0.06883200,0.99606540,-0.03658948,-0.03458056,0.07293230
1761620195982,0.13897529,0.11711106,0.20933464,-0.00071305,-0.10932360,-0.03744445,0.99605879,-0.03659369,-0.03522557,0.07271138
1761620195993,0.21145629,-0.58023887,-0.30500734,-0.00339636,-0.13531289,-0.01239251,0.99603607,-0.03661271,-0.03598332,0.07264198
1761620196015,-0.60640240,-0.04418020,0.43795086,-0.00963817,-0.05721029,-0.01253535,0.99601874,-0.03672210,-0.03663266,0.07249971
1761620196025,2.61163875,0.04931547,-0.77446543,-0.06610530,-0.17134751,-0.07157925,0.99600154,-0.03703610,-0.03744656,0.07215970
1761620196026,93.86419092,23.73296018,-21.49096364,-0.04263045,-0.63823516,-0.09174342,0.99598818,-0.03706595,-0.03789333,0.07209548
1761620196037,-13.62608133,-2.72621981,2.77668440,0.02494349,-0.07533990,-0.05028999,0.99599699,-0.03693499,-0.03828886,0.07183146
1761620196058,-0.62792502,-0.02215467,0.06669624,0.04611168,-0.05437517,-0.03839509,0.99602148,-0.03645543,-0.03885436,0.07143215
1761620196060,54.01034129,1.24842995,-29.89784264,0.56128120,-0.28143556,-0.21024505,0.99605073,-0.03578189,-0.03919208,0.07117986
1761620196070,-11.96143590,-0.12455128,8.02301634,0.07686353,-0.05674969,-0.04961341,0.99606995,-0.03541679,-0.03946165,0.07094420
1761620196080,-0.37913564,0.09804218,0.30066052,0.04969173,-0.05406216,-0.03093281,0.99607964,-0.03515094,-0.03975088,0.07077870
1761620196092,-0.41240395,0.01272878,-0.33944415,0.07715337,-0.06257944,-0.05384951,0.99610392,-0.03468416,-0.04012948,0.07045292
1761620196103,0.02222531,0.64431289,0.05756720,0.09827966,-0.06093423,-0.09331433,0.99614297,-0.03417311,-0.04044634,0.06996768
1761620196115,-0.32273113,-0.15369011,0.03056648,0.08535994,-0.06041940,-0.07279937,0.99617621,-0.03366095,-0.04080886,0.06953088
1761620196126,0.20014979,-0.16537067,0.04769839,0.09614110,-0.04060455,-0.03209470,0.99619782,-0.03311295,-0.04104030,0.06934794
1761620196137,-0.10371334,0.20088643,0.24152626,0.05920470,-0.05518491,-0.01482384,0.99620157,-0.03279916,-0.04133278,0.06926938
1761620196147,0.00494831,-0.51620504,-0.15780611,0.07091156,-0.05750072,-0.01214276,0.99620543,-0.03244460,-0.04162029,0.06920866
1761620196158,-0.28387311,-0.11217807,0.46046656,0.03958716,-0.04360752,-0.02393670,0.99621164,-0.03222489,-0.04186231,0.06907582
1761620196169,0.43454128,-0.01040923,0.04521927,0.01326846,-0.05600237,-0.01185534,0.99620530,-0.03214926,-0.04218152,0.06900824
1761620196181,0.11178125,-0.48013276,0.04252412,-0.01307454,-0.07730628,-0.02125458,0.99619230,-0.03222510,-0.04262990,0.06888496
1761620196193,0.00000000,0.26992851,0.14174707,-0.02931915,-0.08034787,-0.05339276,0.99618810,-0.03239515,-0.04309592,0.06857529
1761620196204,-0.09094776,1.02286070,-0.45573968,-0.01047336,-0.09894407,-0.06869246,0.99618847,-0.03245327,-0.04364506,0.06819404
1761620196215,0.21393945,0.06031831,-0.51471857,0.07961055,-0.07575787,-0.05843638,0.99620624,-0.03201542,-0.04406172,0.06787264
1761620196226,-0.21788144,0.04705924,-0.06945862,0.11762476,-0.04678193,-0.06905935,0.99624216,-0.03135084,-0.04432604,0.06748246
1761620196237,0.18441563,-0.52730418,-0.64587319,0.14708583,-0.02513616,-0.09304534,0.99629566,-0.03054186,-0.04446429,0.06697071
1761620196247,0.13532969,-0.39764684,0.16666218,0.12961117,-0.00445879,-0.12324410,0.99635674,-0.02988085,-0.04448703,0.06634216
1761620196258,-0.24192629,0.01200387,0.62766107,0.05164374,-0.00825976,-0.12583643,0.99641045,-0.02958906,-0.04453370,0.06563119
1761620196270,0.15210417,0.40265093,0.48033903,0.06160599,-0.02972499,-0.12566413,0.99646058,-0.02923483,-0.04470462,0.06490862
1761620196281,-0.28484034,0.22872860,-0.36776855,0.07512436,-0.06566853,-0.10486436,0.99649524,-0.02880286,-0.04508221,0.06430565
1761620196293,0.47615623,-0.52672872,-0.21293984,0.12306812,-0.04937101,-0.08189081,0.99653187,-0.02811368,-0.04535869,0.06384706
1761620196303,-0.49130323,0.45989641,-0.34077318,0.12507886,-0.07350167,-0.11059931,0.99657063,-0.02743825,-0.04575560,0.06324982
1761620196314,0.50130875,-0.84195147,0.45998516,0.10204305,-0.06047442,-0.05958372,0.99659116,-0.02688212,-0.04608518,0.06292509
1761620196325,-0.36120987,-0.36011244,-0.08026886,0.05804508,-0.09299373,-0.07436836,0.99660159,-0.02656577,-0.04659200,0.06251978
1761620196337,-0.05724373,-0.30209461,-0.00791736,0.04014591,-0.08266373,-0.06392071,0.99660854,-0.02632891,-0.04707972,0.06214265
1761620196347,0.25039510,0.71923151,-0.02062341,-0.01835756,-0.10136185,-0.04849669,0.99659667,-0.02642437,-0.04760680,0.06189047
1761620196358,-0.44985293,0.11984101,-0.45336469,-0.00314032,-0.09939783,-0.02163986,0.99657750,-0.02644149,-0.04814852,0.06177253
1761620196369,-0.06221604,0.16645745,-0.04359308,0.03666462,-0.07687444,-0.03209884,0.99657316,-0.02623616,-0.04857901,0.06159278
1761620196382,-0.22563128,-0.42864276,-0.15549336,0.05181017,-0.06692719,-0.00880700,0.99656477,-0.02592012,-0.04898727,0.06153906
1761620196392,-0.03338732,-0.25260016,-0.07565061,0.04973940,-0.06280314,-0.01203038,0.99655905,-0.02565402,-0.04932327,0.06147469
1761620196403,0.10412201,0.08808071,0.38316900,-0.01770151,-0.05082505,0.01367927,0.99653860,-0.02574872,-0.04959518,0.06154788
1761620196414,-0.09812305,-0.17499649,0.00525123,-0.03579456,-0.04075599,0.00060297,0.99652226,-0.02594380,-0.04981730,0.06155116
1761620196425,-0.77459449,0.64390676,-0.51372070,0.00372564,-0.03460285,-0.04734618,0.99652925,-0.02592350,-0.05000588,0.06129313
1761620196437,0.72236439,-0.46329070,0.17242240,0.02274395,-0.00092984,0.02618614,0.99652294,-0.02578931,-0.05001137,0.06144763
1761620196448,-1.40373506,1.22512269,-1.37728514,0.07578918,0.00988359,0.00770605,0.99653443,-0.02534594,-0.04995355,0.06149271
1761620196459,0.52408018,-0.47909457,-0.12102074,0.08579884,-0.00001106,-0.00250434,0.99654705,-0.02487834,-0.04995361,0.06147906
1761620196499,-0.03548887,-0.15874955,0.67191168,0.01955945,-0.00043921,-0.00383245,0.99656099,-0.02448812,-0.04996237,0.06140260
1761620196526,0.28457754,-0.03483465,-0.53514219,-0.01432954,-0.03114120,-0.08008185,0.99660020,-0.02467727,-0.05037344,0.06034552
1761620196538,1.06656190,0.12000421,-0.84650637,-0.11065336,-0.10904695,-0.04974786,0.99656829,-0.02534119,-0.05102772,0.06004703
1761620196549,-0.72773495,0.79965973,0.35007466,-0.04839705,-0.07009258,-0.05105113,0.99655855,-0.02560738,-0.05141323,0.05976625
1761620196560,-0.02408268,-0.22477114,-0.58630931,-0.04423008,-0.13011097,-0.08750065,0.99654411,-0.02584622,-0.05211583,0.05929375
1761620196572,-0.00945543,-0.90331676,1.71318320,-0.01829944,-0.10282365,-0.07074147,0.99653371,-0.02595876,-0.05274819,0.05885869
1761620196583,0.03221655,-0.02677861,0.16305154,0.00665398,-0.13104117,-0.05855065,0.99651453,-0.02592083,-0.05349513,0.05852495
1761620196594,0.11637039,0.18250114,0.06015820,-0.01649072,-0.13361279,-0.05014314,0.99648956,-0.02600824,-0.05420328,0.05825919
1761620196605,-0.03311506,-0.12298062,0.25725327,-0.00909209,-0.12706734,-0.02888008,0.99645899,-0.02605870,-0.05490850,0.05809891
1761620196616,-0.06690074,-0.07072529,0.00007504,-0.04558622,-0.15638249,-0.03102394,0.99641579,-0.02630258,-0.05574515,0.05793293
1761620196628,-0.23507238,-0.11242428,0.19845551,-0.02127530,-0.11722388,-0.00262951,0.99637338,-0.02643130,-0.05645435,0.05791702
1761620196639,-0.11925212,-0.44060961,-0.13683302,-0.08048004,-0.11211341,0.05216991,0.99630678,-0.02689406,-0.05709900,0.05821700
1761620196649,0.11991467,-0.40759140,-0.03764585,-0.05295673,-0.10517991,0.04994675,0.99625260,-0.02716943,-0.05764594,0.05847672
1761620196660,-0.19968845,0.13357113,0.19465693,-0.04029020,-0.10813511,0.02322331,0.99620531,-0.02738700,-0.05822987,0.05860213
1761620196671,-0.08519022,0.64117818,0.45479174,-0.01287966,-0.11247612,0.01597229,0.99616462,-0.02745333,-0.05880912,0.05868438
1761620196682,-0.20516766,0.56512969,-0.00084013,0.02132662,-0.07355184,0.00399063,0.99614158,-0.02733070,-0.05923204,0.05870733
1761620196695,-0.18098251,0.29996167,-0.22025730,0.04045742,-0.05446636,0.01093590,0.99612416,-0.02707784,-0.05957246,0.05877568
1761620196705,-0.07915497,0.29753894,-0.11444092,0.06099608,-0.04008486,0.00745876,0.99611819,-0.02677286,-0.05977288,0.05881297
1761620196716,-0.19321518,0.03113983,-0.03228814,0.02977812,-0.03926330,-0.00024046,0.99610937,-0.02660313,-0.05999668,0.05881160
1761620196726,-0.25908443,-0.03807928,0.25890661,0.06313526,-0.02803781,-0.02593740,0.99611672,-0.02629692,-0.06013267,0.05868580
1761620196737,-0.14288958,0.55676388,-0.69315274,0.01972122,0.02152779,-0.01308128,0.99613185,-0.02618155,-0.06000673,0.05860928
1761620196750,0.09107919,-0.07522481,0.13334576,-0.01654351,0.05142502,0.05688887,0.99612753,-0.02628330,-0.05969046,0.05895915
1761620196761,-0.01316172,-0.04361378,0.00159536,0.01585406,0.05194478,0.06387175,0.99612608,-0.02619768,-0.05940996,0.05930405
1761620196772,-0.02014188,-0.82622537,0.73065406,0.03205384,0.02989659,0.01922780,0.99613419,-0.02602139,-0.05924553,0.05940981
1761620196783,-0.08412437,-0.09492370,-0.04460832,0.05201769,0.04388690,0.00059307,0.99615634,-0.02572749,-0.05899757,0.05941316
1761620196794,-0.11487877,0.01300169,-0.08026578,0.01720295,0.03185961,0.00854672,0.99616670,-0.02562943,-0.05881597,0.05946187
1761620196805,0.12038102,-0.21124762,0.12017733,0.02326327,0.04247965,0.02369830,0.99617605,-0.02550032,-0.05858021,0.05959340
1761620196816,-0.15046946,-0.12333328,0.10657579,0.02095256,0.02582419,0.00711749,0.99618442,-0.02539241,-0.05844721,0.05963005
1761620196827,0.10858729,0.18519944,0.06371014,-0.00039268,0.02901436,0.01268039,0.99618977,-0.02539467,-0.05828038,0.05970297
1761620196839,-0.25960133,-0.39343009,-0.50478036,0.07085473,0.03396954,0.02869244,0.99620158,-0.02498726,-0.05808506,0.05986795
1761620196850,0.02021803,0.13609290,-0.00137071,0.05656898,0.03059990,0.04028828,0.99620579,-0.02467613,-0.05791676,0.06008953
1761620196861,-0.04427034,-0.13249955,0.00734672,0.03084317,0.01265123,0.02970949,0.99620405,-0.02449570,-0.05784275,0.06026333
1761620196872,0.26604162,0.25463963,0.55724085,-0.03072804,0.04457676,0.05333145,0.99619644,-0.02466163,-0.05760203,0.06055132
1761620196883,-0.05284367,-0.33068488,0.19101016,-0.02315121,0.01102318,0.04601004,0.99618151,-0.02478780,-0.05754196,0.06080208
1761620196894,0.01425214,0.01056518,0.13676571,-0.03664819,0.01650227,0.01107542,0.99617789,-0.02499486,-0.05744872,0.06086465
1761620196905,-0.00654821,0.07900278,0.13834454,-0.04105621,0.00549949,0.03737240,0.99616167,-0.02521657,-0.05741902,0.06106647
1761620196916,-0.04660133,0.26382633,-0.15177109,-0.00315138,-0.00565753,0.03666661,0.99614679,-0.02523421,-0.05745070,0.06127180
1761620196927,0.16237216,0.07148055,-0.06530823,0.02502847,0.00204102,0.06875491,0.99612740,-0.02509531,-0.05743938,0.06165339
1761620196939,-0.18547194,0.34399980,-0.76907103,0.02662977,-0.01119255,0.03580382,0.99611499,-0.02494485,-0.05750261,0.06185568
1761620196950,0.05335967,0.01649563,-0.13041953,0.02317981,0.00012646,0.04731224,0.99610191,-0.02481620,-0.05750191,0.06211826
1761620196961,0.02400694,-0.13261849,-0.00376579,0.00104842,-0.01080797,0.05745053,0.99607739,-0.02481007,-0.05756514,0.06245435
1761620196972,0.03962322,-0.34731492,0.78303031,-0.02354904,-0.02115419,0.03286472,0.99605646,-0.02493723,-0.05767937,0.06263182
1761620196983,-0.05955396,0.01088589,0.15036319,-0.03477350,-0.03223420,0.00387541,0.99603974,-0.02513196,-0.05785988,0.06265352
1761620196994,0.04312038,-0.13696962,-0.02637240,-0.00403782,-0.03729448,0.03588866,0.99601571,-0.02515336,-0.05805754,0.06284373
1761620197006,0.08255404,0.16315382,-0.02217768,-0.00319712,-0.02063473,0.02592797,0.99599891,-0.02517175,-0.05817619,0.06299282
1761620197017,-0.01913880,0.16990336,-0.09671872,0.01413897,-0.02124786,0.01252139,0.99598951,-0.02509257,-0.05829518,0.06306294
1761620197027,-0.05606248,-0.13040409,-0.16384975,0.02731596,-0.04429631,0.01381458,0.99597530,-0.02495326,-0.05852109,0.06313339
1761620197038,-0.31894320,-0.17480890,-0.58233883,-0.02950326,-0.03650107,-0.01512408,0.99596457,-0.02511700,-0.05872367,0.06304945
1761620197049,0.03142056,-0.03108441,0.13580623,-0.05356879,-0.04995886,-0.01429520,0.99594601,-0.02540895,-0.05899595,0.06297154
1761620197061,0.06567507,-0.18575925,0.06920085,-0.00802521,-0.07201603,0.01185599,0.99591432,-0.02545750,-0.05943165,0.06304327
1761620197073,0.20882531,0.23146956,0.85246496,-0.04550217,-0.06580060,0.01385124,0.99587991,-0.02571914,-0.05981000,0.06312292
1761620197083,-0.04059853,0.28844117,0.22359975,-0.07419794,-0.07287064,0.02830641,0.99583647,-0.02611610,-0.06019986,0.06327436
1761620197094,0.02426121,0.20986099,-0.09796182,0.01665062,-0.05254683,0.05605003,0.99580236,-0.02602619,-0.06048361,0.06357703
1761620197106,-0.20185833,0.37476536,-0.39662931,0.09479386,-0.05143654,0.00781850,0.99579551,-0.02547638,-0.06078194,0.06362237
1761620197117,-0.14605754,0.27083180,0.01616065,0.07142992,-0.02924597,0.03044335,0.99578465,-0.02507280,-0.06094718,0.06379438
1761620197129,-0.18081868,-0.13201372,-0.13093561,0.06071113,-0.00665203,0.00678979,0.99578867,-0.02471157,-0.06098676,0.06383478
1761620197140,0.09873301,-0.23274234,-0.06802065,0.04289746,0.01198813,-0.00689005,0.99580074,-0.02447993,-0.06092203,0.06379757
1761620197150,-0.21846634,-0.12348210,-0.11916346,0.01688278,0.01287232,0.00827862,0.99580416,-0.02439382,-0.06085638,0.06383979
1761620197161,0.00197700,-0.32184236,0.07146491,0.03311664,0.06344497,-0.00319946,0.99583173,-0.02420671,-0.06049791,0.06382171
1761620197173,-0.40397806,-0.10618796,0.12589084,-0.03007253,0.06498102,0.00772659,0.99584769,-0.02438414,-0.06011453,0.06386730
1761620197183,-0.32856635,-0.37016178,-0.05218362,0.00624396,0.07074798,0.00667726,0.99586820,-0.02435199,-0.05975017,0.06390169
1761620197195,0.15647491,-0.04472564,0.04557726,-0.03692412,0.05710563,0.00346700,0.99588135,-0.02456430,-0.05942182,0.06392162
1761620197249,0.25280284,0.04421563,-0.04150166,-0.00397165,0.01150097,-0.00288200,0.99590244,-0.02467292,-0.05910726,0.06384280
1761620197262,-7.64427531,-2.20332473,-1.34210304,-0.06653450,0.19139343,-0.01050141,0.99596856,-0.02510207,-0.05787278,0.06377507
1761620197311,1.93892795,0.53156306,0.38845968,-0.02976277,0.00386523,0.01155346,0.99593763,-0.02582233,-0.05777924,0.06405466
1761620197340,-0.39333993,-0.03771343,-0.02145652,-0.04063864,-0.03145089,0.03944204,0.99585867,-0.02641159,-0.05823528,0.06462657
1761620197361,-0.29052111,-0.16730205,-0.34412105,0.02521767,-0.07322450,0.04165378,0.99579160,-0.02614554,-0.05900779,0.06506602
1761620197373,-0.46803406,-0.38617431,-0.24721765,0.03118756,-0.14462905,0.03583391,0.99573266,-0.02596466,-0.05984664,0.06527385
1761620197395,0.68834708,0.39449614,0.36319050,-0.00084394,-0.06520811,0.04633332,0.99565480,-0.02597402,-0.06057045,0.06578815
1761620197417,-0.05713990,0.00448568,-0.06213360,-0.02319647,-0.04605455,0.01458291,0.99560501,-0.02623730,-0.06109317,0.06595367
1761620197430,-0.10672425,-0.30558516,-0.22358538,-0.01637105,-0.03316998,0.03010927,0.99557731,-0.02633880,-0.06129883,0.06614035
1761620197441,0.01393344,-0.02935661,-0.10916401,-0.04639174,-0.03918498,0.00132320,0.99555544,-0.02661020,-0.06152806,0.06614809
1761620197452,-0.25727789,-0.29388124,0.27806179,-0.05855213,-0.03531386,0.01015345,0.99553193,-0.02692052,-0.06171522,0.06620190
1761620197463,0.14472609,0.87779940,0.25648384,-0.05847600,-0.02723269,0.01239958,0.99551038,-0.02722752,-0.06185819,0.06626700
1761620197474,0.18559305,0.33698557,0.12085129,-0.05254675,-0.02545081,0.03560389,0.99548067,-0.02751653,-0.06199817,0.06646282
1761620197485,-0.25254285,-0.17893297,-0.20328358,-0.01830956,-0.03826623,0.03211459,0.99545218,-0.02761998,-0.06221438,0.06664427
1761620197496,0.19222225,-0.67291206,0.05260136,0.00722486,-0.01563892,0.01536969,0.99544188,-0.02757880,-0.06230352,0.06673188
1761620197507,-0.24378937,0.75876674,0.29932261,-0.02631620,-0.02191591,0.01317292,0.99542635,-0.02771564,-0.06241748,0.06680038
1761620197518,-0.17134314,-0.24134414,0.44865661,-0.03375675,-0.01954683,-0.00291699,0.99541559,-0.02789961,-0.06252401,0.06678448
1761620197529,0.40522614,0.78294815,-0.04232275,-0.06881442,0.00155207,0.02222131,0.99539707,-0.02828153,-0.06251540,0.06690781
1761620197540,-0.00558421,-1.11763843,-0.58075775,-0.00112664,0.00439229,0.03807348,0.99538338,-0.02828818,-0.06248948,0.06713244
1761620197551,-0.36334115,0.51829427,0.35949259,0.05658655,-0.02616700,0.03947449,0.99536915,-0.02799110,-0.06262686,0.06733968
1761620197562,0.22145876,0.26022372,-0.01705326,0.04488800,-0.00617224,0.03903615,0.99535955,-0.02774871,-0.06266019,0.06755048
1761620197573,0.16726519,0.51995736,0.02612606,0.02657160,-0.01915178,0.03228104,0.99534492,-0.02760256,-0.06276553,0.06772802
1761620197584,0.16601386,-0.10054159,-0.13491218,0.04740170,-0.00013106,0.02518369,0.99534259,-0.02733711,-0.06276626,0.06786905
1761620197595,-0.04687923,0.00199793,-0.09122445,0.05456600,-0.01058894,0.03472354,0.99533384,-0.02702882,-0.06282609,0.06806524
1761620197606,-0.13054873,0.01352751,-0.11963895,0.03325399,0.01339521,0.00233867,0.99534232,-0.02685091,-0.06275442,0.06807775
1761620197617,0.21493891,-0.06669543,-0.01947366,0.00508038,0.00981827,0.04008658,0.99533077,-0.02682144,-0.06269748,0.06831025
1761620197629,0.06011362,-0.33269191,-0.01479529,0.00878017,0.00658278,0.03562895,0.99532043,-0.02677095,-0.06265963,0.06851512
1761620197641,-0.09058733,-0.36320824,-0.31363107,-0.01245663,0.01030140,0.03735460,0.99530708,-0.02684445,-0.06259885,0.06873551
1761620197652,0.13380411,-0.19567341,0.14353160,-0.04716270,0.01764663,0.07247666,0.99527880,-0.02710149,-0.06250267,0.06913051
1761620197663,0.19172861,0.17078203,0.19382892,-0.03234150,-0.01709166,0.03457425,0.99525525,-0.02727613,-0.06259497,0.06931721
1761620197674,0.52405159,0.30978200,0.33885627,-0.01103553,-0.03200136,0.00642274,0.99523962,-0.02733848,-0.06277578,0.06935350
1761620197685,-0.04695373,0.15213041,-0.30253546,0.03864584,-0.02764340,-0.00711857,0.99523857,-0.02712786,-0.06292643,0.06931470
1761620197696,0.12688974,-0.04353100,-0.04968415,0.03306970,0.01594844,-0.00158116,0.99525016,-0.02693771,-0.06283473,0.06930561
1761620197707,-0.02419252,0.01627982,-0.04686396,-0.01868124,0.00918630,0.00940946,0.99524705,-0.02703765,-0.06278558,0.06935595
1761620197719,0.18179027,-0.35722923,0.11259475,-0.01338947,0.00890486,-0.00111579,0.99524867,-0.02711665,-0.06273304,0.06934937
1761620197729,0.18685489,-0.15776277,0.06741459,-0.02450880,0.02050182,-0.01511089,0.99525763,-0.02724777,-0.06262336,0.06926852
1761620197741,-0.06756541,-0.02983179,-0.02026648,-0.02908797,-0.00494302,-0.02678525,0.99526210,-0.02742085,-0.06265277,0.06910915
1761620197752,0.08763748,-0.20718175,-0.06908802,0.02123060,0.00709669,-0.03442708,0.99528039,-0.02730726,-0.06261480,0.06892497
1761620197763,0.08741678,0.31983193,0.02468149,-0.01021136,0.00291773,-0.01422615,0.99528518,-0.02736241,-0.06259905,0.06884815
1761620197773,0.45523162,0.00836057,0.07086461,-0.00211627,0.01003163,-0.01688321,0.99529423,-0.02737341,-0.06254688,0.06876035
1761620197785,0.04675306,0.09177645,-0.09629058,0.00405532,0.00071894,-0.01576537,0.99530163,-0.02734928,-0.06254260,0.06866655
1761620197796,0.04740465,0.03897398,-0.08541782,0.00011174,-0.00586813,-0.03586702,0.99531342,-0.02734866,-0.06257547,0.06846569
1761620197807,0.06886442,-0.27348940,-0.01982461,0.00004190,-0.00926407,-0.06226881,0.99533244,-0.02734844,-0.06262318,0.06814501
1761620197818,0.07134136,-0.06854091,0.06392018,-0.02629372,0.00577913,-0.05371034,0.99535146,-0.02749963,-0.06258995,0.06783618
1761620197829,0.04166829,0.01385312,-0.07395644,-0.04694072,-0.01893516,-0.03722390,0.99535167,-0.02776719,-0.06269788,0.06762400
1761620197840,0.13407992,0.28889377,-0.71774772,-0.03629036,-0.01045056,-0.03315690,0.99535475,-0.02796134,-0.06275379,0.06744661
1761620197851,0.03472255,0.10183303,0.07653428,-0.02792664,-0.01872113,-0.03971966,0.99535874,-0.02811634,-0.06285769,0.06722617
1761620197862,0.18606425,0.01991400,0.11733981,-0.00379553,-0.01019045,-0.03575620,0.99536771,-0.02813683,-0.06291272,0.06703308
1761620197874,-0.09239809,-0.00365134,0.75834685,-0.03779633,-0.02140897,-0.02903017,0.99536496,-0.02835605,-0.06303689,0.06686471
1761620197885,0.06141909,-0.09150625,-0.02760129,0.01345564,-0.01018745,-0.04034043,0.99537900,-0.02827868,-0.06309547,0.06663275
1761620197897,-0.00127218,0.06173569,-0.02980545,-0.01959120,-0.01949122,-0.02500721,0.99537829,-0.02839329,-0.06320949,0.06648646
1761620197908,0.19086370,-0.14903916,0.16235384,-0.03976366,-0.01043654,-0.05535349,0.99538829,-0.02860404,-0.06326480,0.06619308
1761620197919,-0.07360525,-0.05705514,0.03548825,-0.05903262,-0.01634263,-0.03592825,0.99538629,-0.02893167,-0.06335551,0.06599368
1761620197931,-0.00757000,-0.01837257,0.07006654,-0.02621767,-0.00851826,-0.02672972,0.99538910,-0.02909029,-0.06340704,0.06583197
1761620197942,0.23454265,-0.05579262,0.17474137,-0.00498992,-0.01833267,-0.04078498,0.99539654,-0.02911723,-0.06350604,0.06561173
1761620197953,-0.00269702,0.27711900,0.03692842,0.01764717,-0.01623337,-0.03556596,0.99540682,-0.02901752,-0.06359776,0.06541078
1761620197963,0.14743543,0.10160905,-0.14201243,0.03786960,-0.01717594,-0.01161341,0.99541080,-0.02882060,-0.06368707,0.06535039
1761620197975,-0.18564271,0.19489541,-0.05136750,0.01897162,-0.01353373,-0.02913981,0.99541987,-0.02871246,-0.06376421,0.06518429
1761620197986,-0.03561233,-0.03904477,-0.03894682,0.01431882,-0.01627286,-0.04907137,0.99543430,-0.02863228,-0.06385534,0.06490949
1761620197997,-0.08471069,-0.13594546,0.05801083,-0.00311216,0.00677939,-0.04777987,0.99545278,-0.02864893,-0.06381907,0.06465387
1761620198007,-0.04718520,0.00075548,-0.01192047,0.00510851,0.01799890,-0.01982431,0.99546675,-0.02862134,-0.06372188,0.06454682
1761620198019,-0.13276653,0.00678194,-0.02580078,0.02093033,0.01364099,-0.03207546,0.99548645,-0.02850518,-0.06364617,0.06436880
1761620198030,0.04037674,-0.03074423,0.01134553,0.00955159,0.00863546,-0.01536729,0.99549727,-0.02844835,-0.06359479,0.06427737
1761620198041,-0.10835209,-0.14054757,-0.41114707,0.02170203,-0.00156860,-0.04302726,0.99551505,-0.02833116,-0.06360326,0.06404502
1761620198052,-0.11807813,0.05784862,0.03211025,0.02583989,0.03670696,-0.04713507,0.99554860,-0.02818904,-0.06340137,0.06378578
1761620198063,0.06300328,0.18170267,0.10828689,0.01114736,0.02196390,0.02947714,0.99554765,-0.02812940,-0.06328386,0.06394348
1761620198074,0.15574732,0.04573677,0.24538121,0.04606274,-0.01029603,-0.00246066,0.99555224,-0.02786454,-0.06334307,0.06392933
1761620198085,0.00349993,0.14402989,0.03614353,0.02284736,-0.01881785,-0.01858407,0.99555575,-0.02773774,-0.06344751,0.06382619
1761620198098,-0.17905682,-0.11782082,-0.09779126,0.04210369,-0.00823796,-0.03996427,0.99557543,-0.02747880,-0.06349817,0.06358041
1761620198109,0.00715923,0.08435521,0.15410250,0.00018123,-0.01027688,0.00020291,0.99557164,-0.02747776,-0.06355675,0.06358157
1761620198121,-0.07529008,-0.09795498,0.05228478,0.00246162,-0.01032195,-0.00029016,0.99556821,-0.02746299,-0.06361868,0.06357982
1761620198131,0.04346172,0.10899385,0.09313226,0.01827368,0.01385579,-0.02184654,0.99558156,-0.02737528,-0.06355217,0.06347496
1761620198141,-0.09397011,0.27158017,-0.09535841,0.02244440,0.04130000,0.01804422,0.99559278,-0.02725520,-0.06333122,0.06357150
1761620198152,-0.10413148,0.17070535,-0.33500025,0.04227685,0.00349727,0.01810674,0.99559398,-0.02702057,-0.06331181,0.06367199
1761620198164,0.04852672,-0.11839437,-0.01657511,0.06220467,-0.00698234,-0.01449130,0.99560608,-0.02667222,-0.06335091,0.06359084
1761620198174,0.19135143,-0.28751085,-0.06820447,0.02910555,0.00376299,-0.00268196,0.99561237,-0.02651796,-0.06333096,0.06357662
1761620198185,-0.10563685,-0.16736394,0.08625116,0.00753176,-0.01690842,-0.03765717,0.99562068,-0.02647691,-0.06342311,0.06337139
1761620198197,0.12910601,-0.01156590,0.10022834,-0.04115490,-0.03391725,-0.00804831,0.99560487,-0.02671355,-0.06361814,0.06332511
1761620198208,0.05562873,0.05577754,-0.02927828,-0.00196939,-0.02552264,-0.00960919,0.99559890,-0.02672448,-0.06375979,0.06327178
1761620198219,0.07868247,0.02545332,0.07564323,-0.00351036,-0.05361410,-0.00711023,0.99558240,-0.02674326,-0.06404662,0.06323374
1761620198230,-0.21951715,0.17726220,-0.21116847,0.00157683,-0.03716267,-0.00144864,0.99556975,-0.02673443,-0.06425474,0.06322563
1761620198242,-0.23027759,-0.15941517,-0.26683005,0.01900164,-0.02613444,0.01697208,0.99555608,-0.02661947,-0.06441285,0.06332831
1761620198254,0.11215844,0.09493686,0.10501899,-0.00363695,-0.01133041,0.01730615,0.99554478,-0.02664075,-0.06447913,0.06342955
1761620198264,-0.07390045,0.05508139,-0.06478082,0.00315548,-0.04057526,0.00399843,0.99552964,-0.02662371,-0.06469824,0.06345115
1761620198309,-0.07307041,-0.07455969,0.03835865,0.00665418,-0.00890543,0.00096510,0.99551937,-0.02647632,-0.06489549,0.06347252
1761620198318,3.95754119,0.42594141,0.21429796,0.07243990,-0.11201822,-0.00406689,0.99549643,-0.02615396,-0.06539397,0.06345442
1761620198331,-1.89739405,-0.42375555,-0.16529678,-0.00161597,-0.00691198,0.04063674,0.99547633,-0.02616447,-0.06543890,0.06371856
1761620198353,-0.40693027,0.11944247,-0.12820848,-0.00330639,-0.00962070,-0.00328918,0.99547065,-0.02620133,-0.06554617,0.06368189
1761620198365,0.31231525,0.20923152,-0.31506445,0.00715791,-0.00835928,-0.01140320,0.99547279,-0.02615946,-0.06559508,0.06361518
1761620198375,0.33891296,-0.36243673,0.25946737,0.02162319,-0.01450445,-0.01455007,0.99547573,-0.02604161,-0.06567412,0.06353588
1761620198388,-0.08423646,0.03436320,0.07283250,0.00397486,-0.01207535,-0.06051287,0.99549500,-0.02601737,-0.06574778,0.06316675
1761620198398,0.12921109,-0.02596850,-0.01206328,0.00199722,-0.02541273,-0.02184468,0.99549368,-0.02600658,-0.06588501,0.06304879
1761620198409,0.09682228,0.09853897,0.13014423,-0.00338432,-0.01330122,-0.00256289,0.99548941,-0.02602452,-0.06595551,0.06303521
1761620198420,-0.10543274,-0.01907943,0.02381202,0.00363825,-0.03412871,-0.02292011,0.99548538,-0.02600414,-0.06614663,0.06290686
1761620198431,0.21321416,0.07471958,-0.06005831,-0.00850120,-0.02921727,-0.01558192,0.99547893,-0.02605048,-0.06630586,0.06282194
1761620198443,0.06427184,-0.03268146,-0.30736691,0.00916364,-0.03630942,-0.02727188,0.99547627,-0.02599778,-0.06651464,0.06266512
1761620198444,47.19612877,5.91328347,-37.44054729,-0.05583890,-0.34087472,-0.14448938,0.99546259,-0.02604804,-0.06682143,0.06253508
1761620198454,-8.27497499,-1.05811071,6.31877090,-0.01016291,-0.04091968,-0.02344112,0.99545501,-0.02609784,-0.06702194,0.06242022
1761620198465,-0.23819498,-0.13288900,0.09594544,-0.00740741,-0.04193095,-0.03186918,0.99544947,-0.02613784,-0.06724836,0.06224813
1761620198476,-0.08501917,0.21760906,0.62366856,-0.02070913,-0.03383893,-0.04443144,0.99544913,-0.02625174,-0.06743448,0.06200375
1761620198488,0.00475004,0.13428724,-0.15035449,0.05244919,-0.02976675,0.00456595,0.99544370,-0.02594491,-0.06760861,0.06203046
1761620198499,-0.03710746,0.33102390,-0.03081806,0.06628362,-0.03521915,-0.02209445,0.99544746,-0.02558698,-0.06779880,0.06191115
1761620198511,-0.10669967,-0.04688232,0.03164197,0.06439919,-0.01579995,-0.01205216,0.99545535,-0.02520058,-0.06789360,0.06183884
1761620198522,-0.02031812,0.00747568,-0.05205308,0.04636663,-0.01671745,-0.00374760,0.99545679,-0.02494325,-0.06798638,0.06181804
1761620198532,0.18921353,-0.20006413,-0.17721888,0.02963046,-0.01151571,-0.01230025,0.99546051,-0.02478917,-0.06804626,0.06175408
1761620198542,0.09258118,-0.08924027,-0.09698981,-0.00402383,-0.01275715,-0.02211295,0.99546258,-0.02481009,-0.06811260,0.06163909
1761620198554,-0.04800774,-0.24571932,0.14908612,-0.02755631,-0.00944018,0.00270621,0.99545409,-0.02496579,-0.06816593,0.06165438
1761620198565,-0.06034643,-0.17925434,-0.04966080,-0.03841955,-0.01408781,-0.02113131,0.99545062,-0.02517902,-0.06824412,0.06153710
1761620198577,-0.27205280,-0.10189061,0.13260183,-0.02616863,-0.01207763,-0.02332211,0.99545031,-0.02533341,-0.06831538,0.06139950
1761620198587,0.11511739,0.01483966,-0.24520876,-0.01316561,-0.00474139,-0.03574842,0.99545810,-0.02539990,-0.06833932,0.06121897
1761620198598,-0.03586440,0.07666535,0.09960690,-0.02980594,0.01717724,0.00777363,0.99545774,-0.02556830,-0.06824227,0.06126290
1761620198609,-0.07054703,-0.06285950,-0.14485657,-0.01893077,-0.01050464,-0.02034553,0.99545797,-0.02567053,-0.06829900,0.06115303
1761620198621,0.00722965,-0.10577275,0.08954617,-0.02309815,0.00371830,-0.00456306,0.99545761,-0.02580681,-0.06827706,0.06112611
1761620198632,0.12698954,0.00952455,0.00440002,-0.04684406,0.00053738,-0.00942642,0.99545413,-0.02607616,-0.06827397,0.06107191
1761620198643,-0.62436026,-0.07293832,-0.24398711,-0.05688145,-0.03688896,-0.03775493,0.99544467,-0.02638901,-0.06847686,0.06086425
1761620198655,0.04002662,-0.05250784,0.06084047,-0.03355590,0.00096418,-0.03432127,0.99545190,-0.02658028,-0.06847136,0.06066862
1761620198666,-0.02000693,0.04881587,-0.03801317,-0.02158193,-0.02722353,0.00333515,0.99543703,-0.02670114,-0.06862381,0.06068730
1761620198676,0.51392001,-0.01558765,-0.05605255,-0.00329882,-0.02926305,-0.01403766,0.99543051,-0.02671829,-0.06877598,0.06061430
1761620198689,-0.16872699,0.15795850,0.25769747,-0.01019327,-0.01893592,-0.01958188,0.99542806,-0.02678200,-0.06889433,0.06049192
1761620198699,0.29537805,-0.05594190,-0.23919450,-0.01329019,-0.02207056,0.01789255,0.99541259,-0.02685111,-0.06900910,0.06058496
1761620198710,-0.03526902,0.25483934,0.08817255,-0.03323222,-0.03076260,0.00972399,0.99539373,-0.02702391,-0.06916906,0.06063552
1761620198721,-0.13397824,-0.01588479,0.06514914,-0.00866004,-0.01566602,0.01500519,0.99538074,-0.02707414,-0.06925993,0.06072255
1761620198732,-0.08628728,-0.19424571,-0.05655486,0.02209990,-0.02858728,-0.02081015,0.99538004,-0.02694817,-0.06942288,0.06060394
1761620198743,0.53767245,-0.12310931,-0.18415623,-0.00447836,-0.02532593,-0.01042688,0.99537345,-0.02697168,-0.06955584,0.06054919
1761620198754,0.03819463,0.13176399,0.07662286,-0.03775127,-0.00812736,-0.00318658,0.99536589,-0.02717554,-0.06959972,0.06053199
1761620198765,-0.10348029,0.02790492,-0.01407895,0.02111121,-0.02097041,-0.01493669,0.99536597,-0.02705732,-0.06971716,0.06044834
1761620198776,-0.41773079,0.21786741,0.15439004,0.02428606,-0.01523178,-0.02648145,0.99537262,-0.02692253,-0.06980169,0.06030137
1761620198788,-0.15054455,0.14416265,0.05518427,-0.02580202,-0.02437955,-0.01781826,0.99536449,-0.02707992,-0.06995041,0.06019268
1761620198799,0.10805544,0.02928302,-0.21327477,0.02284979,-0.00269762,-0.02201680,0.99537373,-0.02695996,-0.06996457,0.06007709
1761620198837,-0.17622333,-0.05462587,0.19347354,-0.00264675,-0.00413509,0.00098132,0.99536565,-0.02701065,-0.07004376,0.06009588
1761620198856,0.48084222,-0.19476300,-0.62054399,-0.02803898,-0.00665731,0.01172605,0.99534701,-0.02727982,-0.07010767,0.06020845
1761620198868,0.14200135,-0.59927485,-0.51052996,-0.03623127,-0.00648293,0.02351161,0.99533018,-0.02749177,-0.07014559,0.06034599
1761620198878,-0.42083268,0.77858655,1.00783611,-0.02992967,-0.00993182,0.00480763,0.99532089,-0.02764441,-0.07019625,0.06037051
1761620198900,-0.19040246,0.10936986,0.28058688,-0.00274377,0.00682478,0.00983346,0.99531880,-0.02767432,-0.07012186,0.06047770
1761620198910,0.36462181,-0.04258092,-0.39313633,-0.00425706,0.01568870,0.01106527,0.99532043,-0.02769646,-0.07004028,0.06053524
1761620198923,-0.19453929,-0.17824693,0.35305721,-0.00826221,0.02403519,0.00113770,0.99532905,-0.02774768,-0.06989126,0.06054229
1761620198933,0.00403849,-0.20825266,-0.09309055,-0.01064231,0.02296116,0.01029927,0.99533269,-0.02780409,-0.06976956,0.06059688
1761620198945,0.09497085,-0.17089491,0.61583177,-0.04074153,0.03457092,0.00970020,0.99533670,-0.02804243,-0.06956732,0.06065362
1761620198955,0.07934000,-0.11877610,0.07559755,0.01458641,0.01187837,-0.01314502,0.99534680,-0.02797022,-0.06950853,0.06058856
1761620198966,0.05039926,0.44249817,-0.15616198,0.00389428,0.01670076,0.00128373,0.99535321,-0.02794939,-0.06941918,0.06059542
1761620198977,-0.15349161,0.14501029,-0.32869123,0.01601276,0.00926152,-0.01472759,0.99536445,-0.02785892,-0.06936685,0.06051221
1761620198988,0.19727324,0.07352688,0.10493840,-0.00245227,0.01040676,-0.02175848,0.99537543,-0.02787253,-0.06930909,0.06039145
1761620198999,0.01921206,-0.14007911,-0.00684922,-0.00950725,-0.00299749,-0.02609220,0.99538162,-0.02792577,-0.06932588,0.06024534
1761620199001,17.05484778,-5.93597419,1.52593041,-0.08510984,-0.03512266,-0.09613167,0.99538274,-0.02802364,-0.06936627,0.06013479
1761620199011,-3.88682872,1.31800349,-0.10337310,-0.00634039,-0.02642259,-0.04940458,0.99538729,-0.02805376,-0.06949178,0.05990011
1761620199022,-0.00701454,0.09000320,0.05918514,-0.03095014,-0.01838066,0.00206240,0.99537507,-0.02821934,-0.06959011,0.05991115
1761620199033,-0.09615118,0.01636069,-0.04821275,-0.00723646,-0.04216747,-0.01518302,0.99536228,-0.02826059,-0.06983047,0.05982460
1761620199044,-0.01347133,0.13329461,0.16218951,-0.01802281,-0.04885384,-0.00562311,0.99534207,-0.02836152,-0.07010405,0.05979312
1761620199055,0.05983137,0.02593759,0.06046118,-0.01209140,-0.04913451,-0.00945726,0.99532520,-0.02842440,-0.07035955,0.05974394
1761620199066,-0.07077552,-0.11142007,0.07934268,-0.01187937,-0.04741527,0.00313975,0.99530402,-0.02848914,-0.07061796,0.05976105
1761620199078,0.02643114,0.01900716,0.02042794,-0.02410462,-0.03903596,0.00256661,0.99528157,-0.02863859,-0.07085998,0.05977696
1761620199089,-0.01259540,0.01899702,0.17647001,-0.01698834,-0.03884407,-0.01699224,0.99526959,-0.02872947,-0.07106780,0.05968605
1761620199100,-0.17039059,-0.18683138,-0.05994018,-0.00938118,-0.02115961,-0.02052311,0.99526644,-0.02878295,-0.07118841,0.05956907
1761620199111,-0.08384127,0.06320483,0.21749229,-0.00600445,-0.02245957,-0.01375008,0.99526145,-0.02881417,-0.07130520,0.05949757
1761620199123,-0.15843628,0.22078912,-0.02292486,0.00557879,0.00846600,-0.02033173,0.99527334,-0.02878070,-0.07125440,0.05937558
1761620199134,-0.03945294,0.12361618,0.10985398,0.03960750,0.00796432,-0.00885712,0.99528633,-0.02855097,-0.07120821,0.05932421
1761620199145,-0.10383078,0.06238232,0.19489174,0.04756178,-0.00210373,-0.02525000,0.99530042,-0.02830365,-0.07121915,0.05919291
1761620199156,0.00286538,-0.02504325,0.15056245,0.00850216,0.00015600,-0.01189498,0.99530575,-0.02825647,-0.07121828,0.05912689
1761620199167,0.07645871,-0.17562386,-0.08839157,0.00666492,-0.01100729,-0.02727072,0.99531125,-0.02822047,-0.07127772,0.05897963
1761620199178,0.00335698,-0.04832444,0.05050066,-0.02098592,-0.02164734,-0.03758681,0.99531167,-0.02833590,-0.07139678,0.05877290
1761620199188,-0.15512134,-0.04642739,0.06691785,-0.00600206,-0.02618118,-0.02238131,0.99530762,-0.02836921,-0.07154209,0.05864869
1761620199200,0.00284022,0.01313712,0.09798753,0.01157293,0.00370584,-0.02437452,0.99531878,-0.02830556,-0.07152171,0.05851463
1761620199211,-0.16157292,0.18318576,-0.14186891,0.01482630,-0.03230406,0.00501152,0.99530669,-0.02822401,-0.07169938,0.05854219
1761620199223,-0.03343783,0.04457481,-0.09432504,0.03665417,-0.00389193,-0.01403865,0.99531641,-0.02799859,-0.07172331,0.05845585
1761620199233,-0.04750888,0.05851453,0.16007699,-0.00435790,-0.00764354,0.01799617,0.99530758,-0.02802082,-0.07176230,0.05854763
1761620199244,-0.27671339,-0.20664933,-0.28547807,0.02173036,-0.02089963,0.00072392,0.99530236,-0.02790021,-0.07187829,0.05855165
1761620199255,0.00599996,-0.08722605,0.09536033,-0.00067926,-0.01502738,-0.00210401,0.99529697,-0.02790395,-0.07196094,0.05854008
1761620199266,0.00438543,0.01856141,0.25688197,-0.01063626,-0.02096239,-0.00556125,0.99528893,-0.02796138,-0.07207414,0.05851005
1761620199277,0.07056956,-0.06372789,0.18127694,0.00120626,-0.01612233,-0.01505686,0.99528756,-0.02795475,-0.07216281,0.05842724
1761620199289,0.02079486,0.07802122,-0.13140952,-0.01044715,-0.00623445,-0.00362359,0.99528430,-0.02801848,-0.07220084,0.05840513
1761620199301,0.01068265,-0.03192359,0.20067456,-0.00347537,-0.01760702,0.00672985,0.99527430,-0.02803811,-0.07230032,0.05844316
1761620199311,-0.19861928,-0.03929222,0.12435506,0.02588040,-0.02903425,-0.02210967,0.99527385,-0.02790612,-0.07244839,0.05833040
1761620199373,0.04151298,0.02366912,-0.24165899,0.00056133,-0.00067759,-0.00235290,0.99527709,-0.02788869,-0.07246943,0.05825734
1761620199390,-0.71060707,0.54821536,3.06538890,0.08745538,-0.00384317,-0.03587479,0.99531390,-0.02712783,-0.07250287,0.05794523
1761620199422,0.28856548,-0.27223154,-1.23580083,0.01872420,-0.04474489,-0.01194853,0.99528073,-0.02682824,-0.07321879,0.05775405
1761620199444,-0.05299626,0.02248430,-0.14848485,-0.01868233,-0.04918156,0.01075443,0.99522882,-0.02703188,-0.07375487,0.05787127
1761620199468,0.03882504,-0.08604267,-0.27118291,-0.02515294,-0.01566592,0.00607519,0.99520239,-0.02733372,-0.07394286,0.05794418
1761620199478,-0.39100647,-0.74021518,1.09434128,-0.03310766,-0.04495154,-0.01522173,0.99518553,-0.02749926,-0.07416762,0.05786807
1761620199489,-0.18096036,0.34176299,-0.01276849,-0.03049875,-0.02837249,-0.01477164,0.99517354,-0.02767310,-0.07432934,0.05778387
1761620199501,0.18767961,0.26768471,-0.50402129,0.02588231,0.00541183,0.01947781,0.99517348,-0.02752427,-0.07429822,0.05789587
1761620199511,-0.08662951,0.09616177,-0.02252657,0.02828258,-0.01402482,0.02376745,0.99516464,-0.02737296,-0.07437325,0.05802302
1761620199523,0.03303645,0.03805741,0.05686542,0.03818853,0.00688048,0.01114620,0.99516965,-0.02716293,-0.07433541,0.05808433
1761620199534,-0.14041489,-0.17253852,0.06712894,0.01659566,0.00779423,-0.01098657,0.99517895,-0.02707082,-0.07429215,0.05802335
1761620199546,0.10105371,-0.26053586,-0.06369988,0.01027416,0.02842399,-0.00656821,0.99519619,-0.02700712,-0.07411592,0.05798263
1761620199556,-0.15923376,-0.10947633,0.30360619,-0.00051546,0.04383045,0.00326896,0.99521192,-0.02700977,-0.07389020,0.05799946
1761620199568,0.04795538,0.23317375,-0.16794530,0.00183638,0.03554161,-0.00770819,0.99523026,-0.02699903,-0.07368228,0.05795437
1761620199580,-0.09570956,0.09037370,-0.20238332,0.03534979,0.04734627,-0.03755280,0.99526875,-0.02679400,-0.07340767,0.05773656
1761620199591,-0.15192159,0.18641300,0.05164547,0.01112534,0.05825828,-0.01600549,0.99529963,-0.02673170,-0.07308142,0.05764693
1761620199601,-0.05949989,0.05139806,-0.02209762,0.01356848,0.05348453,-0.02034384,0.99532748,-0.02666250,-0.07280865,0.05754318
1761620199612,0.16474102,-0.00677144,0.00092725,0.02030087,0.04123934,-0.01591651,0.99535209,-0.02655085,-0.07258184,0.05745564
1761620199623,0.02254180,-0.06835158,-0.11732600,-0.00814172,0.01848938,0.00205605,0.99535780,-0.02659685,-0.07247737,0.05746726
1761620199634,-0.19261110,-0.16226087,0.00230171,-0.00149895,0.02331797,-0.01519027,0.99537173,-0.02660509,-0.07234912,0.05738371
1761620199655,0.24397234,0.07767971,-0.20760257,-0.01313180,0.01638141,-0.00252544,0.99538205,-0.02674298,-0.07217712,0.05735719
1761620199684,0.04910314,-0.00660963,-0.04134560,-0.00116421,0.00324280,0.00575831,0.99538022,-0.02675957,-0.07213091,0.05743925
1761620199713,-0.06595615,0.02551374,0.17118752,0.00278147,0.00400527,0.00574545,0.99538070,-0.02671937,-0.07207303,0.05752227
1761620199723,-1.50899861,0.19508981,1.63782613,-0.00900626,0.03628615,-0.01260376,0.99539718,-0.02676711,-0.07188071,0.05745547
1761620199734,1.03182440,-0.64712738,-0.79176759,-0.02617371,0.03666129,-0.00861977,0.99541070,-0.02691237,-0.07167724,0.05740763
1761620199757,0.43813650,0.09289077,-0.52145652,-0.02193032,0.01698217,-0.01152600,0.99542521,-0.02715909,-0.07148620,0.05727796
1761620199768,-0.33418776,-0.16972329,0.59492890,-0.00178939,0.03800399,-0.02867593,0.99544813,-0.02716857,-0.07128477,0.05712598
1761620199778,-0.17663721,0.24780973,-0.12865977,0.01995725,0.02376835,-0.01828715,0.99546591,-0.02706080,-0.07115643,0.05702723
1761620199791,0.17317439,0.15846116,-0.16599527,0.00598262,0.01401127,-0.02591537,0.99548218,-0.02702401,-0.07107026,0.05686785
1761620199801,0.01126723,0.00391050,0.11546418,-0.00470888,0.02883880,-0.00283223,0.99549347,-0.02704944,-0.07091453,0.05685256
1761620199813,-0.00010750,0.04408641,-0.05740674,-0.01765450,0.01165786,-0.00969250,0.99549848,-0.02714742,-0.07084983,0.05679876
1761620199825,0.04515027,-0.04341362,-0.12354707,-0.00608733,0.01044178,-0.01421843,0.99550736,-0.02718638,-0.07078300,0.05670777
1761620199846,0.08345892,-0.00091907,-0.13624971,-0.00109726,0.01465877,-0.00398269,0.99552029,-0.02719784,-0.07062981,0.05666615
1761620199848,-98.42770712,3.38753064,54.62865510,-0.01843845,0.27510616,-0.15945613,0.99554133,-0.02721167,-0.07042348,0.05654655
1761620199869,6.89941737,-0.19803674,-3.97612422,0.00493738,0.00489091,-0.00219252,0.99554772,-0.02715958,-0.07037188,0.05652342
1761620199879,-0.14825209,0.33073482,0.90976095,0.02139032,0.00872177,-0.03283890,0.99556317,-0.02705156,-0.07032784,0.05635759
1761620199891,0.25660542,-0.03470900,-0.09744767,0.02866648,0.01754897,-0.01552007,0.99558024,-0.02688243,-0.07022430,0.05626602
1761620199902,-0.14100515,0.15206070,0.01191788,0.03123318,-0.00230121,-0.01383547,0.99558812,-0.02671377,-0.07023673,0.05619131
1761620199904,-5.43273543,6.47310010,15.13171609,0.12371992,-0.01507267,-0.07573550,0.99559660,-0.02655294,-0.07025632,0.05609285
1761620199915,1.40664051,-1.69909626,-3.61907177,0.02557238,0.00115106,-0.02870641,0.99560907,-0.02641868,-0.07025028,0.05594214
1761620199925,0.09199336,-0.10315959,-0.11991467,0.01638972,-0.00682621,-0.02486103,0.99561608,-0.02633345,-0.07028578,0.05581286
1761620199936,-0.06847263,-0.27097988,0.12274473,0.01233311,-0.01224160,-0.00515905,0.99561476,-0.02626809,-0.07035066,0.05578552
1761620199947,-0.15951543,-0.23465744,0.50395213,-0.00491343,-0.00728056,-0.02336789,0.99561838,-0.02629487,-0.07039033,0.05565817
1761620199957,0.08846922,-0.16028917,-0.10231626,0.02020151,0.00584469,-0.00498704,0.99562511,-0.02618376,-0.07035819,0.05563074
1761620199969,-0.10741335,0.25152822,-0.17696991,-0.02066636,-0.00886478,-0.02310477,0.99562576,-0.02629846,-0.07040739,0.05550251
1761620199979,0.00021056,0.13114618,-0.28442346,-0.01330570,-0.00432713,-0.00361430,0.99562346,-0.02636565,-0.07042924,0.05548425
1761620199990,-0.01219928,0.17951372,-0.21553381,-0.01014452,0.00229913,0.01758361,0.99561753,-0.02642094,-0.07041671,0.05558008
1761620200001,0.10156373,-0.01414702,-0.17555830,0.02612017,-0.00061376,0.00747927,0.99561887,-0.02626944,-0.07042027,0.05562346
1761620200012,-0.06169395,-0.00022878,-0.21769539,0.05627739,-0.01811140,-0.00028267,0.99562002,-0.02595992,-0.07051988,0.05562191
1761620200025,0.01398257,0.09083970,-0.10332202,0.04329009,-0.01081907,0.01501611,0.99561705,-0.02569368,-0.07058642,0.05571426
1761620200035,-0.21704783,-0.08810267,-0.45651153,0.04757493,-0.00338917,-0.01007191,0.99562532,-0.02543916,-0.07060455,0.05566037
1761620200047,-0.03271335,-0.16171316,-0.20547000,0.00793419,-0.01932191,0.00473640,0.99561714,-0.02539393,-0.07071469,0.05568737
1761620200057,-0.01088178,-0.26813351,0.11954185,-0.02990908,-0.01784973,-0.01398165,0.99561070,-0.02554796,-0.07080661,0.05561537
1761620200068,0.12530223,-0.11237894,0.37686320,-0.11750624,-0.03819596,-0.04325858,0.99559220,-0.02619425,-0.07101669,0.05537744
1761620200080,0.09873901,-0.06162486,0.07164599,-0.02504432,-0.02859483,0.01091967,0.99557234,-0.02634451,-0.07118826,0.05544296
1761620200091,0.10956135,0.08539359,0.09729702,-0.02724780,-0.00693197,0.01026124,0.99556267,-0.02649165,-0.07122569,0.05549837
1761620200101,-0.00910104,0.11382862,-0.12062728,-0.00798516,-0.03139590,0.01629202,0.99554464,-0.02653437,-0.07139366,0.05558553
1761620200113,-0.00128048,0.08594013,-0.18075046,0.01484170,-0.04445863,0.00876868,0.99552572,-0.02644903,-0.07164930,0.05563595
1761620200125,0.00954544,-0.00450256,0.01575290,-0.00112498,-0.03007331,-0.00207700,0.99551334,-0.02645573,-0.07182823,0.05562360
1761620200137,-0.06747181,-0.23242715,0.02347609,-0.00618642,-0.04362488,0.00370792,0.99549272,-0.02649192,-0.07208344,0.05564529
1761620200173,0.12273246,0.07385306,-0.02791154,-0.01610996,-0.00864313,0.00184501,0.99547154,-0.02678592,-0.07224118,0.05567896
1761620200182,-2.06865176,-1.96394616,1.06105127,-0.09452400,-0.06597226,0.06578298,0.99542070,-0.02722073,-0.07254465,0.05598156
1761620200191,1.28449129,1.94220499,-1.15075677,0.03123040,-0.01589664,0.03222453,0.99541115,-0.02708020,-0.07261618,0.05612657
1761620200203,0.24443821,0.06183846,-0.04276908,0.03233141,0.00569356,0.00604192,0.99541676,-0.02688944,-0.07258259,0.05616222
1761620200214,-0.03826573,0.20126046,-0.07880394,-0.01668221,-0.00333504,0.00942252,0.99541032,-0.02697702,-0.07260010,0.05621169
1761620200226,0.16461447,-0.07336961,-0.00810465,0.00666602,-0.00763750,0.00937347,0.99540475,-0.02693603,-0.07264707,0.05626933
1761620200236,0.03160449,0.00075771,-0.10012687,0.00349214,-0.00175104,0.00265437,0.99540378,-0.02691752,-0.07265635,0.05628340
1761620200247,0.01399277,-0.22245292,-0.03281941,0.00265613,-0.00256657,-0.01492568,0.99540753,-0.02690384,-0.07266957,0.05620653
1761620200257,-0.07610005,-0.01766378,-0.09987626,-0.02231569,-0.01165304,-0.03028805,0.99540888,-0.02702323,-0.07273191,0.05604449
1761620200259,-20.23017543,-13.31151832,-14.21301536,-0.24302558,-0.08166508,-0.19394337,0.99540761,-0.02720550,-0.07279316,0.05589904
1761620200270,2.86656822,1.87542970,2.11852180,-0.05731243,-0.01618483,-0.01139539,0.99539638,-0.02750925,-0.07287894,0.05583864
1761620200280,0.07638901,0.03885760,0.12731501,-0.03377316,-0.01422421,0.00137673,0.99538548,-0.02768825,-0.07295433,0.05584594
1761620200291,-0.05862266,0.10857666,-0.22403913,-0.01993185,-0.03206623,-0.00669547,0.99537193,-0.02779489,-0.07312588,0.05581012
1761620200302,0.13791319,0.03610057,-0.06252633,0.01368508,-0.02367433,0.00312001,0.99536334,-0.02771825,-0.07325846,0.05582759
1761620200314,0.02594726,0.13356393,0.03811607,-0.00240543,-0.01894266,0.00900391,0.99535203,-0.02773208,-0.07336738,0.05587936
1761620200326,0.02102000,0.03736088,-0.06680327,-0.00580865,-0.02719626,0.00928277,0.99533588,-0.02776693,-0.07353056,0.05593506
1761620200336,-0.22789667,-0.09474234,0.11130615,0.01425445,-0.02305463,0.00169534,0.99532824,-0.02768925,-0.07365621,0.05594430
1761620200348,-0.13323235,-0.00783683,-0.03157452,-0.00851978,-0.02020539,-0.00816562,0.99532097,-0.02773781,-0.07377138,0.05589775
1761620200361,0.02640010,-0.12517680,0.02308064,-0.01090553,-0.00442840,-0.00183309,0.99531761,-0.02780706,-0.07379950,0.05588611
1761620200370,0.21255609,-0.29186421,-0.30829820,-0.01177043,-0.00932395,-0.00472802,0.99531391,-0.02786473,-0.07384518,0.05586295
1761620200381,0.03613426,0.08385018,-0.04936374,-0.01624127,0.00016464,-0.02133617,0.99531809,-0.02795487,-0.07384427,0.05574453
1761620200392,0.05071466,0.08231896,0.04773145,-0.01884651,0.00513541,-0.01036461,0.99532041,-0.02805664,-0.07381654,0.05568856
1761620200403,0.02709074,-0.01685884,-0.21940155,0.01579508,0.00696625,-0.01166363,0.99532921,-0.02797056,-0.07377857,0.05562499
1761620200414,0.04015266,0.07054471,-0.03981006,0.01155957,0.01855911,-0.01677956,0.99534410,-0.02790525,-0.07367371,0.05553019
1761620200425,-0.02671376,-0.14037803,-0.04645265,-0.00081219,0.00115850,-0.01570840,0.99534926,-0.02790972,-0.07366734,0.05544379
1761620200438,0.08923732,-0.08012455,0.07828652,-0.02259767,0.00517437,-0.01659685,0.99535336,-0.02804756,-0.07363578,0.05534255
1761620200448,-0.68016935,0.19979084,-0.10815076,-0.06280175,0.01246646,-0.02427735,0.99535579,-0.02835843,-0.07357407,0.05522238
1761620200458,-0.07953232,0.01456680,0.05128720,-0.02741056,-0.00059055,-0.00574452,0.99535304,-0.02850645,-0.07357726,0.05519136
1761620200470,0.05013647,0.00650187,-0.05827380,-0.00159970,0.00117392,-0.01516500,0.99535816,-0.02851573,-0.07357045,0.05510340
1761620200481,0.53839522,-0.14797227,-0.04144638,-0.03650966,-0.00862671,-0.00084915,0.99534913,-0.02871653,-0.07361790,0.05509873
1761620200492,0.23015271,-0.10569465,0.03137783,-0.02993242,-0.00427591,-0.01057664,0.99534588,-0.02887966,-0.07364120,0.05504109
1761620200503,0.00969452,0.04979461,0.02403433,-0.03491922,-0.00834689,-0.01245059,0.99534048,-0.02907870,-0.07368878,0.05497012
1761620200514,0.00417659,-0.15137013,-0.12576190,-0.03196335,-0.00604445,-0.02341207,0.99534000,-0.02924491,-0.07372021,0.05484838
1761620200525,0.03310631,-0.11609651,0.22757896,-0.06182564,-0.02084841,-0.00972006,0.99532397,-0.02959423,-0.07383800,0.05479346
1761620200537,0.03454876,-0.06519232,0.18813922,-0.07414692,-0.01873367,-0.02598587,0.99531109,-0.03003169,-0.07394853,0.05464014
1761620200547,-0.10162260,-0.51949360,0.16528617,-0.06528761,-0.03987433,-0.02767648,0.99529325,-0.03037119,-0.07415588,0.05449623
1761620200559,0.06324100,0.36327905,0.16137359,-0.06834720,-0.01822541,-0.02751406,0.99528192,-0.03076760,-0.07426159,0.05433664
1761620200570,0.02408066,0.02375630,-0.15244164,-0.04014431,-0.02262634,-0.01329598,0.99526988,-0.03098639,-0.07438490,0.05426418
1761620200582,-0.03511874,0.39209630,-0.03943263,-0.04099873,-0.01052677,-0.00128158,0.99525789,-0.03123238,-0.07444806,0.05425649
1761620200592,0.00652498,0.05714455,-0.14667321,-0.00687266,0.00595370,-0.01582425,0.99526372,-0.03126915,-0.07441621,0.05417183
1761620200604,-0.07290207,0.06141950,0.01988862,-0.02051538,-0.00451513,-0.00165195,0.99525863,-0.03138609,-0.07444194,0.05416242
1761620200615,-0.02807639,-0.14900317,0.14978521,-0.01807849,-0.00990173,-0.01775268,0.99525669,-0.03148733,-0.07449739,0.05406300
1761620200625,0.07941882,-0.04314153,0.06958678,-0.05191009,0.01884829,-0.02757691,0.99526316,-0.03175466,-0.07440032,0.05392098
1761620200638,-0.18492590,0.21807173,0.07305315,-0.04333029,0.01042456,0.01110095,0.99525523,-0.03203848,-0.07433204,0.05399369
1761620200649,0.00295675,-0.11211869,-0.19279263,0.02304500,0.01953242,-0.01025418,0.99526996,-0.03191519,-0.07422755,0.05393883
1761620200659,-0.23255428,0.31840488,-0.12305011,-0.00801287,0.00562549,-0.02558539,0.99527747,-0.03195405,-0.07420026,0.05381474
1761620200704,0.10451212,0.00494071,0.11049853,-0.00167030,0.00215825,-0.00044133,0.99528041,-0.03199163,-0.07415170,0.05380481
1761620200734,-0.02426656,0.04426889,-0.17459905,0.02869098,0.00932820,-0.03289206,0.99533179,-0.03155553,-0.07400991,0.05330485
1761620200761,0.01908966,-0.02272094,0.23341161,-0.02062517,-0.01344841,-0.00723561,0.99531457,-0.03183500,-0.07419214,0.05320681
1761620200772,0.07092592,1.63398339,0.48466298,0.09507127,-0.04048435,0.01523718,0.99531018,-0.03132637,-0.07440873,0.05328833
1761620200793,-0.00983011,-0.71177615,-0.23420473,0.01976633,-0.01350482,-0.00541800,0.99530915,-0.03112376,-0.07454715,0.05323279
1761620200814,-0.00092632,-0.08539329,0.03895397,0.00665537,0.00118318,0.01375690,0.99530433,-0.03105089,-0.07453420,0.05338343
1761620200827,-0.08664919,-0.07285535,-0.07183736,0.02030562,0.00742084,0.00759473,0.99530924,-0.03092296,-0.07448745,0.05343128
1761620200839,-0.16672031,0.08247304,-0.09693042,0.01146114,0.01506759,0.01099930,0.99531464,-0.03085362,-0.07439629,0.05349783
1761620200861,0.07952388,-0.04742068,0.02947831,-0.00492438,0.00920813,0.00108258,0.99531979,-0.03090680,-0.07429684,0.05350952
1761620200871,0.02428337,0.06326509,0.03090611,-0.02052687,0.02716535,-0.00537375,0.99532817,-0.03100944,-0.07416101,0.05348265
1761620200882,0.23123951,-0.32214313,-0.01548047,-0.00767541,0.00285680,0.00268753,0.99532722,-0.03105204,-0.07414516,0.05349756
1761620200884,4.45012283,-4.47987110,1.69721838,-0.06026356,0.05261744,-0.07034420,0.99533391,-0.03112134,-0.07408465,0.05341667
1761620200894,-0.85968604,0.95069266,-0.29469143,-0.02629252,-0.00079221,-0.01157312,0.99533258,-0.03125412,-0.07408865,0.05335822
1761620200904,-0.00281346,0.08348901,-0.04655815,-0.01571965,-0.00302203,-0.02717352,0.99533634,-0.03133429,-0.07410406,0.05321964
1761620200915,0.06607067,0.08889818,-0.05192455,-0.01417900,-0.01019839,-0.02171426,0.99533609,-0.03140944,-0.07415811,0.05310455
1761620200927,0.11071219,0.03509007,0.04236053,-0.00690287,-0.01781018,0.00205826,0.99532615,-0.03145085,-0.07426497,0.05311690
1761620200938,0.00622429,-0.00113224,0.28306371,-0.00972122,-0.02246778,-0.00771362,0.99531781,-0.03150238,-0.07438405,0.05307602
1761620200949,0.01250316,-0.11562708,-0.01698290,-0.00481348,-0.03201215,0.00241462,0.99530229,-0.03153029,-0.07456972,0.05309003
1761620200960,0.06954632,0.06881926,0.09055024,-0.01450629,-0.04254477,-0.02070157,0.99528865,-0.03160790,-0.07479734,0.05297927
1761620200970,0.15252397,0.09526054,-0.34444963,-0.01566044,-0.04658823,-0.01037722,0.99527087,-0.03168855,-0.07503727,0.05292583
1761620200981,-0.03827151,-0.06880919,-0.02612944,-0.00411829,-0.03235223,-0.01186108,0.99525999,-0.03171162,-0.07521844,0.05285941
1761620200993,-0.00923581,0.07197737,-0.04494538,-0.01161372,-0.02457251,-0.01196240,0.99525098,-0.03177723,-0.07535727,0.05279182
1761620201005,-0.07431850,-0.05833341,-0.03479906,0.00733004,-0.01794815,-0.01086200,0.99524757,-0.03173179,-0.07546855,0.05272448
1761620201016,-0.06828884,0.16912622,0.03832665,-0.00062483,-0.00403142,-0.01634600,0.99525056,-0.03173526,-0.07549093,0.05263376
1761620201027,0.07888948,0.04152073,-0.02541258,0.01237456,-0.00813954,0.00117835,0.99524902,-0.03166843,-0.07553488,0.05264012
1761620201037,-0.32077481,0.16537041,-0.23523486,0.01278792,-0.00369292,0.00030815,0.99524960,-0.03160130,-0.07555427,0.05264174
1761620201049,-0.07265294,-0.06098290,-0.10529700,0.02715538,-0.00487883,-0.00591715,0.99525429,-0.03144244,-0.07558281,0.05260712
1761620201060,0.04969379,0.05208409,-0.05439263,-0.00560154,-0.00818792,0.00281468,0.99524922,-0.03147241,-0.07562662,0.05262218
1761620201071,0.32501752,-0.30369909,0.24812154,-0.00638900,-0.00301156,-0.00614701,0.99524863,-0.03150786,-0.07564333,0.05258806
1761620201083,-0.01526016,-0.12226234,0.04341802,-0.02215558,-0.00233113,-0.00709091,0.99524570,-0.03163637,-0.07565685,0.05254694
1761620201094,0.06047094,-0.26780792,-0.00027178,-0.02159702,-0.00345122,0.00200865,0.99523989,-0.03175515,-0.07567583,0.05255798
1761620201105,-0.09632358,0.20553477,-0.07061582,-0.02592038,-0.01045923,-0.00464880,0.99523189,-0.03190549,-0.07573650,0.05253102
1761620201117,0.15630077,0.09988831,0.04360206,-0.00903012,0.01048877,0.00747013,0.99523256,-0.03195831,-0.07567514,0.05257472
1761620201128,-0.06942477,0.15402118,-0.15495434,0.00323988,-0.01274404,-0.00570017,0.99522956,-0.03194114,-0.07574268,0.05254451
1761620201138,0.08700732,-0.24670394,0.48039150,0.01343685,0.01400888,-0.00130524,0.99523802,-0.03186858,-0.07566703,0.05253746
1761620201150,-0.18220598,0.04154265,-0.12683332,-0.00320946,-0.00219506,0.00726936,0.99523413,-0.03188768,-0.07568009,0.05258071
1761620201160,0.14871713,-0.13253190,0.05750710,-0.00873592,0.00783938,0.00459329,0.99523450,-0.03193180,-0.07564050,0.05260391
1761620201171,0.01875617,0.16604084,-0.43490341,-0.01442354,0.00491615,-0.00432431,0.99523523,-0.03200752,-0.07561469,0.05258121
1761620201182,0.06476403,-0.14483494,0.06928079,-0.01597942,0.01089972,0.00387007,0.99523584,-0.03209780,-0.07555311,0.05260307
1761620201194,-0.04901564,0.10409232,-0.02847485,-0.01639913,-0.00073511,-0.01216798,0.99523617,-0.03219292,-0.07555737,0.05253250
1761620201234,-0.11409000,0.02912852,0.06326580,0.00231132,0.00116223,-0.00372224,0.99524343,-0.03214623,-0.07553390,0.05245731
1761620201261,0.27473521,0.05036441,-0.19904631,0.02526020,-0.00079502,-0.01020520,0.99526095,-0.03180269,-0.07554471,0.05231852
1761620201273,0.39095292,-0.45365196,-0.48961574,-0.06510615,-0.03466854,-0.01497935,0.99523829,-0.03217705,-0.07574405,0.05223239
1761620201283,0.35517376,-0.07773896,0.69122528,-0.06382124,0.00041291,-0.01852944,0.99523256,-0.03251850,-0.07574184,0.05213326
1761620201305,-0.51097241,0.24284120,0.07046744,0.02237711,0.00034800,0.00489667,0.99523786,-0.03228018,-0.07573814,0.05218541
1761620201316,0.51140118,0.44091823,-0.26128177,0.04058317,-0.01255009,0.01074719,0.99523668,-0.03204886,-0.07580967,0.05224666
1761620201327,-0.03974710,0.10272777,-0.03241123,0.07929746,-0.00346185,-0.03810108,0.99526058,-0.03160479,-0.07582906,0.05203330
1761620201339,0.20300206,-0.20380987,0.04024604,0.03064090,-0.00622826,-0.03979147,0.99527550,-0.03142707,-0.07586518,0.05180251
1761620201351,-0.13131455,-0.19830264,0.39205425,-0.02649100,0.00544831,-0.04741890,0.99528752,-0.03158337,-0.07583304,0.05152274
1761620201361,0.04764890,-0.30214239,-0.09309861,-0.04386776,-0.04009161,-0.04132492,0.99527533,-0.03181368,-0.07604352,0.05130578
1761620201373,-0.29732415,-0.07033969,0.03663204,-0.05769665,-0.01109313,-0.02472647,0.99526726,-0.03213966,-0.07610620,0.05116608
1761620201382,0.27166816,-0.07660988,0.06037070,-0.05378156,-0.00915606,0.00365650,0.99525436,-0.03240319,-0.07615106,0.05118399
1761620201394,-0.29493237,0.09938734,-0.04347108,-0.01980908,-0.02054847,0.00516933,0.99523970,-0.03252006,-0.07627230,0.05121449
1761620201405,0.12203989,0.04519997,-0.01784190,-0.01199904,-0.03232401,0.02089423,0.99521778,-0.03258666,-0.07645169,0.05133045
1761620201416,-0.07734262,0.22862686,-0.05413984,-0.02260157,-0.04596870,-0.00177596,0.99519517,-0.03270871,-0.07669993,0.05132086
1761620201428,0.06562365,0.03073237,0.10736028,-0.01772138,-0.02838801,0.00135354,0.99517868,-0.03281149,-0.07686458,0.05132872
1761620201439,0.14209707,-0.32636268,-0.53230012,-0.01037592,-0.02492543,0.01994970,0.99516086,-0.03286752,-0.07699917,0.05143644
1761620201450,0.04597603,-0.21226116,-0.05925800,0.01811419,-0.00540824,0.02117013,0.99515582,-0.03276789,-0.07702892,0.05155288
1761620201461,-0.19537359,0.14417873,0.07787785,-0.01305993,-0.00812232,-0.00884628,0.99515243,-0.03284168,-0.07707481,0.05150290
1761620201513,-0.17397202,0.06020880,0.12180282,0.00191954,0.00029205,-0.00063178,0.99515550,-0.03279187,-0.07706723,0.05148650
1761620201539,0.54596864,0.10704655,-0.23460511,0.04364152,0.03877755,-0.01701859,0.99522489,-0.03222017,-0.07655925,0.05126356
1761620201581,-0.31229230,-0.06960471,0.13004840,-0.00346353,0.00685297,-0.00792036,0.99524231,-0.03229359,-0.07641396,0.05109565
1761620201607,0.38021928,0.08953686,-0.06104732,-0.01035090,-0.01349786,-0.00451771,0.99522741,-0.03242867,-0.07659011,0.05103669
1761620201629,0.11021774,0.32723733,-0.14057668,0.06297043,-0.04528387,0.01714307,0.99520230,-0.03175489,-0.07707465,0.05122012
1761620201650,-0.47568217,-0.36663498,-0.01184406,-0.00347241,-0.01550400,0.00169907,0.99518718,-0.03179239,-0.07724209,0.05123847
1761620201672,0.04212645,-0.00736834,0.07195614,0.01862427,-0.01560460,-0.00130597,0.99518111,-0.03158752,-0.07741374,0.05122411
1761620201684,0.24491602,0.29162273,0.05276116,0.04500806,0.00515206,0.00244427,0.99519137,-0.03131522,-0.07738257,0.05123889
1761620201696,-0.18603395,0.02189760,-0.01881211,0.02614701,-0.01243816,0.00404131,0.99518926,-0.03115965,-0.07745658,0.05126294
1761620201707,0.06067381,-0.09582306,0.01443490,0.02640929,-0.01556542,-0.00521823,0.99518862,-0.03101572,-0.07754141,0.05123450
1761620201718,0.01860278,-0.06192350,-0.15047245,0.01804184,-0.00962302,-0.01334778,0.99519131,-0.03091829,-0.07759337,0.05116242
1761620201730,0.01277232,-0.14855533,0.09869520,-0.00125837,-0.01275144,0.00707113,0.99518313,-0.03092566,-0.07766797,0.05120379
1761620201740,-0.05844367,-0.12429244,0.27303287,0.00981563,-0.02382194,-0.01791123,0.99517980,-0.03087412,-0.07779303,0.05110976
1761620201752,-0.03347931,-0.00765925,0.21741301,-0.01211017,-0.01377015,-0.00583303,0.99517310,-0.03094436,-0.07787290,0.05107592
1761620201765,-0.01441692,-0.04132184,-0.11601941,0.00525440,-0.01721946,0.00444648,0.99516427,-0.03091152,-0.07798052,0.05110371
1761620201775,0.30087856,0.14022016,-0.50341978,0.00998326,-0.01899499,0.01739956,0.99515369,-0.03086061,-0.07807740,0.05119245
1761620201784,0.08158299,0.25712716,-0.13067190,0.02223175,-0.01074058,0.01213487,0.99514991,-0.03075278,-0.07812949,0.05125131
1761620201795,-0.18552864,0.01090217,-0.02780447,0.01990169,-0.01412254,0.00497726,0.99514582,-0.03064432,-0.07820646,0.05127843
1761620201806,-0.00694160,-0.14712736,-0.08872230,0.01955446,-0.00462730,0.00813185,0.99514482,-0.03053677,-0.07823191,0.05132316
1761620201818,-0.07555920,-0.01500955,0.08011880,-0.01320406,-0.00448489,-0.00120210,0.99514060,-0.03061665,-0.07825904,0.05131588
1761620201829,-0.00294613,-0.29616688,-0.06074645,-0.01514421,-0.00304170,-0.00266137,0.99513759,-0.03069692,-0.07827516,0.05130178
1761620201839,-0.48379705,-0.54450376,-0.12731501,-0.02970330,0.00593689,-0.01395015,0.99513901,-0.03085435,-0.07824370,0.05122784
1761620201851,0.02345341,0.02733261,0.06627201,-0.02701128,-0.00694218,-0.00587011,0.99513294,-0.03100561,-0.07828257,0.05119497
1761620201862,0.09883423,0.20224192,-0.06842370,-0.01373474,0.00760293,-0.00867505,0.99513639,-0.03108252,-0.07824000,0.05114639
1761620201873,0.45995931,0.51020797,0.08362897,-0.00660797,0.00764158,0.00015538,0.99513855,-0.03111953,-0.07819720,0.05114726
1761620201885,-0.05990135,0.01890165,-0.14431063,0.02095522,-0.01085800,-0.00070352,0.99513759,-0.03099694,-0.07826072,0.05114315
1761620201896,0.10579540,0.11632658,-0.04917583,0.01067184,0.00389843,-0.00670062,0.99514300,-0.03093825,-0.07823928,0.05110629
1761620201907,0.05593280,-0.12990472,-0.08099858,0.00443983,-0.00040491,0.01149388,0.99514036,-0.03091405,-0.07824149,0.05116893
1761620201919,-0.13604122,-0.16171235,0.06645194,0.00234987,-0.00838858,0.00304647,0.99513586,-0.03089983,-0.07829224,0.05118736
1761620201930,0.08496382,-0.14997133,-0.00592556,-0.00977874,-0.00780668,-0.01436442,0.99513484,-0.03095508,-0.07833635,0.05110621
1761620201941,0.05779496,0.32544593,-0.22360144,-0.03404080,0.00634892,-0.01107485,0.99513488,-0.03113380,-0.07830301,0.05104806
1761620201951,-0.04621034,-0.02574913,-0.05243783,-0.02349226,-0.00709951,0.02398940,0.99512135,-0.03125948,-0.07834100,0.05117641
1761620201962,0.02453076,0.13311585,-0.20209748,0.00324700,-0.01597165,-0.00261061,0.99511578,-0.03124178,-0.07842804,0.05116218
1761620201975,0.07442828,-0.20834685,0.14658046,0.03862017,-0.00291768,-0.00530798,0.99512354,-0.03100234,-0.07844613,0.05112927
1761620201985,0.14050723,0.29377925,-0.35297463,0.00198156,-0.00496790,0.00541360,0.99512038,-0.03099203,-0.07847197,0.05115742
1761620201996,-0.01003361,-0.23894005,-0.09485618,0.02247929,-0.00070252,-0.00710277,0.99512587,-0.03086952,-0.07847579,0.05111871
1761620202007,0.05918197,-0.21658432,0.04436032,0.01987700,-0.00341333,-0.00004964,0.99512782,-0.03075821,-0.07849491,0.05111843
1761620202018,-0.04372664,-0.13752022,-0.13034632,-0.02734068,-0.00808281,-0.03167645,0.99512857,-0.03090312,-0.07853775,0.05095055
1761620202029,-0.02623758,-0.35438090,0.13430317,-0.05974055,-0.00576594,-0.03335015,0.99512505,-0.03124364,-0.07857061,0.05076045
1761620202040,-0.19982027,0.50601386,-0.32997843,-0.07773326,-0.02413606,-0.02990442,0.99510928,-0.03167506,-0.07870457,0.05059448
1761620202077,-0.17840392,0.01623726,0.41970070,-0.00658086,-0.00258935,-0.00443053,0.99510583,-0.03179483,-0.07875169,0.05051385
1761620202086,3.46721911,-0.49075651,-5.20280999,-0.13573354,-0.06280673,0.01582995,0.99505754,-0.03243956,-0.07905003,0.05058904
1761620202097,-2.36341334,-0.08217681,3.40578825,-0.02921594,-0.01744911,-0.01055237,0.99504798,-0.03259441,-0.07914251,0.05053311
1761620202109,-0.20678040,0.37002716,0.33223201,-0.05209908,-0.00184390,-0.00312164,0.99503716,-0.03292524,-0.07915422,0.05051329
1761620202119,0.49767133,-0.50085233,-0.44497212,-0.03263072,-0.00831780,0.00099704,0.99502836,-0.03308513,-0.07919497,0.05051817
1761620202130,-0.17363660,0.04767668,0.40871756,-0.02402558,0.00295977,0.01011779,0.99502243,-0.03321727,-0.07917869,0.05057382
1761620202141,-0.04615848,0.15607405,-0.22239319,-0.03524265,0.00306019,0.00048640,0.99501724,-0.03340758,-0.07916217,0.05057645
1761620202153,-0.14570024,0.02058395,0.06107636,-0.03957902,0.00115415,-0.00862423,0.99501242,-0.03364505,-0.07915524,0.05052470
1761620202164,0.40308765,-0.37959060,-0.38673521,-0.02957444,0.00343883,-0.00057500,0.99500864,-0.03380475,-0.07913667,0.05052160
1761620202175,-0.01590921,0.17967821,-0.09235792,-0.01150260,0.00914004,0.00226392,0.99500988,-0.03386917,-0.07908549,0.05053427
1761620202185,-0.13110726,0.68548391,0.27963129,-0.04766356,-0.00519103,-0.01553179,0.99500342,-0.03411464,-0.07911222,0.05045429
1761620202187,45.68935210,-7.81296010,-60.60943574,-0.02047047,0.10103239,-0.05255012,0.99501191,-0.03413204,-0.07902635,0.05040962
1761620202197,-7.43396646,0.87682534,9.74390426,0.01257243,0.00909541,-0.01158264,0.99502079,-0.03406792,-0.07897996,0.05035055
1761620202207,-0.00064159,-0.28945647,0.37019540,-0.01877244,-0.00537016,-0.01092885,0.99501817,-0.03416272,-0.07900708,0.05029536
1761620202218,-0.18040111,0.38081140,0.16331129,-0.01958847,-0.01581707,-0.04735526,0.99502071,-0.03427143,-0.07909486,0.05003253
1761620202231,-0.01703773,0.03008829,0.07310733,-0.03607858,-0.01071697,-0.02993999,0.99501686,-0.03450414,-0.07916399,0.04983942
1761620202241,0.31474928,-0.39962609,-0.56341506,-0.05190778,-0.02157426,-0.02801510,0.99500603,-0.03476887,-0.07927402,0.04969654
1761620202252,0.27835969,-0.09262396,-0.23081337,-0.02270642,-0.03868114,0.00381573,0.99498507,-0.03488581,-0.07947323,0.04971620
1761620202263,-0.33870050,0.57708156,0.38634046,-0.02286472,-0.03710260,-0.01001079,0.99496659,-0.03501499,-0.07968286,0.04965963
1761620202274,0.26356035,-0.09323535,0.00068895,0.00008013,-0.04054139,0.00200847,0.99494901,-0.03501457,-0.07989570,0.04967018
1761620202285,-0.25421142,0.02852397,-0.03339358,-0.00002815,-0.06729409,0.00418234,0.99491778,-0.03501473,-0.08026918,0.04969339
1761620202296,0.04862180,0.00257021,0.44484318,-0.00371231,-0.02118247,-0.00916376,0.99490976,-0.03503626,-0.08039204,0.04964024
1761620202308,-0.11085820,-0.25387792,0.04603852,-0.02799769,-0.03781340,0.01209343,0.99488208,-0.03520285,-0.08061703,0.04971220
1761620202330,-0.27559138,0.08057064,0.29824295,-0.00849116,-0.01808183,-0.00454258,0.99486497,-0.03529710,-0.08081774,0.04966177
1761620202332,71.08722367,-26.23684148,-102.15747349,-0.30846236,-0.20993081,-0.13176147,0.99484994,-0.03551302,-0.08096469,0.04956954
1761620202341,-10.58171576,4.92002651,15.11926622,-0.05359590,-0.02400776,0.00172135,0.99483172,-0.03575956,-0.08107512,0.04957746
1761620202352,0.27600864,-0.18551949,-0.46045514,-0.00748211,0.00185556,0.00530666,0.99482958,-0.03580146,-0.08106473,0.04960718
1761620202363,0.02794082,-0.37747176,-0.15077375,0.00732635,-0.01014660,-0.01199835,0.99482977,-0.03576007,-0.08112206,0.04953939
1761620202375,-0.07675162,0.08770777,0.45681084,0.01349617,-0.00547746,-0.00046365,0.99483011,-0.03568517,-0.08115246,0.04953681
1761620202385,0.02356653,0.06202728,-0.10495609,-0.00405580,-0.01571407,-0.01780915,0.99482732,-0.03570605,-0.08123339,0.04944510
1761620202397,-0.05280543,-0.06551050,0.21697657,0.00061655,-0.00096016,-0.00579878,0.99482872,-0.03570232,-0.08123920,0.04941001
1761620202408,-0.00855759,-0.16667993,0.09174532,0.00072686,-0.00339250,-0.01203681,0.99483061,-0.03569836,-0.08125769,0.04934441
1761620202419,-0.03612099,0.08635173,0.01605377,-0.00813708,-0.01434663,-0.01353378,0.99482628,-0.03574271,-0.08133587,0.04927065
1761620202430,0.04013443,0.03593286,-0.03210754,0.00857336,-0.00500139,-0.00740851,0.99482773,-0.03569598,-0.08136313,0.04923028
1761620202441,-0.27356052,-0.22666144,-0.04855947,0.02635941,-0.00714613,0.00254086,0.99482907,-0.03554442,-0.08140422,0.04924489
1761620202452,0.04164921,0.13328057,-0.05176402,0.02373066,-0.01574376,-0.00871678,0.99482901,-0.03541153,-0.08149239,0.04919607
1761620202464,0.10366025,-0.06552306,0.00714676,0.01749300,-0.00367401,0.00273294,0.99483008,-0.03531094,-0.08151351,0.04921179
1761620202475,0.20031739,0.18242108,0.03064305,0.00007178,-0.01477140,-0.01083995,0.99482645,-0.03531055,-0.08159328,0.04915325
1761620202486,0.00070395,-0.06033930,0.15317898,-0.00913392,-0.00236360,-0.01269084,0.99482705,-0.03536170,-0.08160652,0.04908218
1761620202497,-0.02261145,-0.01471614,-0.09087582,-0.00737458,-0.01917709,-0.01314533,0.99482058,-0.03540189,-0.08171103,0.04901054
1761620202508,0.00517325,-0.05411841,0.05858451,0.00653443,-0.01145334,-0.00730599,0.99481861,-0.03536498,-0.08177574,0.04896926
1761620202519,0.01470412,-0.01400543,-0.09284195,0.00620431,-0.01551677,0.00087792,0.99481262,-0.03533116,-0.08186031,0.04897405
1761620202530,0.06621778,0.25937664,-0.02078619,-0.00206513,-0.01127163,0.01080175,0.99480441,-0.03534221,-0.08192061,0.04903184
1761620202541,-0.10165062,0.25111225,-0.28521101,0.01547150,-0.01090758,-0.00161343,0.99480293,-0.03525712,-0.08198060,0.04902296
1761620202552,-0.03317513,-0.02565187,0.10035476,0.01026305,-0.00778616,-0.01033085,0.99480422,-0.03519964,-0.08202421,0.04896511
1761620202563,0.03421185,-0.24548190,0.05321843,0.00300351,-0.01190918,-0.01308747,0.99480292,-0.03518282,-0.08209090,0.04889182
1761620202605,-0.19235555,-0.02525830,0.25087878,-0.00665937,-0.00599745,-0.00448422,0.99479208,-0.03532400,-0.08221804,0.04879675
1761620202633,0.43910293,-0.04434717,-0.34505439,-0.01448347,-0.02308588,-0.01520656,0.99476902,-0.03552243,-0.08253432,0.04858842
1761620202642,2.82175515,-0.88841246,-2.52439711,-0.07113424,-0.07793604,-0.01695033,0.99473293,-0.03583542,-0.08287724,0.04851384
1761620202664,-1.36239552,0.36090432,1.15250895,0.00760584,-0.01232712,-0.01157838,0.99473078,-0.03574947,-0.08301653,0.04838301
1761620202676,0.24482164,0.28206137,-0.33736188,0.04292187,-0.00562641,0.00341813,0.99473605,-0.03549838,-0.08304945,0.04840300
1761620202697,-0.28773383,-0.00568768,0.29946889,0.01976679,-0.00163040,-0.00171797,0.99474304,-0.03528588,-0.08306698,0.04838454
1761620202708,0.47374541,0.12098429,-0.65151164,0.06015685,0.01083003,-0.01604512,0.99476360,-0.03496104,-0.08300849,0.04829789
1761620202720,-0.16981380,-0.16406263,0.17649024,-0.01044717,0.00306987,-0.02343523,0.99476960,-0.03502215,-0.08299053,0.04816080
1761620202731,0.19002944,-0.21554714,0.02807459,-0.01796964,0.00704647,-0.01508787,0.99477323,-0.03511739,-0.08295319,0.04808083
1761620202742,-0.10973612,0.23025814,0.02079966,-0.03470252,-0.00194805,-0.02345787,0.99477178,-0.03531173,-0.08296410,0.04794947
1761620202753,0.07874316,-0.04174553,0.01654701,-0.03517408,0.00566973,-0.00637029,0.99476906,-0.03551398,-0.08293150,0.04791284
1761620202765,-0.10181396,0.09930370,-0.03948678,-0.04333076,0.00117453,0.00290818,0.99475965,-0.03576963,-0.08292457,0.04793000
1761620202777,0.82081201,-0.12041980,-0.91595102,0.00720629,0.00603225,0.02039221,0.99475831,-0.03572603,-0.08288807,0.04805337
1761620202787,-0.78093880,0.00329930,0.89714406,0.00182200,-0.00598689,0.01117304,0.99475354,-0.03571710,-0.08291741,0.04810812
1761620202799,-0.17598098,-0.03555831,0.32428583,-0.00284463,-0.01445953,0.01584974,0.99474129,-0.03573389,-0.08300272,0.04820163
1761620202809,0.36389760,0.02769932,-0.20513801,-0.00324239,-0.00798056,0.00290131,0.99473635,-0.03575123,-0.08304541,0.04821715
1761620202821,-0.14540924,-0.05466558,0.03026843,-0.00463831,-0.01290202,0.00530675,0.99472795,-0.03577721,-0.08311767,0.04824687
1761620202832,-0.10646187,-0.05601241,0.07588701,-0.00445874,0.00259457,0.00870765,0.99472588,-0.03580240,-0.08310301,0.04829607
1761620202843,-0.08588969,-0.26575041,0.28380941,0.00439081,0.01389953,0.00593640,0.99473170,-0.03577759,-0.08302447,0.04832961
1761620202854,0.08045959,-0.06859498,-0.16998609,0.00469990,0.00555327,0.01154245,0.99473208,-0.03575245,-0.08299476,0.04839136
1761620202865,0.01489405,0.06563666,-0.03315780,-0.00135929,0.01258167,-0.00263810,0.99473857,-0.03576026,-0.08292242,0.04837619
1761620202877,0.11565400,0.14206434,-0.24295907,-0.02667182,-0.00597693,-0.00454812,0.99473176,-0.03590696,-0.08295529,0.04835118
1761620202887,0.12656940,-0.02377281,-0.02605089,-0.01439970,-0.00332531,-0.02056395,0.99473285,-0.03598544,-0.08297342,0.04823910
1761620202898,0.11497021,-0.04445295,0.06522210,0.00670576,0.00087564,-0.01509722,0.99473861,-0.03594856,-0.08296860,0.04815607
1761620202910,-0.06737815,0.01241346,0.00587057,-0.01237882,-0.01505743,-0.03087647,0.99473740,-0.03601911,-0.08305443,0.04798007
1761620202921,0.05995046,-0.06320680,0.12943433,-0.04927299,-0.01892422,-0.04995205,0.99473173,-0.03630736,-0.08316513,0.04768785
1761620202932,0.03652280,0.14690436,-0.21942156,-0.02787462,-0.04559129,-0.01789224,0.99471043,-0.03645649,-0.08340905,0.04759213
1761620202943,0.02796726,0.40098999,0.13311192,-0.03524926,-0.02118269,-0.01900878,0.99469875,-0.03664684,-0.08352343,0.04748948
1761620202954,-0.17514680,0.05750311,-0.07677268,-0.03273400,-0.02838160,-0.02975619,0.99468678,-0.03682687,-0.08367953,0.04732582
1761620202966,0.00977059,-0.22724754,0.08077018,-0.01956336,-0.01624783,-0.01309797,0.99467788,-0.03694523,-0.08377783,0.04724658
1761620202977,0.12163683,-0.28025167,-0.10183846,-0.03724762,-0.04259066,-0.00575899,0.99465176,-0.03715196,-0.08401421,0.04721462
1761620202987,0.12139598,0.01939519,-0.07976987,-0.00425960,-0.02413064,-0.01453835,0.99464399,-0.03717389,-0.08413848,0.04713975
1761620202998,0.00898929,0.02570377,-0.06292507,-0.01864534,-0.03647347,-0.00812953,0.99462647,-0.03726992,-0.08432632,0.04709788
1761620203009,-0.22786186,0.03794481,0.12082906,-0.02370028,-0.03157957,-0.01023269,0.99460857,-0.03740738,-0.08450948,0.04703853
1761620203022,-0.02281248,0.06734092,0.12461248,-0.01509624,-0.00702476,0.00077638,0.99460124,-0.03749947,-0.08455233,0.04704326
1761620203032,0.08793780,-0.05258049,-0.25727372,-0.00050372,-0.01502587,0.00089463,0.99459414,-0.03750214,-0.08463197,0.04704801
1761620203043,-0.25038619,-0.65749583,-0.05941367,-0.00725995,-0.01230859,-0.00972390,0.99458957,-0.03754061,-0.08469721,0.04699647
1761620203054,-0.00121161,-0.01007295,0.01847698,0.00061426,-0.00896432,-0.00064649,0.99458570,-0.03753727,-0.08474606,0.04699295
1761620203066,-0.14342351,0.12755886,0.09394005,-0.00891470,-0.00479590,-0.00108742,0.99458161,-0.03758986,-0.08477436,0.04698653
1761620203077,0.21492270,0.45364417,-0.00059036,0.00311824,-0.00341576,-0.00920886,0.99458306,-0.03757256,-0.08479332,0.04693542
1761620203087,0.03226256,0.08377326,-0.05868046,-0.01639796,-0.00618251,-0.01116061,0.99457980,-0.03765864,-0.08482577,0.04687683
1761620203132,-0.21223701,0.01966096,0.22304537,-0.00416954,-0.00022568,-0.00392725,0.99457997,-0.03775308,-0.08483088,0.04678788
1761620203135,95.47682580,-6.86184567,-89.13043667,-0.21601235,-0.10313637,-0.23995237,0.99457362,-0.03799070,-0.08494434,0.04652393
1761620203154,-10.23734768,0.95766027,9.67495029,0.00164834,-0.00793307,-0.00483623,0.99456981,-0.03797454,-0.08502208,0.04647653
1761620203167,-0.02059549,0.12316735,-0.25572737,0.02654929,-0.00871881,0.00459004,0.99457014,-0.03780728,-0.08507701,0.04650545
1761620203187,-0.26126694,-0.16232385,0.29292011,0.00970626,-0.00061978,0.00375899,0.99457157,-0.03770780,-0.08508336,0.04654398
1761620203198,0.42868931,-0.03113800,-0.56946038,0.02022215,-0.00689075,-0.01917559,0.99457725,-0.03760062,-0.08511988,0.04644235
1761620203209,-0.06961363,-0.14185544,0.21095466,-0.00313639,-0.00679216,-0.01024582,0.99457600,-0.03761834,-0.08515826,0.04638446
1761620203221,-0.07897726,0.02050717,0.20104955,-0.01769284,-0.00404152,-0.01473418,0.99457405,-0.03772273,-0.08518210,0.04629753
1761620203232,0.01492518,0.04423528,-0.09751119,-0.01876748,-0.01462257,-0.00891916,0.99456521,-0.03782970,-0.08526545,0.04624669
1761620203242,0.00787270,-0.28373948,-0.16081631,0.01538536,-0.00400942,-0.00005640,0.99456644,-0.03775200,-0.08528570,0.04624640
1761620203254,-0.07937543,0.14859689,0.12226733,0.00636922,0.00135033,0.00465394,0.99456727,-0.03771443,-0.08527773,0.04627386
1761620203256,28.69104936,-6.35713982,-38.25052312,0.16158018,-0.05668770,-0.02399236,0.99456917,-0.03758516,-0.08532308,0.04625467
1761620203266,-4.45408038,1.14802065,6.04378084,0.01026340,0.00350928,-0.01529810,0.99457610,-0.03753436,-0.08530571,0.04617894
1761620203277,-0.18975303,-0.02313916,0.21836844,0.00798641,0.00440902,-0.01533165,0.99458381,-0.03749003,-0.08528124,0.04609385
1761620203288,0.07236534,0.03438910,-0.08444306,-0.00092756,-0.00312647,-0.02310869,0.99458814,-0.03749527,-0.08529891,0.04596329
1761620203299,0.06393095,0.01659458,-0.00632206,0.00323746,0.00990361,-0.02696180,0.99460022,-0.03747763,-0.08524493,0.04581635
1761620203310,-0.19236961,-0.08179563,0.12559697,0.01114507,-0.00062200,-0.02747375,0.99460942,-0.03741466,-0.08524844,0.04566112
1761620203322,-0.10520272,0.03640138,0.01324775,0.01117219,0.00722745,-0.03802688,0.99462528,-0.03735098,-0.08520725,0.04544437
1761620203333,0.05907021,0.14566568,-0.03381260,0.02341929,0.01237266,-0.02197286,0.99464159,-0.03722100,-0.08513858,0.04532242
1761620203344,0.25155763,0.21370304,0.10836329,0.01288635,0.01450961,0.02281733,0.99464538,-0.03714948,-0.08505805,0.04544905
1761620203355,-0.03095124,0.04493896,-0.00444083,0.03371993,-0.00936580,-0.02110928,0.99465339,-0.03695897,-0.08511097,0.04532979
1761620203366,-0.11926674,-0.06327999,-0.07891921,0.03241130,0.01522357,-0.02014653,0.99467203,-0.03678232,-0.08502800,0.04521999
1761620203377,-0.19968385,-0.14917732,-0.25081201,0.01170382,-0.00659059,0.00775823,0.99466935,-0.03671737,-0.08506458,0.04526305
1761620203388,0.02889922,0.08103248,-0.01647327,0.01317409,-0.00551743,-0.00649689,0.99467105,-0.03664491,-0.08509492,0.04522731
1761620203399,0.06487580,-0.12027059,-0.19502060,0.06179465,0.00523723,-0.01411524,0.99468867,-0.03632049,-0.08506743,0.04515321
1761620203410,0.00618833,-0.02839122,0.08656543,0.03111166,0.00651668,-0.01196430,0.99470128,-0.03614471,-0.08503061,0.04508561
1761620203422,-0.18429907,-0.10610568,-0.01123152,-0.01895673,-0.01067669,-0.00961077,0.99469457,-0.03625371,-0.08509200,0.04503035
1761620203432,0.03185171,-0.11642921,0.16643940,-0.01090846,0.00576118,-0.01433584,0.99469858,-0.03631261,-0.08506089,0.04495293
1761620203443,-0.17831858,-0.32232601,-0.13366181,-0.02397270,-0.01445535,0.00150952,0.99468691,-0.03644087,-0.08513823,0.04496101
1761620203454,0.03854277,-0.16758143,0.16418397,-0.02430963,-0.01426810,0.02202605,0.99466918,-0.03657943,-0.08521955,0.04508656
1761620203466,0.04114546,0.14891199,-0.06966211,-0.03236068,-0.00873584,0.01852937,0.99465374,-0.03675903,-0.08526804,0.04518940
1761620203477,0.04786964,0.22217990,0.10538602,-0.05526839,0.00354598,0.03713408,0.99463327,-0.03708788,-0.08524694,0.04541034
1761620203489,-0.00539753,-0.08264348,-0.14711395,-0.03670911,-0.00770792,0.00784361,0.99461976,-0.03729529,-0.08529049,0.04545466
1761620203500,-0.04481201,0.00402608,0.08215536,-0.04932402,-0.01032120,0.00425207,0.99460317,-0.03757397,-0.08534880,0.04547868
1761620203511,0.07456139,-0.07239400,-0.07156219,-0.02176302,0.00371474,-0.00163454,0.99460081,-0.03769367,-0.08532837,0.04546970
1761620203523,-0.00740952,0.00925072,0.14296024,-0.00971087,0.00537231,0.00635682,0.99459964,-0.03775096,-0.08529668,0.04550720
1761620203544,-0.10040195,0.08667318,0.18242821,-0.00139466,-0.00081271,0.00203580,0.99459732,-0.03776595,-0.08530541,0.04552909
1761620203546,18.65763997,6.36732249,-40.43135532,-0.05777028,0.05464596,-0.00769828,0.99460016,-0.03782372,-0.08525077,0.04552139
1761620203556,-3.59228856,-1.12525423,7.67539078,0.00747561,0.00243128,0.00434427,0.99460164,-0.03778597,-0.08523849,0.04554333
1761620203567,0.28513937,0.01427888,-0.43004626,0.00570798,0.00784258,-0.00006246,0.99460614,-0.03775715,-0.08519888,0.04554301
1761620203578,0.01790919,-0.04940422,0.33055923,-0.02505930,0.01072428,-0.00311616,0.99460674,-0.03789497,-0.08513990,0.04552587
1761620203590,-0.12252473,-0.06268168,-0.01714106,0.00305924,-0.00068565,-0.01748146,0.99461205,-0.03787600,-0.08514415,0.04541749
1761620203601,0.24865008,-0.01692193,-0.04541063,0.00144011,0.00714449,-0.01648683,0.99461964,-0.03786830,-0.08510593,0.04532928
1761620203657,-0.12805234,0.01810181,0.13953745,-0.00065131,-0.00303446,-0.00563785,0.99461885,-0.03788657,-0.08519104,0.04517114
1761620203693,0.29228827,-0.14283895,-0.25508118,-0.01487312,-0.03450635,-0.02876231,0.99457849,-0.03815503,-0.08581388,0.04465198
1761620203712,0.24078374,0.48373484,-0.40662565,0.00332117,-0.05545191,0.00492182,0.99453078,-0.03812265,-0.08635454,0.04469997
1761620203734,-0.44582706,-0.09514450,0.35621713,0.00388483,-0.01285585,0.00145975,0.99451956,-0.03808050,-0.08649403,0.04471581
1761620203756,-0.08274298,0.01449020,0.01901320,0.01484493,0.00862202,0.00084572,0.99453369,-0.03791646,-0.08639875,0.04472515
1761620203778,-0.07471465,-0.03694813,0.04544462,0.00145879,0.02202943,-0.00732854,0.99455860,-0.03790063,-0.08615973,0.04464564
1761620203790,0.02566473,-0.19493046,0.01597691,-0.01673121,0.01644811,-0.00114421,0.99456375,-0.03800353,-0.08605858,0.04463860
1761620203811,-0.08045769,0.01515896,0.21842908,-0.01048826,0.00829702,-0.00027057,0.99456710,-0.03811051,-0.08597395,0.04463584
1761620203822,0.12187469,-0.03855214,-0.34241646,-0.01608229,-0.00021971,-0.00672024,0.99456516,-0.03820379,-0.08597522,0.04459686
1761620203834,0.04343418,0.07622215,0.05750046,-0.00266049,0.00683029,0.00133475,0.99456775,-0.03821988,-0.08593390,0.04460494
1761620203845,-0.01468845,-0.25051528,0.13542032,0.00650999,0.00660845,-0.00042696,0.99457237,-0.03818408,-0.08589755,0.04460259
1761620203857,-0.05936965,-0.20024353,0.04160714,0.00810199,-0.00179994,0.00163907,0.99457283,-0.03813871,-0.08590763,0.04461177
1761620203867,0.04862669,-0.09355394,0.07586046,-0.02078063,-0.00724109,0.01150730,0.99456216,-0.03825300,-0.08594746,0.04467506
1761620203878,0.14304471,0.12348486,-0.06497213,-0.03010239,0.00050702,-0.00032663,0.99455626,-0.03841405,-0.08594475,0.04467331
1761620203881,4.53750783,-3.95832953,-7.40715356,-0.31014947,-0.08127787,-0.04649280,0.99453418,-0.03881724,-0.08605041,0.04461287
1761620203892,-1.16934348,1.06965943,1.88194414,-0.05259003,-0.00871093,-0.00722954,0.99452024,-0.03911175,-0.08609919,0.04457238
1761620203902,0.09143949,0.02822868,-0.06098862,-0.01824897,-0.00681007,-0.01343025,0.99451674,-0.03920208,-0.08613290,0.04450590
1761620203912,-0.06657473,0.26167216,0.05049882,-0.01237157,-0.01445287,0.00226754,0.99450716,-0.03926641,-0.08620805,0.04451770
1761620203925,0.01126316,0.00201212,0.01074332,0.01100675,-0.01207468,-0.00756588,0.99450543,-0.03919707,-0.08628412,0.04447003
1761620203935,0.11677645,0.30323244,-0.07785096,0.00151949,-0.01242553,-0.01127199,0.99450273,-0.03918909,-0.08634936,0.04441085
1761620203947,0.05864683,0.23937111,0.13813481,0.00141201,-0.01276148,-0.00039667,0.99449688,-0.03918111,-0.08642146,0.04440861
