UnixTime(ms),Ax,Ay,Az,Gx,Gy,Gz,QuatW,QuatX,QuatY,QuatZ
1755649480800,0.00000000,0.00000000,0.00000000,0.00000000,0.00000000,0.00000000,0.15102922,0.05778969,0.98589639,0.04311425
1755649480834,0.08291027,-0.14426799,-0.23449993,-0.08795181,-0.00983839,0.09986990,0.15218700,0.05629451,0.98572913,0.04481204
1755649480855,-0.07047147,-0.18831429,0.55832804,0.05696176,0.00743852,-0.05903589,0.15164158,0.05688976,0.98580687,0.04419512
1755649480877,0.20400136,0.24967218,0.31142729,0.03135256,0.00402561,-0.00984374,0.15123909,0.05724875,0.98585296,0.04408241
1755649480910,-0.07930984,0.08641617,-0.27759219,0.03714801,-0.00815401,0.01114527,0.15182437,0.05785798,0.98571923,0.04426519
1755649480922,0.23443689,-0.67712263,0.55775599,0.12316268,-0.00041691,-0.00960389,0.15157799,0.05858464,0.98571677,0.04420853
1755649480955,-0.07873097,0.16128918,-0.16793506,-0.00720320,0.00075087,0.03199819,0.15139118,0.05846758,0.98572898,0.04472850
1755649480966,0.21241757,-0.06809913,0.12219186,0.05445626,-0.00307603,0.01760399,0.15135609,0.05877254,0.98571175,0.04482708
1755649480988,-0.19954499,0.18966272,-0.00157122,0.03165888,-0.00991478,0.03966927,0.15179817,0.05911920,0.98560318,0.04526146
1755649480999,-0.20928989,-0.25301760,0.35243533,-0.00214738,-0.00822628,-0.00433058,0.15211441,0.05910696,0.98555629,0.04523677
1755649481011,0.01109895,-0.10526324,0.02110977,-0.03662473,-0.00440252,0.05426771,0.15227880,0.05887989,0.98552900,0.04557323
1755649481034,0.05977877,0.02631799,-0.16955712,-0.02818170,-0.00168177,0.03478643,0.15240527,0.05856426,0.98551016,0.04596284
1755649481066,0.04815531,-0.04474429,-0.02968039,-0.00067728,-0.00173451,0.03944034,0.15239712,0.05855325,0.98548198,0.04660375
1755649481089,-0.51729071,-0.24153039,1.05435348,-0.02633831,-0.01488734,0.12198791,0.15318609,0.05824904,0.98531003,0.04801271
1755649481112,0.44396522,-0.11013545,-0.73581070,-0.10303936,-0.00339138,0.20271099,0.15313739,0.05711046,0.98527255,0.05025266
1755649481133,0.00676548,-0.35214457,-0.06241103,-0.19502487,-0.00064095,0.21373151,0.15317785,0.05505294,0.98526579,0.05250753
1755649481144,-0.15927697,-0.65326797,0.36101699,-0.24898774,-0.01315159,0.36455751,0.15343271,0.05365861,0.98519214,0.05454905
1755649481156,0.25043488,-1.21310098,-0.18029894,-0.27154728,-0.00537389,0.32711436,0.15349203,0.05196144,0.98515856,0.05659352
1755649481178,-0.18841842,1.24362650,-0.24051116,-0.06504614,-0.00094429,0.12270609,0.15330201,0.05126870,0.98514850,0.05790034
1755649481188,0.53450600,-0.15606072,1.68738182,-0.10963955,0.01809428,0.07410144,0.15271817,0.05067665,0.98524621,0.05830049
1755649481200,-0.05972491,0.35057809,-0.34275575,0.09377562,0.01888183,-0.01133942,0.15186778,0.05121117,0.98535383,0.05823585
1755649481211,1.19911029,1.05082894,-0.34679066,0.16997218,0.01165314,-0.02869352,0.15119274,0.05214602,0.98541793,0.05807804
1755649481222,-0.63052847,-0.16452852,-0.09063847,0.15150698,0.00868209,-0.06275936,0.15072328,0.05297930,0.98546568,0.05773286
1755649481234,-0.24896268,-0.24979684,0.86734399,0.08749015,0.01050141,-0.10215016,0.15036201,0.05349987,0.98552816,0.05712507
1755649481244,0.66453176,0.54088611,-0.03383718,0.04327171,0.02956657,-0.09583314,0.14945107,0.05372705,0.98568339,0.05662194
1755649481255,-0.07098901,0.18323623,-0.11217812,0.05704735,0.02869176,-0.03793261,0.14836224,0.05404366,0.98584263,0.05641142
1755649481267,-0.07845660,1.02402363,-0.48025741,0.03753423,0.02547700,0.03136960,0.14720753,0.05426511,0.98599294,0.05659650
1755649481277,0.59804715,0.24472312,0.43298119,0.06571715,0.02770219,-0.05218083,0.14626479,0.05459041,0.98613007,0.05633820
1755649481289,-0.59421482,-0.64623197,-0.02936828,0.09997673,0.01841187,-0.09899317,0.14553298,0.05518027,0.98623870,0.05575414
1755649481300,0.19940690,-0.03042156,0.50290180,0.13856804,0.01494597,-0.12019191,0.14490259,0.05598397,0.98632538,0.05505703
1755649481310,0.25716321,-0.75453314,0.36190296,0.13441528,0.02700288,-0.14221445,0.14398783,0.05665605,0.98646040,0.05434596
1755649481323,0.18696530,-0.07108511,-0.90337145,0.07495032,0.02000694,-0.03966032,0.14305151,0.05711699,0.98658344,0.05410205
1755649481333,0.94586391,-0.60228961,0.24634468,0.07469237,0.03003840,-0.02329670,0.14191693,0.05748672,0.98673213,0.05398673
1755649481344,-0.61412994,0.71052063,-0.66642602,0.05189224,0.02188147,0.05652773,0.14078260,0.05778769,0.98685904,0.05431459
1755649481355,-0.02493577,0.82096948,-0.19704015,0.03256579,0.00813432,0.15474883,0.14006257,0.05796680,0.98690378,0.05516571
1755649481367,-0.90912135,-0.83950734,-0.20681006,0.05479584,-0.00214345,0.14574405,0.13966903,0.05829558,0.98689092,0.05604017
1755649481378,0.03243790,-1.58499698,0.63956730,0.10061127,-0.00997390,0.12353577,0.13955577,0.05882379,0.98683856,0.05668873
1755649481389,-0.55358982,-0.48594778,-0.03283807,0.06029823,-0.00740578,0.12360938,0.13941851,0.05917352,0.98679560,0.05740567
1755649481424,0.00354368,0.39575980,-0.29058150,-0.00403255,-0.00145613,0.03841139,0.13935079,0.05910335,0.98677027,0.05807403
1755649481457,0.25100165,-0.85867449,0.64990481,-0.11429994,-0.00143710,0.29398997,0.13820647,0.05723455,0.98674677,0.06288076
1755649481467,-1.57813793,-9.65790074,5.03997512,-0.07432944,-0.01746553,0.78814965,0.13710723,0.05685547,0.98665770,0.06690033
1755649481500,0.11943947,3.20292784,-1.81195801,-0.06320407,-0.00554709,0.12548377,0.13716855,0.05580944,0.98656589,0.06897708
1755649481511,0.40388016,-2.52629566,2.15730739,-0.24407091,-0.00322235,0.31845003,0.13695012,0.05450366,0.98654865,0.07068079
1755649481524,0.00660061,0.62848173,-0.18081147,-0.20329215,0.00359936,0.27027625,0.13636840,0.05315177,0.98657259,0.07247813
1755649481545,-0.00959713,1.45186018,-1.17066524,-0.04513575,0.00333272,0.10514251,0.13571585,0.05268461,0.98660708,0.07356635
1755649481557,0.12514144,-0.83344883,0.24950395,-0.00067631,-0.00047440,0.16282482,0.13522127,0.05268069,0.98660433,0.07451074
1755649481567,0.32866651,-0.03023129,0.24693073,-0.00422898,-0.00420936,0.14690458,0.13495878,0.05265807,0.98658181,0.07529668
1755649481591,-0.27453496,0.75424287,-0.57244345,0.00946300,-0.00496099,0.08198059,0.13480050,0.05276926,0.98652352,0.07625995
1755649481601,0.16141015,-4.02717248,3.86763142,-0.02677976,-0.01203469,0.22696202,0.13463679,0.05262732,0.98645973,0.07746285
1755649481613,0.73755975,2.68145962,-2.16726541,-0.05639728,-0.00367798,0.12665015,0.13449831,0.05230586,0.98643877,0.07818475
1755649481623,0.03399586,0.48739954,-0.51746867,-0.02297101,-0.00457922,0.17002234,0.13419066,0.05218181,0.98641404,0.07910287
1755649481633,-0.30658863,0.48599861,-0.11514734,0.03266307,-0.00799550,0.15538172,0.13396049,0.05234513,0.98637406,0.07987978
1755649481645,-0.61560074,0.33941772,-0.35211431,0.06107958,-0.01496634,0.13932980,0.13397664,0.05270550,0.98628576,0.08070183
1755649481657,-0.19177593,-0.55349616,0.34245702,0.05834097,-0.02094063,0.12115001,0.13431736,0.05304971,0.98616221,0.08141661
1755649481668,-0.20003562,-0.68880478,0.12558871,0.03226687,-0.02508400,0.09513884,0.13491780,0.05322073,0.98602927,0.08192085
1755649481679,0.81703289,0.02452139,0.31260325,-0.05668844,-0.01989569,0.07619166,0.13558940,0.05290610,0.98591885,0.08234371
1755649481690,0.55059565,0.53735306,-0.35455991,-0.09505146,-0.00725511,0.07544552,0.13583617,0.05236906,0.98587786,0.08276998
1755649481711,-0.24467751,0.40155621,-0.43253020,-0.06580013,0.00511454,0.02481131,0.13554625,0.05166500,0.98593258,0.08303546
1755649481723,1.53409771,2.51855434,2.54894267,-0.06541719,-0.00113220,0.22031097,0.13496887,0.05129867,0.98592624,0.08426920
1755649481735,-1.54767516,-1.62299121,-1.10193461,0.07252883,0.00791638,-0.04598963,0.13463022,0.05173021,0.98597334,0.08399556
1755649481746,0.14634898,-0.18500950,0.33061860,0.09975975,0.01260271,-0.13250660,0.13436062,0.05228388,0.98604329,0.08326015
1755649481757,-0.30849275,-0.88345913,-0.30945091,0.14703885,0.01991880,-0.19192434,0.13389296,0.05308524,0.98615185,0.08221416
1755649481767,0.57160371,1.56866807,-0.68792849,0.07511192,0.00644329,-0.04463648,0.13363534,0.05347207,0.98618503,0.08198429
1755649481779,0.17988342,0.54544177,-0.31548082,-0.02115609,0.00087256,-0.00312446,0.13365834,0.05334830,0.98619013,0.08196601
1755649481790,0.28012779,-0.20845917,0.43773623,-0.06166043,-0.00321376,-0.00498850,0.13394533,0.05300301,0.98617214,0.08193807
1755649481845,-0.20893461,-0.13899361,-0.28675230,-0.00197931,-0.00158486,0.00572237,0.13419428,0.05294788,0.98612800,0.08209744
1755649481856,5.98650508,10.06327009,8.10791493,0.50263673,-0.00526721,-0.33341016,0.13439414,0.05566212,0.98609955,0.08029703
1755649481901,-1.35810304,-2.22340941,-1.76448983,0.07881430,0.00915611,-0.11074681,0.13361250,0.05740786,0.98630236,0.07784398
1755649481911,2.65276802,3.23143538,1.62962092,0.05900649,0.03749734,-0.21501092,0.13263926,0.05772944,0.98650672,0.07667217
1755649481934,-1.14967588,-0.74018982,-0.58163254,0.04007695,0.01671423,-0.13815553,0.13191825,0.05818832,0.98669810,0.07509029
1755649481957,-0.05785420,-0.24557224,-0.18310934,0.10785504,0.02060834,-0.19418009,0.13085470,0.05941248,0.98693201,0.07288635
1755649481978,-0.08898074,-0.36405091,-0.43291134,0.07086637,0.01065679,-0.12013442,0.13035689,0.06017075,0.98704603,0.07160091
1755649481989,0.89572655,1.90127717,0.33843582,0.07293371,0.02277962,-0.23479905,0.12994059,0.06055730,0.98716677,0.07035648
1755649482001,-0.85094947,-0.53181366,0.25148878,0.06877282,0.01766268,-0.20472986,0.12961575,0.06095274,0.98726833,0.06917928
1755649482013,-0.23457902,0.03918147,-0.00696685,0.07902559,0.01065485,-0.17453159,0.12945820,0.06143085,0.98733279,0.06812336
1755649482023,-0.03294511,0.07858946,0.26042796,0.03385369,0.02035379,-0.25936981,0.12927737,0.06160011,0.98743456,0.06682651
1755649482034,0.40166094,0.20006429,-0.66261436,0.02162503,0.01136213,-0.13498291,0.12911781,0.06172446,0.98749989,0.06605036
1755649482045,-0.13454547,0.43267912,-0.50254315,0.04797586,0.01303252,-0.17080616,0.12891835,0.06199072,0.98757222,0.06510239
1755649482056,-0.31660595,-1.01069641,-0.32707444,0.05478271,0.00944436,-0.23562706,0.12902040,0.06228381,0.98762275,0.06384178
1755649482057,25.90270552,114.52806578,-3.33736495,0.17066746,0.11008410,-1.97791613,0.12905202,0.06241181,0.98770531,0.06235835
1755649482069,-3.23387005,-16.46802658,1.15716509,0.03959213,0.02318979,-0.38495194,0.12897511,0.06263155,0.98783401,0.06022186
1755649482079,0.32744965,2.09608863,0.20452940,-0.03109863,0.03015918,-0.34706444,0.12867315,0.06246517,0.98799536,0.05836507
1755649482091,-0.91264828,-0.08854296,0.97030376,0.03760210,0.02690873,-0.38764021,0.12837125,0.06268138,0.98815009,0.05613614
1755649482102,0.63191517,0.61159015,-0.88392049,0.02652453,0.03587547,-0.37666404,0.12768133,0.06282462,0.98834382,0.05410215
1755649482113,-0.24037729,-1.28931347,-0.59008539,0.12882457,0.02184345,-0.37189425,0.12724622,0.06353959,0.98846505,0.05203814
1755649482124,0.35244042,0.85045260,-0.92201053,0.03181843,0.01403092,-0.23716906,0.12708132,0.06371937,0.98854432,0.05069813
1755649482135,0.17924805,-0.70532241,0.57882183,0.07233025,-0.01103362,-0.08792629,0.12755700,0.06412803,0.98848198,0.05020135
1755649482146,-1.11046945,-2.32882274,-1.73824285,0.04543864,0.01274179,-0.25713174,0.12743671,0.06437794,0.98855206,0.04878712
1755649482157,0.38619869,0.57092383,-0.03152642,-0.06243243,0.00114288,-0.15312659,0.12787982,0.06403457,0.98855835,0.04794493
1755649482168,0.67959261,-1.10702508,0.41969663,-0.10445585,0.00607518,-0.13849065,0.12819363,0.06345484,0.98859207,0.04717631
1755649482179,-1.13781450,0.75612418,0.54375149,-0.10960858,0.02011486,-0.10197034,0.12783887,0.06284651,0.98870370,0.04661037
1755649482192,0.59325019,1.46263379,0.62451874,-0.09322681,0.01143300,-0.03684960,0.12765198,0.06225452,0.98877630,0.04637637
1755649482213,-0.27939956,-1.12392364,-0.07940096,0.02549721,-0.00269878,0.01693741,0.12767556,0.06251841,0.98874837,0.04655168
1755649482225,-0.31604122,0.49363657,-0.64237291,0.05677922,-0.01826783,-0.02907319,0.12844921,0.06287328,0.98863420,0.04636997
1755649482260,0.02410126,-0.26370167,0.23594876,0.01085719,-0.00935426,-0.00233426,0.12960855,0.06306057,0.98847284,0.04632970
1755649482280,-0.78591748,-0.32903492,-0.41821729,-0.21095784,-0.00043434,0.05435323,0.13045273,0.06095099,0.98846849,0.04687324
1755649482292,1.05247203,0.73354111,0.18193237,-0.01715315,-0.00060460,-0.03909535,0.13060693,0.06085150,0.98846499,0.04664648
1755649482302,-0.33157101,0.45745588,1.32988511,0.11175316,0.00025109,-0.13255369,0.13056701,0.06146615,0.98846637,0.04591744
1755649482313,-0.87857202,-0.31098439,0.39569189,0.08670168,-0.00262755,-0.12126491,0.13068177,0.06193434,0.98845218,0.04526261
1755649482335,0.64848352,-0.30453599,-0.28357594,-0.00236211,-0.00779449,0.02540590,0.13124682,0.06190823,0.98836605,0.04554334
1755649482347,-0.31237777,-0.37933437,-0.38490329,-0.07607016,-0.01088333,0.09219939,0.13175468,0.06145562,0.98830129,0.04609193
1755649482357,-0.02618977,-0.46364079,-0.65179792,-0.10797164,-0.00953306,0.10256760,0.13219030,0.06090496,0.98825267,0.04661502
1755649482369,0.11777836,0.41970290,0.16280138,-0.07304802,-0.01018390,0.11257463,0.13260083,0.06047398,0.98819259,0.04727921
1755649482380,-0.47912797,0.06688256,0.49881063,-0.05879487,-0.01282254,0.00348992,0.13323486,0.06016531,0.98812527,0.04729754
1755649482403,0.38937230,0.07778709,0.16613081,-0.00258355,-0.00102681,-0.02167098,0.13342805,0.06013495,0.98811321,0.04704290
1755649482413,-1.91468791,0.02779212,1.32970434,0.21373592,-0.01381946,-0.01943237,0.13348467,0.06113951,0.98804826,0.04695157
1755649482424,1.06908427,0.11248826,-0.77630601,0.04717737,-0.01318056,-0.04100017,0.13397136,0.06139427,0.98797708,0.04673017
1755649482447,0.31480867,-0.05918084,-0.14325318,-0.01648780,-0.00240573,0.01033968,0.13422470,0.06120136,0.98794893,0.04685114
1755649482458,-1.04266127,-0.78515976,0.15650691,-0.14064227,-0.00283590,0.17224470,0.13435932,0.06040673,0.98793291,0.04782433
1755649482468,0.33248074,0.01926336,-0.38901262,-0.06427717,-0.00535852,0.07083066,0.13458226,0.06007249,0.98790505,0.04819265
1755649482480,0.02052731,0.11337778,0.23949610,0.01010964,-0.00156513,0.02545389,0.13456944,0.06013264,0.98789573,0.04834410
1755649482492,0.22897343,0.16667918,0.45457959,0.01666654,0.00001874,0.01349758,0.13449538,0.06023181,0.98789584,0.04842441
1755649482506,0.04583269,0.18835694,-0.21192077,-0.00287991,-0.00142555,0.01024668,0.13455225,0.06021150,0.98788579,0.04849665
1755649482518,-0.22266878,-0.01819751,0.04064589,-0.02325605,-0.00993092,0.02618284,0.13499096,0.06007313,0.98782671,0.04865243
1755649482556,0.22020392,0.06818755,-0.12490133,-0.01172386,-0.00198981,0.00906313,0.13529744,0.05985507,0.98778970,0.04882101
1755649482566,-4.68105460,-1.09069208,2.29530293,-0.07906675,-0.02812735,0.15505301,0.13624068,0.05944787,0.98764484,0.04961953
1755649482609,1.02022679,0.25379828,-0.47161749,-0.00758512,0.00021672,0.01277590,0.13617705,0.05928327,0.98764954,0.04989677
1755649482638,-0.01025685,-0.04779928,0.20427475,0.00504090,0.00092789,0.03658474,0.13585634,0.05935536,0.98766281,0.05041993
1755649482648,-1.46273774,0.72898305,4.01827174,0.04305289,0.00168220,-0.04660870,0.13578793,0.05956847,0.98767114,0.05018922
1755649482670,0.64774051,-0.26591818,-1.53987881,0.06200851,0.00685488,-0.03103204,0.13504905,0.06026297,0.98774791,0.04984166
1755649482703,0.13337850,0.06355701,-0.20793496,-0.03599719,0.00169307,0.00754299,0.13506239,0.05967261,0.98777568,0.04996536
1755649482713,-0.52679188,0.68361979,0.75301790,-0.06700900,-0.00636720,0.11328505,0.13523703,0.05932752,0.98774289,0.05054878
1755649482725,-0.55669550,-0.18091515,0.52055290,0.01414041,-0.00906883,-0.03123628,0.13567358,0.05941377,0.98768757,0.05035824
1755649482747,0.36404285,-0.21355349,-0.62007750,0.02377845,-0.00058081,-0.01729611,0.13567574,0.05967058,0.98768130,0.05017144
1755649482758,-0.68680249,-0.17936583,0.38939248,0.03805834,-0.00446985,0.00749408,0.13574592,0.05987610,0.98765716,0.05021191
1755649482769,0.30692112,-0.32872590,-0.48783563,-0.03135957,-0.00241873,0.03331356,0.13585264,0.05970048,0.98764361,0.05039847
1755649482780,0.28129743,-0.06509755,-0.14445003,-0.10999408,-0.00244583,0.06855270,0.13607836,0.05908451,0.98762992,0.05078236
1755649482792,0.14930939,0.15091098,0.14631548,-0.09264856,0.00176184,0.05404374,0.13611877,0.05855179,0.98764005,0.05109311
1755649482803,0.04249214,0.08710460,0.49508479,-0.05590507,0.01038320,-0.01026366,0.13585724,0.05824431,0.98769715,0.05103666
1755649482815,-0.02344941,0.34795499,0.20795064,0.00597292,0.00930798,-0.00186393,0.13543591,0.05828044,0.98775347,0.05102539
1755649482825,-0.15820050,0.26662177,0.60808091,0.05275444,0.01227275,-0.07046686,0.13498896,0.05855477,0.98781729,0.05065896
1755649482836,-0.18885060,0.09358878,0.05667966,0.10495605,0.00705925,-0.10182988,0.13467382,0.05911103,0.98785470,0.05011926
1755649482849,-0.24233057,-0.09893930,-0.28044012,0.05443531,0.00278724,-0.05463473,0.13451919,0.05945942,0.98787254,0.04976960
1755649482859,0.53255601,-1.24991515,-0.34820060,-0.00281454,0.00103531,-0.02085056,0.13452626,0.05944464,0.98787797,0.04966013
1755649482869,-0.22889860,0.95011578,-0.70221323,-0.07245456,-0.00058243,0.09970864,0.13452217,0.05907513,0.98787500,0.05016865
1755649482880,0.41114305,0.25996660,0.70305235,-0.07375095,-0.00685269,0.11227818,0.13474656,0.05866581,0.98783697,0.05079179
1755649482891,-0.21014532,-0.57601946,-0.39481793,-0.04951765,-0.00142749,0.09093332,0.13473310,0.05839594,0.98782919,0.05128738
1755649482904,-0.07760984,0.06407991,0.01504881,-0.01232107,-0.00230553,0.06187099,0.13472435,0.05831893,0.98781478,0.05167407
1755649482914,-0.20784034,-0.18013652,0.58282056,0.04046386,-0.00198596,0.00987719,0.13468910,0.05852934,0.98780445,0.05172543
1755649482925,-0.08594171,-0.15496135,-0.13989164,0.04761341,0.00698393,0.00038530,0.13429556,0.05878883,0.98784252,0.05172753
1755649482936,0.15398595,-0.07107044,0.15744394,0.03871439,-0.00321882,0.03815262,0.13425261,0.05899596,0.98782530,0.05193165
1755649482960,0.08875007,0.10527748,-0.45930168,-0.01326739,0.00089279,0.01384988,0.13417709,0.05883210,0.98783632,0.05210269
1755649482971,-1.27290769,-0.07026970,2.82416652,-0.06706268,-0.00992964,0.13743193,0.13442521,0.05849009,0.98778568,0.05280360
1755649482993,0.52846162,0.32740740,-1.12274547,0.00268225,-0.00531377,0.03425131,0.13469915,0.05852026,0.98772590,0.05318892
1755649483003,-1.70988370,-1.53918854,3.87915579,-0.01086437,0.00040119,-0.03591721,0.13477403,0.05846920,0.98772779,0.05302011
1755649483015,0.85771507,0.91620124,-2.62894529,0.03849125,0.00277852,0.00670958,0.13453541,0.05870015,0.98774446,0.05306037
1755649483027,-0.10927518,0.37004550,0.11920929,0.00690128,0.00023465,0.00838247,0.13448714,0.05874155,0.98774587,0.05311067
1755649483036,0.14623778,-0.66060264,0.73821824,0.01607115,-0.00205661,-0.03690774,0.13459234,0.05881628,0.98773630,0.05293904
1755649483048,0.17080770,0.20249101,-0.74916463,-0.00341926,-0.00025581,0.00479922,0.13460146,0.05879526,0.98773473,0.05296856
1755649483059,-0.04764207,-0.20283521,-0.11548475,-0.01820232,-0.00135016,0.03182631,0.13463065,0.05869514,0.98772730,0.05314360
1755649483081,0.27317903,0.04835927,-0.25036456,-0.02008078,-0.00114471,0.02669652,0.13470322,0.05847325,0.98771465,0.05343860
1755649483093,-1.40544096,-0.65240590,1.92309185,-0.03647134,-0.00094399,0.05843021,0.13470006,0.05825625,0.98770904,0.05378626
1755649483105,0.67785983,0.37861562,-1.21117534,-0.03129165,0.00050548,0.07641255,0.13458128,0.05807788,0.98771192,0.05422181
1755649483127,0.35705528,0.08360266,-0.45817777,-0.00529336,-0.00045050,0.04108977,0.13446040,0.05801992,0.98770699,0.05467174
1755649483138,-1.70239069,-0.21498029,2.57910493,-0.04612212,-0.00537193,0.11789611,0.13452411,0.05775472,0.98767610,0.05534965
1755649483147,1.05335522,0.38184537,-0.69453307,-0.00300765,0.00218619,-0.00206153,0.13445871,0.05774058,0.98768637,0.05533996
1755649483170,0.39061448,0.15658411,-0.88351848,0.02209331,0.00062784,-0.00029517,0.13429833,0.05799355,0.98769356,0.05533658
1755649483172,-167.80661142,-6.28481625,193.00871380,0.34173464,-0.01308704,-0.04462492,0.13427673,0.05821568,0.98768505,0.05530757
1755649483192,10.82789398,0.39140398,-12.50409126,-0.00213840,-0.00230445,0.01968144,0.13437474,0.05819419,0.98766189,0.05550537
1755649483203,-0.31937821,-0.19499892,0.40597673,-0.02822589,-0.00374734,0.04859659,0.13448168,0.05804036,0.98764147,0.05577022
1755649483214,0.28157601,0.20800001,0.02057933,-0.06001969,-0.00432916,0.04723832,0.13470179,0.05769224,0.98761636,0.05604420
1755649483225,0.03276997,0.05641350,0.34519887,-0.03963283,-0.00333905,0.02526595,0.13487471,0.05747030,0.98759766,0.05618569
1755649483237,-0.23717323,0.22016674,0.07777105,-0.00885647,0.00269521,-0.00225737,0.13478754,0.05741893,0.98761330,0.05617260
1755649483249,-0.15106694,-0.01949711,-0.05566526,0.03673362,-0.00088009,-0.02007419,0.13478231,0.05763933,0.98760802,0.05605216
1755649483259,-0.20876521,0.05064447,0.51503821,0.01400108,-0.00149420,-0.03589138,0.13488355,0.05771074,0.98760040,0.05586911
1755649483271,0.41786163,0.05446272,-0.47345507,0.08385550,-0.00054164,-0.09712297,0.13493200,0.05822226,0.98759709,0.05527666
1755649483283,-0.24883764,-0.34630958,-0.69851378,0.10620244,-0.00831478,-0.00366926,0.13502485,0.05882761,0.98754970,0.05525574
1755649483292,0.03077177,-0.74257317,0.59419470,0.05122123,-0.00347356,-0.01917394,0.13507708,0.05907347,0.98753302,0.05516371
1755649483303,0.51780509,0.59878654,-0.01165821,-0.04276368,-0.00150623,0.06871687,0.13508542,0.05883827,0.98752474,0.05554165
1755649483305,-16.93991098,-12.67318360,67.94252182,-0.04333452,0.00521319,0.11758839,0.13503131,0.05880360,0.98752891,0.05563572
1755649483315,1.84841978,2.53363667,-10.16657910,-0.05009615,0.00612050,0.05320496,0.13479500,0.05854060,0.98756104,0.05591505
1755649483327,0.74556490,-0.60672181,-0.11277239,-0.05226658,0.01100573,0.02851525,0.13440334,0.05824791,0.98762267,0.05607473
1755649483349,0.14953940,0.08795116,-0.33852201,0.02301270,0.00081290,-0.01817597,0.13431092,0.05850105,0.98763162,0.05587480
1755649483361,-0.48901744,0.17157510,0.83187300,0.05593463,0.00220533,-0.04042707,0.13416884,0.05883386,0.98764474,0.05563426
1755649483381,0.11258791,-0.25290088,-0.41178303,0.01815465,0.00134534,-0.01229209,0.13403772,0.05901994,0.98765853,0.05550826
1755649483393,-0.77519840,0.49988865,1.77046873,-0.11452934,0.01127898,0.01520538,0.13381175,0.05836140,0.98772338,0.05559570
1755649483395,-3.76805015,6.25460044,23.51532812,-0.42054554,0.02895446,0.36317968,0.13362927,0.05794085,0.98775234,0.05595887
1755649483416,0.97739331,-0.69066732,-3.33075899,-0.00929241,0.00255948,0.00012742,0.13346925,0.05784142,0.98777972,0.05596024
1755649483426,-0.43892124,0.35643185,0.89267061,-0.01138350,0.00180473,-0.04739429,0.13352795,0.05778280,0.98778902,0.05571616
1755649483449,0.20528979,-0.17587990,-0.41635645,0.01376089,0.00369135,-0.01938775,0.13324166,0.05793899,0.98783091,0.05549611
1755649483470,0.02850254,0.00891978,0.24160028,0.03439569,0.00618729,-0.02284239,0.13269330,0.05830530,0.98789681,0.05525284
1755649483472,-8.07580232,26.58500853,61.41631085,-0.38820926,0.16590060,-0.46020082,0.13190413,0.05795591,0.98804612,0.05483865
1755649483493,0.85257959,-2.00271092,-5.60569242,0.01712136,0.00367048,-0.03196034,0.13167740,0.05813397,0.98808429,0.05450627
1755649483504,0.00474667,0.53760358,0.23962956,0.10473059,0.00588155,-0.13367915,0.13148306,0.05870476,0.98811635,0.05377772
1755649483515,-0.05064343,-0.26395530,0.09649045,0.03384793,0.00805896,-0.10363125,0.13128999,0.05889938,0.98816269,0.05318184
1755649483526,0.07821002,-0.37391644,-0.05125381,0.00061848,0.01917479,-0.09008587,0.13068762,0.05890281,0.98826911,0.05268186
1755649483538,0.27283848,0.05421267,-0.35538232,-0.01779182,0.01408792,-0.03785024,0.13022868,0.05880496,0.98834659,0.05247368
1755649483549,0.15243472,0.14161920,-0.04402929,-0.02616952,0.01011828,-0.02413555,0.12991320,0.05865579,0.98840426,0.05233611
1755649483560,0.26070690,0.01215213,-0.10302599,0.02032242,0.00688231,-0.02670900,0.12964113,0.05876452,0.98844108,0.05219322
1755649483572,-0.07804928,-0.13359595,-0.09148044,0.03097764,0.01036348,-0.04694422,0.12919496,0.05895038,0.98850327,0.05191155
1755649483582,0.03842823,0.11318955,0.20726718,0.02880430,0.01375051,-0.09187081,0.12875338,0.05910593,0.98857752,0.05141545
1755649483594,-0.13392649,0.07239021,-0.15839382,-0.01749358,0.01925181,-0.12541359,0.12821172,0.05900097,0.98869303,0.05066297
1755649483606,-0.00897731,0.11525809,0.01246193,-0.05869732,0.02010795,-0.08385807,0.12765861,0.05866052,0.98880965,0.05017659
1755649483616,0.63628151,0.35527065,-0.18672529,-0.03706023,0.02035442,-0.04076065,0.12705249,0.05848078,0.98890837,0.04997890
1755649483627,0.02057414,-0.25343907,-0.19698266,-0.00251872,0.01881976,-0.06022181,0.12636901,0.05846667,0.98901376,0.04964166
1755649483628,52.52659317,46.21688273,-16.21831739,0.54801202,0.10751755,-0.60692171,0.12568013,0.05890508,0.98909978,0.04915612
1755649483639,-8.22960121,-7.27667772,2.30331840,0.05882794,0.02136208,-0.18352084,0.12504897,0.05920216,0.98920766,0.04822934
1755649483650,-0.34371240,-0.48628887,-0.20429238,0.04734273,0.01858328,-0.15534124,0.12443643,0.05946492,0.98931079,0.04736720
1755649483661,0.05671153,0.13125672,-0.08801247,0.00835325,0.02140496,-0.13589029,0.12374645,0.05951169,0.98943066,0.04660621
1755649483672,0.23419629,0.00416951,-0.24081121,0.05102799,0.01487662,-0.12218477,0.12320702,0.05979235,0.98951248,0.04593420
1755649483694,-0.23743338,-0.02672357,0.23102957,0.02381290,0.00774463,-0.05112115,0.12260228,0.06005429,0.98959767,0.04537186
1755649483706,0.38050642,1.09120902,-0.90174603,0.05948284,0.00862215,-0.09077872,0.12220909,0.06041119,0.98964941,0.04482719
1755649483717,-0.21390894,-1.15542476,0.87187157,0.01236629,0.01541285,-0.14720162,0.12176685,0.06048168,0.98973726,0.04398814
1755649483740,-0.10809915,-0.07265778,-0.00416018,-0.01287224,0.00842822,-0.04503796,0.12124653,0.06033622,0.98983250,0.04347921
1755649483751,2.27284448,2.69441727,-2.60101481,-0.05691177,0.03226019,-0.14748875,0.12025572,0.06002890,0.99000670,0.04268277
1755649483772,-1.28071393,-1.26278194,1.34896329,0.01050843,0.00458224,-0.03549489,0.11992506,0.06014291,0.99005642,0.04229765
1755649483783,0.92598025,1.10375702,-1.27198526,0.00469281,0.02195087,-0.24993668,0.11942565,0.06016708,0.99016947,0.04101048
1755649483794,0.33370393,-0.85968344,-0.06565575,-0.02177713,0.01414725,-0.10500839,0.11902998,0.06004513,0.99024869,0.04042243
1755649483804,0.10196520,0.34413719,-0.12290116,-0.07265891,0.01619500,-0.08958763,0.11866584,0.05965640,0.99033534,0.03994314
1755649483817,-0.42223167,0.07460703,0.21437198,-0.00850428,0.00699647,-0.02270739,0.11837260,0.05960283,0.99037941,0.03980008
1755649483829,0.03929942,0.05017271,0.04875381,0.00584174,0.00214164,-0.05935994,0.11836703,0.05963583,0.99039151,0.03946470
1755649483838,-0.76689246,-0.61834384,-0.53092386,0.10078602,0.00048917,-0.13141032,0.11831005,0.06012968,0.99039391,0.03882079
1755649483843,2.52221237,-0.38602758,-1.03768186,0.12255706,-0.00052741,-0.29509144,0.11840286,0.06042995,0.99039262,0.03809782
1755649483859,-0.73353428,-0.27245489,0.91508204,0.01542034,0.00037930,-0.03282753,0.11839875,0.06055100,0.99039560,0.03784012
1755649483882,-0.03358917,-0.14086375,0.21927507,-0.00346892,0.00221019,-0.02734783,0.11830538,0.06051058,0.99042135,0.03752152
1755649483884,107.12602931,15.82114387,-127.78410922,-0.19810758,0.09237282,-0.13525902,0.11773761,0.06033229,0.99050448,0.03739978
1755649483906,-8.89981562,-1.19181184,10.47322698,-0.00231167,0.00548329,-0.01320734,0.11729658,0.06030732,0.99056370,0.03725714
1755649483917,0.28566191,0.16753951,-0.53901262,0.02302420,0.00831876,-0.04318747,0.11691274,0.06043626,0.99061029,0.03701529
1755649483970,-0.14360830,-0.06342940,0.27697229,0.00253496,0.00197814,-0.01524816,0.11656052,0.06050343,0.99066271,0.03661122
1755649484004,0.40899573,0.14917198,-0.79447142,0.03753107,0.01217067,-0.07401087,0.11484981,0.06113959,0.99086900,0.03535673
1755649484017,1.29054304,-0.51581459,-0.69286387,-0.04832812,0.01715522,-0.11093762,0.11424148,0.06080854,0.99098651,0.03459681
1755649484073,-0.48658776,0.17007162,0.52895849,0.02259697,0.00853336,-0.06853443,0.11240022,0.06143447,0.99122289,0.03269841
1755649484095,0.58826760,-0.26438348,-0.57161976,0.06822968,0.01113031,-0.17837963,0.11144428,0.06219524,0.99134699,0.03070948
1755649484118,-0.09558543,0.37328333,-0.25394359,-0.01736752,0.01016939,-0.07106355,0.11072271,0.06199204,0.99146597,0.02987803
1755649484140,-0.43156845,-0.08010019,0.56600625,0.02829999,0.00634393,-0.08734752,0.11017685,0.06230333,0.99153575,0.02891721
1755649484174,-0.08390748,-0.15560540,0.14475691,0.01392420,0.00523833,-0.04266007,0.10944667,0.06253378,0.99162245,0.02821118
1755649484196,-0.16220181,-0.02814642,-0.08210851,0.02111903,0.00498241,-0.02585961,0.10886318,0.06277665,0.99167975,0.02791380
1755649484207,1.53132282,0.41271283,-1.60710293,0.06750401,0.00142996,-0.11893468,0.10874699,0.06313442,0.99168733,0.02728345
1755649484218,-0.73358239,-0.13021303,-0.11063266,0.01216883,0.00966369,-0.04735304,0.10827909,0.06320257,0.99174144,0.02701827
1755649484240,-0.33068771,-0.19558778,1.00076224,0.01829772,0.00031416,-0.01271507,0.10816347,0.06340567,0.99174493,0.02687713
1755649484252,0.03965698,-0.05422013,-0.55815999,0.04470853,0.00357778,-0.05857841,0.10791344,0.06365604,0.99176496,0.02654909
1755649484263,-0.07484531,-0.12380056,0.15198849,0.00124736,0.00112251,0.00394011,0.10784669,0.06366296,0.99177119,0.02657096
1755649484275,-0.11782373,-0.27032123,0.14765760,-0.01983341,0.00268913,-0.00151939,0.10777198,0.06354594,0.99178706,0.02656200
1755649484285,-0.04524358,-0.08212538,-0.22111093,0.00078055,0.00251595,0.05249427,0.10757772,0.06355008,0.99180039,0.02684021
1755649484296,-0.07852348,-0.19235757,0.10580706,-0.03237660,0.00087533,0.02530284,0.10760217,0.06338172,0.99180495,0.02697179
1755649484330,-0.00236581,0.12508020,0.27610541,-0.00703884,0.00053743,-0.00435716,0.10760693,0.06326171,0.99181411,0.02689750
1755649484341,-0.49132914,-0.91960544,-2.09682498,-0.09252948,0.01500634,0.00599064,0.10713489,0.06275280,0.99189664,0.02693045
1755649484353,-0.28269647,1.07322875,1.24987960,0.01290085,0.00443519,-0.03940408,0.10690400,0.06282956,0.99192303,0.02669599
1755649484385,0.20067638,-0.03380564,0.27412426,-0.00566029,0.00135110,-0.00190438,0.10676324,0.06273843,0.99194479,0.02666533
1755649484396,-0.24336067,-0.63637740,-1.31419329,-0.05981683,0.00924603,0.04055711,0.10642403,0.06240644,0.99199610,0.02689043
1755649484408,0.21291209,0.42553331,0.47016967,0.04041151,0.00507703,-0.04445721,0.10606408,0.06264891,0.99202656,0.02662368
1755649484442,0.05735315,0.08072646,0.33908275,0.01321799,0.00196230,-0.03030697,0.10574764,0.06287296,0.99205983,0.02610998
1755649484474,-0.03936670,0.03878477,-0.07358518,0.00140525,0.00110835,-0.01275846,0.10561843,0.06289537,0.99207750,0.02590648
1755649484485,-1.10563400,0.10540653,-2.30865241,-0.03117508,-0.00204111,0.02651587,0.10579761,0.06271612,0.99206577,0.02605895
1755649484519,0.38524943,-0.02436905,0.83943328,0.01113558,0.00247439,-0.03086174,0.10542363,0.06290264,0.99210721,0.02554201
1755649484542,-0.04832942,0.07959430,0.12589710,0.03357969,0.00599619,-0.04939288,0.10467374,0.06329048,0.99217647,0.02497153
1755649484552,-0.51830956,-0.62568159,-0.05870536,0.09403982,-0.00258907,-0.04983275,0.10456598,0.06377949,0.99216301,0.02471240
1755649484586,0.09355264,-0.00047963,-0.01549701,-0.01212943,-0.00020990,-0.01424775,0.10477771,0.06357753,0.99215951,0.02447517
1755649484607,-0.06359176,0.03550357,-0.01423705,-0.04124222,0.00515374,0.05834826,0.10436055,0.06312181,0.99221646,0.02511992
1755649484619,-0.51763643,0.75398303,0.02674814,0.03709554,-0.00327695,0.01403437,0.10439100,0.06333511,0.99219762,0.02520062
1755649484631,-0.65925878,-0.61620261,0.14339828,0.00550733,-0.00525932,0.00841501,0.10464498,0.06336650,0.99216764,0.02524858
1755649484652,0.59885433,-0.13516314,-0.09391895,-0.05744834,0.00067494,0.02182947,0.10489229,0.06274606,0.99217493,0.02548434
1755649484663,-0.19340740,-0.36402413,-0.20538839,-0.04974297,0.00250742,0.02762708,0.10488799,0.06246501,0.99218910,0.02564043
1755649484685,0.13946714,0.21446059,0.12452328,0.00102144,0.00161578,-0.01586830,0.10475681,0.06247614,0.99220671,0.02546747
1755649484709,0.03977378,0.15792219,0.10636205,0.00735325,0.00033436,-0.00913888,0.10469326,0.06256365,0.99221069,0.02535872
1755649484719,-1.54670642,0.48107837,0.90034589,0.15537868,0.00099773,-0.07062163,0.10424984,0.06336385,0.99221582,0.02499502
1755649484763,0.43115409,-0.14263085,-0.24816553,0.01524280,-0.00052278,0.00643247,0.10412261,0.06369462,0.99220448,0.02513460
1755649484775,-4.13030809,-0.85185530,1.70000489,0.02228610,-0.00582892,0.05332022,0.10430332,0.06383390,0.99216805,0.02546785
1755649484807,1.36234386,0.24871401,-0.55435662,-0.01738830,0.00008411,0.02852989,0.10434741,0.06355917,0.99216938,0.02591862
1755649484820,-1.20895101,-0.10587439,0.49612821,0.02527907,-0.00316559,0.00660621,0.10443083,0.06372095,0.99214912,0.02596090
1755649484842,0.73723236,0.17557950,-0.25824032,0.00546030,-0.00079016,-0.00876990,0.10450097,0.06378129,0.99214039,0.02586400
1755649491489,-0.02233631,0.00118916,0.05170271,-0.01657172,-0.30199894,0.01019788,0.99810776,0.00870351,-0.01158330,0.05975769
1755649491504,10.79787996,-0.64194470,-24.05994311,-0.01580460,-0.03075673,-0.00492028,0.99810828,0.00858656,-0.01181090,0.05972128
1755649491516,0.09095881,-0.35583683,-1.00119629,-0.08876927,-0.05816846,-0.03652098,0.99812184,0.00804506,-0.01216573,0.05949850
1755649491527,-0.21429570,0.14931216,0.68704100,-0.04877834,-0.02145222,-0.03024361,0.99813271,0.00776947,-0.01228693,0.05932762
1755649491538,-0.04986614,0.07649960,0.05308045,-0.04897485,-0.01557388,-0.01297165,0.99813790,0.00750255,-0.01237181,0.05925693
1755649491549,0.16976889,-0.06286994,0.24553367,-0.02810344,-0.03105276,0.00012878,0.99813686,0.00734518,-0.01254570,0.05925765
1755649491561,0.03290557,0.03084897,0.03537349,0.00099278,-0.04815664,-0.00185594,0.99813390,0.00735093,-0.01282501,0.05924688
1755649491572,0.10965125,-0.06106397,0.12781874,-0.00192781,-0.04377867,-0.02450733,0.99813872,0.00734062,-0.01305923,0.05911577
1755649491583,-0.23227938,0.18413349,-0.03680228,-0.02911159,-0.04870943,-0.03863393,0.99814899,0.00717905,-0.01332957,0.05890135
1755649491594,-0.07402794,-0.03445890,0.14921602,-0.03947562,-0.02485190,-0.02854370,0.99815779,0.00696588,-0.01346377,0.05874721
1755649491605,0.01500649,0.08892816,0.09887342,-0.04556868,-0.02603589,-0.00479192,0.99815915,0.00670842,-0.01361087,0.05872014
1755649491616,-0.00130146,0.04265263,-0.04459197,-0.02109207,-0.04404325,0.00408479,0.99815523,0.00659136,-0.01385531,0.05874281
1755649491627,0.03486253,0.00124570,-0.01191764,-0.01606007,-0.04645420,0.00733944,0.99814976,0.00650142,-0.01411545,0.05878391
1755649491638,0.06931657,-0.10381503,0.11071300,-0.03592958,-0.04096612,0.03006950,0.99813795,0.00630201,-0.01434281,0.05895080
1755649491649,0.31903663,-0.23400357,0.46997630,-0.05491614,-0.05066385,-0.00719819,0.99813811,0.00599448,-0.01462653,0.05891049
1755649491661,0.07161920,-0.08872378,0.08227205,-0.06039120,-0.08606815,-0.02926059,0.99814260,0.00565327,-0.01511282,0.05874516
1755649491672,0.06721802,-0.10316099,-0.00746867,-0.07207249,-0.09319955,-0.07295027,0.99816088,0.00524606,-0.01563939,0.05833300
1755649491683,-0.29772243,0.36861329,-0.18940266,-0.14552144,-0.07837980,-0.08648473,0.99818561,0.00444569,-0.01607048,0.05785733
1755649491694,-0.04253746,-0.42044362,-0.12184115,0.00422675,-0.03671761,-0.03457498,0.99819344,0.00446958,-0.01627794,0.05766198
1755649491706,-0.14687211,0.09135775,-0.01170671,-0.00830700,-0.02462439,-0.02825355,0.99820052,0.00442306,-0.01641583,0.05750376
1755649491717,-0.07848771,0.38184403,0.01907178,-0.05487283,-0.04572165,0.01998322,0.99819105,0.00411302,-0.01667416,0.05761667
1755649491728,0.07610089,0.07471381,-0.12625830,0.00702939,-0.03145086,0.01880974,0.99818193,0.00415204,-0.01684871,0.05772106
1755649491739,0.11020394,-0.07346644,-0.03856110,0.00347609,-0.03206381,0.02553255,0.99817052,0.00417150,-0.01702827,0.05786404
1755649491750,0.03801317,0.14967684,0.37252903,-0.02715409,-0.07936974,0.01327391,0.99815915,0.00401944,-0.01747274,0.05793838
1755649491762,0.06588433,-0.06630527,0.23926414,-0.06649765,-0.07374141,0.00159508,0.99815269,0.00364373,-0.01788938,0.05794739
1755649491773,0.01945333,-0.27450006,-0.03680036,-0.06826649,-0.07796374,-0.01106445,0.99814972,0.00326485,-0.01832208,0.05788598
1755649491784,0.04729386,-0.27734201,-0.22393522,-0.05974466,-0.06588980,-0.04894480,0.99815977,0.00293028,-0.01869106,0.05761189
1755649491795,-0.10643687,0.12069180,0.02660922,-0.07322189,-0.06667753,-0.04156447,0.99816724,0.00252024,-0.01906446,0.05737913
1755649491806,-0.12221969,0.19434382,-0.02149297,-0.03554838,-0.04810757,-0.03328502,0.99817318,0.00232294,-0.01933145,0.05719440
1755649491817,0.01766239,0.17238495,-0.09631891,0.01930102,-0.04498350,0.00400685,0.99816667,0.00243199,-0.01958561,0.05721704
1755649491829,0.00524007,0.21587463,0.01097675,0.02462278,-0.06627359,0.02796490,0.99815013,0.00256865,-0.01995343,0.05737224
1755649491840,0.00387012,0.18770069,0.13738917,-0.00095647,-0.06449673,0.02371020,0.99813535,0.00256334,-0.02031139,0.05750383
1755649491851,-0.16801135,-0.06563692,0.40288819,-0.01916132,-0.07256310,0.01926111,0.99812105,0.00245604,-0.02071774,0.05761169
1755649491862,0.03794097,-0.22064420,0.15851932,-0.03024899,-0.08879507,-0.00443138,0.99811252,0.00228816,-0.02121055,0.05758710
1755649491873,0.00041095,-0.16383332,0.16980927,-0.05675413,-0.07770959,-0.02682666,0.99811251,0.00197033,-0.02164573,0.05743687
1755649491884,0.23568163,0.00380132,-0.12544345,-0.05046736,-0.06833264,-0.05211371,0.99812141,0.00168772,-0.02202839,0.05714503
1755649491896,0.03421185,-0.00095033,-0.11023818,-0.01453797,-0.05670925,-0.02802431,0.99812346,0.00160630,-0.02234596,0.05698810
1755649491907,-0.07982765,0.17771155,-0.15585398,0.01226320,-0.03197383,-0.01970764,0.99812561,0.00167498,-0.02252501,0.05687774
1755649491918,0.05549472,0.16985323,-0.12071656,0.03086720,-0.03309373,-0.00849099,0.99812383,0.00184629,-0.02270868,0.05683061
1755649491929,-0.07740235,0.20559998,0.06192188,0.01940106,-0.02594162,0.00492855,0.99811879,0.00195397,-0.02285266,0.05685796
1755649491941,0.06930921,0.05337863,0.09973375,0.02366459,-0.02574313,0.02093829,0.99810815,0.00209122,-0.02300197,0.05697941
1755649491951,-0.05864323,0.18401782,0.46322516,0.02563411,-0.06415201,-0.00985607,0.99810285,0.00222965,-0.02334839,0.05692618
1755649491962,0.02719832,0.04623984,0.11072836,0.00326486,-0.08956299,-0.02538697,0.99809908,0.00224777,-0.02384547,0.05678529
1755649491974,0.00993137,-0.17454379,0.06758467,0.02180723,-0.06819392,-0.00874954,0.99809239,0.00236989,-0.02422735,0.05673629
1755649491985,0.13317350,-0.10398349,-0.24428388,0.01573280,-0.06107588,0.01682133,0.99807858,0.00245720,-0.02456632,0.05682965
1755649491996,-0.02778883,-0.03138439,-0.10874987,0.03343828,-0.05853920,0.01603536,0.99806474,0.00264613,-0.02489707,0.05692025
1755649492007,0.07473094,-0.00868636,-0.06344595,0.02700735,-0.05806886,0.01379089,0.99805187,0.00279602,-0.02521935,0.05699679
1755649492018,-0.10958751,-0.14557159,-0.03385227,0.02258957,-0.05359106,0.00303499,0.99804291,0.00292252,-0.02551946,0.05701378
1755649492030,-0.06842370,-0.03421185,0.20527110,-0.00249395,-0.02347993,-0.00186940,0.99804018,0.00290856,-0.02565095,0.05700331
1755649492041,-0.04098178,0.25058146,0.10568530,-0.04142219,-0.05440151,-0.00780189,0.99803549,0.00267866,-0.02595288,0.05696001
1755649492052,0.04061587,-0.07110774,-0.09903971,0.00583171,-0.09345129,0.02288930,0.99801433,0.00271132,-0.02647620,0.05708819
1755649492063,0.20907241,-0.07270018,-0.07982765,0.02569856,-0.11484050,0.01507637,0.99799182,0.00285523,-0.02711931,0.05717262
1755649492074,0.22427768,-0.10738719,-0.02280790,0.00118943,-0.10932664,0.01919656,0.99796882,0.00286189,-0.02773154,0.05728012
1755649492085,0.18742425,-0.23707924,0.10093404,-0.01947625,-0.12331690,0.00526316,0.99794819,0.00275380,-0.02841595,0.05730933
1755649492097,0.02332159,-0.16845226,0.10523825,-0.03702009,-0.11713894,-0.01321710,0.99793409,0.00254649,-0.02907193,0.05723532
1755649492108,-0.01140395,-0.01282944,0.04561580,-0.05965489,-0.12161982,-0.03015740,0.99792449,0.00221242,-0.02975300,0.05706643
1755649492119,0.11737963,0.00010556,-0.03610057,-0.06061757,-0.11445738,-0.02848588,0.99791515,0.00187902,-0.03038251,0.05690976
1755649492130,-0.07727040,-0.02433707,-0.08808687,-0.03645530,-0.09232859,-0.02662531,0.99790813,0.00167487,-0.03089955,0.05676066
1755649492141,-0.03727666,0.24522824,-0.01448722,-0.05098504,-0.07772363,-0.01626955,0.99790010,0.00138681,-0.03133869,0.05666874
1755649492152,-0.03841685,0.48576117,-0.03860187,-0.02637106,-0.09986459,-0.02165755,0.99788946,0.00123913,-0.03189793,0.05654746
1755649492164,0.04568121,-0.00995173,-0.02417096,-0.01645506,-0.09678451,-0.02623572,0.99788049,0.00114780,-0.03243509,0.05640185
1755649492175,0.03870117,-0.09675293,-0.00580518,-0.03310205,-0.08250683,-0.01865389,0.99787155,0.00096409,-0.03289300,0.05629832
1755649492186,0.02660922,-0.52526662,0.02210585,-0.02447283,-0.08195096,-0.00203644,0.99785708,0.00082704,-0.03335193,0.05628691
1755649492197,-0.11586164,-0.10566803,0.01446111,-0.00100279,-0.06360589,-0.02780217,0.99785391,0.00082148,-0.03370494,0.05613261
1755649492208,-0.09554513,0.06665450,-0.09724409,-0.01142643,-0.04624878,-0.02109669,0.99785180,0.00075692,-0.03396624,0.05601342
1755649492219,0.00595427,0.12585554,-0.03786179,-0.00885554,-0.04023363,-0.00590112,0.99784600,0.00070732,-0.03419155,0.05598037
1755649492231,0.00063334,-0.04706093,0.02719858,0.02349606,-0.04679417,0.00682936,0.99783494,0.00083655,-0.03444892,0.05601793
1755649492242,-0.15530330,0.21993795,0.07134746,0.00231884,-0.03927144,0.02134124,0.99782034,0.00084977,-0.03467277,0.05613958
1755649492253,0.01405464,0.27608959,0.06986580,-0.01017071,-0.04657242,0.02444032,0.99780373,0.00079332,-0.03493125,0.05627522
1755649492264,0.01278098,-0.05531325,-0.06365639,0.00813976,-0.05737776,-0.00392080,0.99779381,0.00083809,-0.03524682,0.05625366
1755649492275,0.05114499,-0.13037652,-0.01292448,-0.01904290,-0.04610810,-0.02876380,0.99779381,0.00073145,-0.03550503,0.05609258
1755649492286,-0.02557042,-0.08647725,-0.10190157,-0.04958898,-0.04371073,-0.03096520,0.99779496,0.00045623,-0.03574762,0.05592072
1755649492298,0.01013684,0.00350166,-0.05296159,-0.02293449,-0.01968465,-0.01801177,0.99779670,0.00032780,-0.03585786,0.05581986
1755649492309,0.01520527,0.01520527,-0.10453621,0.00868492,-0.02896697,0.01143558,0.99778725,0.00037644,-0.03602007,0.05588389
1755649492320,0.06731240,0.11319229,0.09505976,0.00687064,-0.04275408,0.01305235,0.99777458,0.00041457,-0.03625736,0.05595633
1755649492331,0.02322070,-0.04450635,0.00580518,0.01025025,-0.05954004,0.00263766,0.99776168,0.00047146,-0.03658780,0.05597097
1755649492342,-0.02890370,-0.18306250,0.04448568,-0.00099053,-0.04697071,-0.01729115,0.99775742,0.00046591,-0.03685084,0.05587414
1755649492353,-0.23568163,-0.17866188,0.20337044,-0.04515983,-0.04099451,-0.01813831,0.99775469,0.00021301,-0.03708041,0.05577257
1755649492364,-0.00393923,0.05730884,0.11370197,-0.05441609,-0.05105013,-0.02484265,0.99775183,-0.00008900,-0.03736374,0.05563469
1755649492375,0.09675293,-0.00435388,-0.02902588,-0.03681023,-0.05930392,-0.01626847,0.99774445,-0.00029329,-0.03769287,0.05554440
1755649492387,0.10188213,-0.07956652,-0.10482730,0.00924836,-0.03258645,0.01457971,0.99773300,-0.00024150,-0.03787536,0.05562605
1755649492398,0.01140395,0.22712867,-0.02850987,-0.01669162,-0.03647511,0.02803961,0.99771643,-0.00033497,-0.03807962,0.05578307
1755649492409,0.07919919,0.08718562,-0.00672087,0.00639609,-0.04488599,0.04140231,0.99769403,-0.00029948,-0.03832874,0.05601285
1755649492420,-0.05948547,-0.02463579,0.06177996,0.01957074,-0.04724749,0.02267262,0.99767672,-0.00018988,-0.03859332,0.05613982
1755649492431,-0.09503292,-0.06177140,0.15205267,-0.00985805,-0.02887678,0.01148654,0.99766682,-0.00024509,-0.03875503,0.05620414
1755649492443,-0.14982883,0.08573433,0.09965552,-0.02915593,-0.02151104,-0.00240615,0.99766287,-0.00040690,-0.03887442,0.05619079
1755649492454,-0.24304454,0.21866132,-0.08736179,-0.02134558,-0.02179319,-0.03109120,0.99766785,-0.00052644,-0.03899646,0.05601668
1755649492465,0.08825699,0.16294368,-0.11679798,-0.01653534,-0.02783476,-0.02680111,0.99767012,-0.00061986,-0.03915373,0.05586525
1755649492476,0.18084848,0.02899345,-0.04371514,0.01357902,-0.02041428,-0.01319861,0.99766981,-0.00054382,-0.03926805,0.05579134
1755649492487,0.00387012,0.01478506,0.09055038,0.03630681,-0.01965406,0.00669971,0.99766352,-0.00034232,-0.03937713,0.05582852
1755649492498,0.04644141,0.07836988,0.08514258,0.02436038,-0.01840678,0.03159061,0.99764969,-0.00020711,-0.03947928,0.05600385
1755649492510,0.09288282,-0.00822400,-0.07933741,0.02382541,-0.01429998,0.02715401,0.99763810,-0.00007488,-0.03955865,0.05615456
1755649492521,0.06715659,-0.10507986,-0.01186627,0.02551458,-0.02428375,0.01507969,0.99762794,0.00006800,-0.03969464,0.05623900
1755649492532,0.03801317,-0.15680431,-0.07792699,-0.01168610,-0.02849294,0.01712938,0.99761617,0.00000256,-0.03985420,0.05633493
1755649492543,-0.28801275,-0.01101860,0.11962809,0.02764132,0.01450418,-0.04827090,0.99763446,0.00015596,-0.03977370,0.05606702
1755649492554,-0.41797267,0.13351905,-0.02128565,-0.01260289,-0.03398004,-0.02472918,0.99763464,0.00008602,-0.03996229,0.05592978
1755649492565,0.11047790,-0.09052099,-0.15258348,0.02721325,0.02153155,0.01460534,0.99763485,0.00023841,-0.03984171,0.05601157
1755649492576,0.28714889,0.05408662,-0.17887199,0.03207743,0.01689371,0.00591298,0.99763668,0.00041644,-0.03974795,0.05604438
1755649492588,0.22099006,-0.03032064,-0.08691659,0.02913211,0.00738107,0.00625762,0.99763628,0.00057958,-0.03970662,0.05607943
1755649492599,-0.09105774,-0.17796021,-0.01740467,0.02522813,0.02272365,-0.03234216,0.99765154,0.00072212,-0.03957823,0.05589669
1755649492610,-0.17928910,-0.10906085,0.09796208,0.00023672,0.06763520,0.00076918,0.99766599,0.00072342,-0.03920624,0.05590092
1755649492621,-0.10741335,0.01458331,-0.00133695,0.00011277,0.06642964,-0.00480596,0.99768191,0.00072405,-0.03883755,0.05587425
1755649492632,-0.02617398,0.02975693,0.04972384,-0.00046912,0.05607023,0.02218673,0.99768716,0.00072140,-0.03852076,0.05599961
1755649492643,-0.08945793,-0.03754956,-0.00224330,0.01866941,0.02335324,0.02224766,0.99768514,0.00082501,-0.03839115,0.05612308
1755649492654,0.00774023,-0.05466541,-0.08901270,0.00166698,-0.00335064,0.02318793,0.99767717,0.00083427,-0.03840974,0.05625177
1755649492666,0.10836329,-0.14077552,-0.07933741,-0.00501403,-0.00037619,-0.01376366,0.99768142,0.00080644,-0.03841183,0.05617539
1755649492677,0.25016676,-0.14456668,0.03687235,-0.02761562,-0.02646849,-0.03065580,0.99768550,0.00065041,-0.03856138,0.05600218
1755649492688,0.07639637,-0.12562847,0.05569097,-0.05548654,-0.03040882,-0.07853605,0.99770365,0.00033969,-0.03873167,0.05556238
1755649492699,-0.13051280,-0.04196658,0.10751670,-0.03750293,0.02880855,-0.02884598,0.99771879,0.00013154,-0.03857178,0.05540228
1755649492711,-0.07821917,0.21475366,0.07258402,-0.03448465,0.03408530,0.01063274,0.99772289,-0.00006329,-0.03837920,0.05546236
1755649492721,0.09692642,0.18369493,-0.01278619,0.00975001,0.01620352,0.03393780,0.99771598,-0.00001016,-0.03829089,0.05564732
1755649492733,0.06071644,-0.01743723,-0.06851089,0.03238708,0.00997822,0.04955003,0.99770260,0.00017121,-0.03823501,0.05592480
1755649492744,-0.02650339,-0.18065155,0.07164900,0.00231304,-0.00149266,0.02588822,0.99769421,0.00018405,-0.03824329,0.05606848
1755649492755,-0.02709082,-0.22736939,0.14125928,-0.02984864,-0.00023598,0.00166622,0.99769366,0.00001839,-0.03824460,0.05607773
1755649492766,-0.03431459,-0.14348686,0.03987958,-0.01879309,-0.00151223,-0.00879979,0.99769610,-0.00008685,-0.03825307,0.05602845
1755649492777,0.01900658,0.14730102,0.03421185,-0.06042255,-0.01634340,-0.03728548,0.99770420,-0.00042522,-0.03834459,0.05581965
1755649492788,-0.00760263,0.12401796,0.00190066,-0.03704036,0.00994174,-0.02348474,0.99771358,-0.00063265,-0.03828892,0.05568813
1755649492800,-0.07982765,0.07412567,0.10263555,-0.01596852,0.00812143,-0.00009423,0.99771529,-0.00072207,-0.03824344,0.05568761
1755649492811,-0.04340060,0.11889381,0.01133392,-0.00039737,-0.00226124,0.01543291,0.99771003,-0.00072427,-0.03825599,0.05577326
1755649492822,0.08824468,0.17926487,-0.14530261,-0.00169156,0.00420850,0.01095015,0.99770747,-0.00073383,-0.03823221,0.05583513
1755649492833,0.08432061,0.04003688,-0.08041624,0.02698354,-0.00427313,0.02824935,0.99769787,-0.00058407,-0.03825593,0.05599191
1755649492844,-0.08901270,0.03483106,0.01548047,0.03281611,-0.00998243,0.03759522,0.99768411,-0.00040194,-0.03831133,0.05620057
1755649492855,-0.14706446,-0.05127905,0.04644141,0.00605007,-0.01437016,-0.00013738,0.99768110,-0.00036837,-0.03839109,0.05619980
1755649492866,0.00774023,-0.01451294,0.21866163,-0.02215776,-0.00370521,-0.00935073,0.99768317,-0.00049134,-0.03841165,0.05614791
1755649492878,0.07390307,-0.16989488,0.13465565,-0.02270431,-0.00918532,-0.03255930,0.99769137,-0.00061849,-0.03846309,0.05596557
1755649492889,0.07942129,0.03904380,0.08068830,-0.03797720,-0.01114587,-0.03684759,0.99770044,-0.00083306,-0.03852606,0.05575739
1755649492900,0.07899024,0.09551461,-0.03878478,0.00284935,-0.01517943,-0.00957591,0.99770017,-0.00081753,-0.03860879,0.05570520
1755649492911,0.04826626,0.09620557,-0.10638455,0.02171977,-0.01979229,0.00654571,0.99769392,-0.00069590,-0.03871963,0.05574185
1755649492922,0.03566037,0.07675013,0.06287213,0.05556253,-0.03317497,0.00627722,0.99768497,-0.00038753,-0.03890375,0.05577669
1755649492933,-0.00222042,0.01346127,0.01761193,0.02009877,-0.02134620,-0.01418347,0.99768478,-0.00027397,-0.03902435,0.05569655
1755649492944,-0.09836263,0.13384441,0.08849897,0.00913871,-0.02198971,-0.00788358,0.99768245,-0.00022325,-0.03914640,0.05565280
1755649492956,-0.03096094,0.19253834,0.07159717,0.00655853,-0.03235792,-0.01625628,0.99768043,-0.00018685,-0.03932598,0.05556258
1755649492967,0.02664346,-0.10045664,-0.02207161,0.02719063,-0.03219253,-0.01062009,0.99767663,-0.00003458,-0.03950626,0.05550311
1755649492978,-0.01140302,-0.21356914,-0.01643072,0.02887503,-0.02344399,-0.00789966,0.99767390,0.00012568,-0.03963637,0.05545926
1755649492989,-0.00774023,-0.04112000,0.04837647,-0.00323731,-0.00578877,-0.00329417,0.99767364,0.00010771,-0.03966850,0.05544098
1755649493000,-0.11027243,0.04809436,-0.04496512,-0.00082256,-0.01576817,-0.00518011,0.99767174,0.00010310,-0.03975680,0.05541197
1755649493011,0.02333959,0.02301867,-0.00643506,0.01836799,-0.01351439,-0.00801826,0.99767119,0.00020688,-0.03983316,0.05536667
1755649493023,0.04493446,-0.01003919,0.01902522,0.01823043,-0.02058225,0.01500433,0.99766197,0.00030806,-0.03994739,0.05544994
1755649493034,0.01540818,-0.01333127,0.09360295,0.01807443,-0.03229442,0.02954294,0.99764577,0.00040747,-0.04012501,0.05561243
1755649493045,-0.13009063,0.11666400,0.01716096,0.01223775,-0.03497709,0.01935800,0.99763167,0.00047661,-0.04032263,0.05572180
1755649493056,-0.10401479,-0.02522998,0.00763627,0.00857616,-0.01505588,0.01947117,0.99762213,0.00052464,-0.04040694,0.05583084
1755649493067,-0.04105089,0.05051885,-0.05020786,0.00130821,-0.01702210,0.00908685,0.99761547,0.00053190,-0.04050142,0.05588127
1755649493078,0.14319434,-0.17754163,-0.07740235,0.02219736,-0.02951233,0.01186451,0.99760505,0.00065510,-0.04066521,0.05594712
1755649493090,0.17415528,-0.03386353,-0.10255811,0.01794449,-0.02820771,0.01837436,0.99759286,0.00075469,-0.04082176,0.05604910
1755649493101,0.03027355,0.06916855,-0.15581974,0.00291869,-0.03378242,0.02688507,0.99757662,0.00077103,-0.04101095,0.05619965
1755649493112,0.11403950,-0.12259246,-0.09313226,0.03595006,-0.03691799,0.01829699,0.99756214,0.00097235,-0.04121769,0.05630212
1755649493123,0.06724329,-0.04913667,-0.00229788,0.03597958,-0.05764437,-0.01807780,0.99755432,0.00117204,-0.04153761,0.05620179
1755649493134,-0.02322070,0.04740894,0.11997364,-0.00775262,-0.05374657,-0.03312170,0.99755224,0.00112901,-0.04183591,0.05601796
1755649493145,-0.22015752,0.04910986,-0.01628304,-0.00564925,-0.03765139,-0.02632001,0.99755167,0.00109709,-0.04204864,0.05586925
1755649493156,-0.01582296,0.08497562,-0.04921556,0.01009988,-0.04348390,-0.02393333,0.99754884,0.00115315,-0.04228997,0.05573642
1755649493168,0.11054640,0.00859577,-0.09133434,0.01757339,-0.06480395,-0.01763809,0.99753878,0.00125156,-0.04265287,0.05563765
1755649493179,0.20193719,-0.16105908,0.04958588,0.03448008,-0.05418663,-0.01726776,0.99753096,0.00144292,-0.04295361,0.05554181
1755649493190,0.06192188,-0.12577881,0.01741553,0.01479343,-0.04143325,-0.02001861,0.99752709,0.00152503,-0.04318356,0.05543071
1755649493201,-0.03206145,0.02779304,0.07678935,-0.01823678,-0.02976548,-0.02635847,0.99752821,0.00142199,-0.04335174,0.05528178
1755649493212,-0.11829545,-0.11053381,0.16757951,-0.02270580,-0.02753135,-0.02206791,0.99752851,0.00129597,-0.04350454,0.05515931
1755649493223,-0.01402358,-0.15063808,0.22281513,-0.02092903,-0.02389012,0.00490591,0.99752142,0.00118086,-0.04363593,0.05518629
1755649493234,-0.07153387,0.09416034,0.04139979,-0.02457194,-0.04008977,-0.00922168,0.99751458,0.00104326,-0.04386044,0.05513465
1755649493246,-0.06872914,0.32179421,0.00058743,-0.01151517,-0.04344173,-0.01087699,0.99750735,0.00097935,-0.04410154,0.05507428
1755649493257,-0.04972533,0.12535783,-0.16784012,0.01338109,-0.03817824,0.00488197,0.99749629,0.00105429,-0.04431534,0.05510162
1755649493268,-0.00760263,0.07222502,-0.08362897,0.02593103,-0.02039389,0.00351913,0.99748996,0.00119950,-0.04442954,0.05512133
1755649493279,-0.03041053,-0.02518372,0.02280790,-0.00188592,-0.04001002,0.01389782,0.99747566,0.00118894,-0.04465360,0.05519915
1755649493290,0.02660706,-0.13476733,0.05850097,0.02493797,-0.03069925,0.01613710,0.99746289,0.00132734,-0.04482398,0.05528872
1755649493301,-0.06192188,-0.02950964,0.01935059,0.02738958,-0.02156407,0.01606250,0.99745234,0.00147936,-0.04494366,0.05537786
1755649493313,-0.05623209,0.12384672,0.00077054,-0.00986268,-0.02277830,0.01484495,0.99744205,0.00142412,-0.04507122,0.05546099
1755649493324,0.07995939,0.08208882,0.07275475,0.00311245,-0.02420118,0.01190292,0.99743227,0.00144140,-0.04520553,0.05552706
1755649493335,0.00774023,-0.04547388,-0.07159717,0.04771762,-0.04463909,0.00929113,0.99741772,0.00170623,-0.04545328,0.05557862
1755649493346,-0.01089026,0.11766530,-0.09427950,0.04368071,-0.04410242,0.00549518,0.99740427,0.00195084,-0.04570026,0.05560939
1755649493357,-0.06641398,0.15895557,-0.06548100,0.03829868,-0.03273974,0.00057340,0.99739531,0.00216340,-0.04588196,0.05561258
1755649493368,-0.04821850,0.05723807,-0.05674578,0.04011402,-0.01678432,0.00594888,0.99738861,0.00238804,-0.04597595,0.05564589
1755649493379,0.06413337,-0.16853584,-0.03369075,0.03707709,-0.01587937,0.01827180,0.99737837,0.00259382,-0.04606408,0.05574730
1755649493391,-0.03695154,-0.09050815,0.02008534,0.02479475,-0.01820516,0.02717761,0.99736477,0.00273267,-0.04616603,0.05589949
1755649493402,0.04115455,-0.05622468,0.12679817,0.00914643,-0.00925228,0.01800037,0.99735664,0.00278343,-0.04621738,0.05599940
1755649493413,-0.02178052,-0.13386799,0.04919452,0.01886862,-0.03237854,0.01034819,0.99734467,0.00288910,-0.04639870,0.05605734
1755649493424,-0.00511408,-0.00860410,0.04905028,0.00462335,-0.03490837,-0.00038938,0.99733568,0.00291475,-0.04659244,0.05605518
1755649493435,0.11610352,-0.02709082,-0.12190870,0.00685021,-0.04076799,-0.00717068,0.99732721,0.00295277,-0.04681871,0.05601539
1755649493446,-0.08915303,0.02656087,-0.16807869,0.02174910,-0.02890037,0.00375367,0.99731797,0.00307566,-0.04698199,0.05603659
1755649493457,0.00948692,0.04552525,0.01630244,-0.00769893,-0.01376812,0.00453343,0.99731308,0.00303293,-0.04705841,0.05606176
1755649493469,-0.10267737,-0.13060919,-0.03281841,0.00844944,-0.00974173,0.00271563,0.99730948,0.00308067,-0.04711345,0.05607710
1755649493480,-0.01374050,-0.19247161,0.09536394,-0.00130586,-0.00779778,0.01755812,0.99730204,0.00307348,-0.04715633,0.05617367
1755649493491,0.09105331,-0.00961372,0.03372280,-0.01216255,-0.00126219,0.01038014,0.99729866,0.00300598,-0.04716334,0.05623128
1755649493502,0.03541046,-0.03976828,-0.17244622,-0.00185069,-0.01649744,0.00841484,0.99729166,0.00299562,-0.04725573,0.05627840
1755649493513,0.06910479,0.03344405,0.02923935,0.00350315,-0.01795221,0.01519556,0.99728220,0.00301489,-0.04735446,0.05636198
1755649493524,-0.04026291,0.12664486,-0.04698472,0.02382634,-0.03505033,-0.00332484,0.99727343,0.00314950,-0.04755250,0.05634319
1755649493535,-0.09031415,0.12235821,-0.01419614,0.01365974,-0.02696722,-0.01097568,0.99726948,0.00322532,-0.04770217,0.05628228
1755649493547,-0.13545411,-0.00580518,0.01161035,0.00681024,0.00056916,0.00657132,0.99726744,0.00326311,-0.04769901,0.05631875
1755649493558,-0.08859465,-0.00909234,-0.01676346,0.00598008,0.00750924,0.01179972,0.99726561,0.00329660,-0.04765695,0.05638483
1755649493569,0.00425022,-0.04452363,0.06916107,0.01100738,0.01933145,0.00419355,0.99726921,0.00335769,-0.04754967,0.05640810
1755649493580,0.00774023,0.21866163,0.20124610,-0.03487207,0.00556846,-0.00487173,0.99727285,0.00316415,-0.04751876,0.05638106
1755649493591,0.07554689,-0.31323191,-0.17105925,0.02801516,-0.02163298,0.00072406,0.99726633,0.00332104,-0.04763990,0.05638512
1755649493602,0.10342773,0.04792952,0.02017207,-0.02371585,0.00204556,-0.00173482,0.99726787,0.00318704,-0.04762835,0.05637531
1755649493613,-0.03292140,-0.12527307,-0.06132657,-0.00671236,-0.01105840,-0.01049292,0.99726834,0.00315012,-0.04768917,0.05631760
1755649493624,-0.05911204,0.08620506,0.01182241,-0.00192118,-0.01425169,-0.02322595,0.99727183,0.00313956,-0.04776755,0.05618986
1755649493636,-0.07098095,0.11165504,-0.04965902,0.00278766,0.00129833,-0.01902137,0.99727813,0.00315517,-0.04776028,0.05608334
1755649493647,0.03421185,0.17866188,0.15205267,0.01991333,0.02366646,0.00111201,0.99728375,0.00326668,-0.04762775,0.05608957
1755649493658,-0.05320084,0.19207896,0.06322878,0.02805819,0.02213524,0.00582945,0.99728724,0.00342100,-0.04750601,0.05612163
1755649493669,0.01423766,0.01377113,-0.06019903,0.04877071,0.02494872,0.01517866,0.99728812,0.00369412,-0.04736629,0.05620663
1755649493680,-0.08452060,-0.02139795,-0.14792832,0.01537235,-0.01300546,0.01689853,0.99727908,0.00377944,-0.04743847,0.05630042
1755649493691,0.15979228,-0.16315696,-0.10047804,0.02779700,-0.01650848,0.01795072,0.99726840,0.00393510,-0.04753092,0.05640094
1755649493702,-0.03738810,-0.14788513,0.04720161,0.01714008,-0.02420224,0.02224372,0.99725462,0.00403023,-0.04766524,0.05652439
1755649493714,0.06533403,-0.14428492,0.06679749,-0.01768435,-0.00241461,0.02551910,0.99724618,0.00393031,-0.04767889,0.05666858
1755649493725,0.00702101,-0.20094214,0.00166107,0.00141096,-0.00677726,0.00424283,0.99724301,0.00393814,-0.04771650,0.05669213
1755649493736,-0.04257129,-0.04837647,-0.04063623,-0.00367095,0.00722276,-0.01082462,0.99724843,0.00391777,-0.04767641,0.05663205
1755649493747,0.04058162,0.07261885,0.08600907,-0.03077551,0.02444270,-0.00416305,0.99725695,0.00374542,-0.04753953,0.05660874
1755649493758,-0.03421185,0.09455775,-0.00190066,-0.01650437,0.02111709,-0.00203031,0.99726356,0.00365300,-0.04742128,0.05659737
1755649493769,0.12515683,0.08480999,-0.09841156,-0.00140086,0.00890867,-0.00103727,0.99726627,0.00364522,-0.04737184,0.05659161
1755649493781,-0.00774023,0.01064282,-0.13545411,0.00839235,0.00353279,0.01584957,0.99726203,0.00369180,-0.04735223,0.05667957
1755649493792,-0.05811072,0.02601843,-0.15256544,0.00891192,-0.01101608,0.00314650,0.99725784,0.00374260,-0.04741502,0.05669751
1755649493803,0.05136750,-0.05732980,0.09356223,-0.00294302,-0.00499268,0.00520368,0.99725486,0.00372582,-0.04744348,0.05672717
1755649493857,-0.04535992,0.00599853,-0.16432529,-0.00115491,0.00016644,0.00093714,0.99725376,0.00369482,-0.04743901,0.05675233
1755649493863,0.85206748,-0.20462001,15.71436865,0.01343572,0.10319248,0.04230664,0.99726130,0.00373647,-0.04711911,0.05688348
1755649493885,-0.20555700,0.21731691,-3.99057681,0.01095041,0.03212556,0.01129211,0.99727014,0.00385364,-0.04677537,0.05700431
1755649493901,-0.03625317,-0.12913740,-0.05155472,-0.00723137,0.02910798,0.00885277,0.99727738,0.00379434,-0.04653668,0.05707690
1755649493918,0.02549102,-0.12349629,-0.12923151,0.00472802,0.02668466,-0.00700722,0.99729111,0.00383429,-0.04631120,0.05701769
1755649493946,-0.00367663,0.04612442,-0.20287208,-0.01419677,0.01468080,-0.00215333,0.99730327,0.00363270,-0.04610273,0.05698711
1755649493948,24.31186285,-17.72518505,71.17060088,0.43423347,0.42406392,0.40073865,0.99729893,0.00400179,-0.04574228,0.05732774
1755649493965,-2.29882472,1.71337970,-7.10712851,0.00638528,0.02173414,0.00387118,0.99730513,0.00405479,-0.04556188,0.05735987
1755649493978,0.01900823,-0.03454502,0.01501272,-0.02960152,0.02624464,-0.03454648,0.99732738,0.00385498,-0.04538473,0.05712668
1755649493991,-0.01681965,-0.07543815,0.19672987,-0.05977073,0.02985821,-0.04526827,0.99735360,0.00347843,-0.04519663,0.05684149
1755649494005,0.04928207,0.02142299,-0.10279358,-0.04660545,0.00029253,-0.01323489,0.99736038,0.00313588,-0.04519448,0.05674422
1755649494015,0.52899838,-0.45604006,0.35545111,-0.00145985,-0.00745475,-0.02290023,0.99736498,0.00312894,-0.04522989,0.05663544
1755649494027,-0.24420962,0.19423169,-0.34795219,0.00102651,-0.00633478,-0.00366958,0.99736447,0.00313531,-0.04526916,0.05661269
1755649494038,-0.04745515,0.01768838,0.17197892,-0.02939686,-0.00302825,0.02486846,0.99735628,0.00297068,-0.04528612,0.05675195
1755649494206,-0.03550098,0.02700829,-0.06084593,-0.00109332,-0.00170147,-0.00074061,0.99735360,0.00287895,-0.04542887,0.05668981
1755649494210,77.99395645,-25.54376056,132.22345578,-0.42803497,0.30610054,-0.30348374,0.99741771,0.00202288,-0.04481667,0.05608285
1755649494246,-8.56554338,2.82991318,-14.39819762,0.00616903,0.02242021,0.00195600,0.99743337,0.00213269,-0.04441759,0.05611766
1755649494322,-0.04622569,0.01016602,-0.14277069,-0.00799512,-0.00532148,-0.00767065,0.99744134,0.00182768,-0.04462061,0.05582503
1755649494329,14.04249218,-7.39289946,17.43869181,-0.32163771,-0.20069778,-0.26020980,0.99746084,0.00075019,-0.04529294,0.05495333
1755649494362,-2.40967537,1.01301991,-3.30870065,-0.10743090,-0.05173633,-0.05328409,0.99746959,-0.00104390,-0.04615694,0.05406348
1755649494387,-0.02485895,0.02481420,0.01528021,-0.17860291,-0.02986686,-0.09891294,0.99751382,-0.00328537,-0.04653177,0.05282212
1755649494407,0.01158085,0.21427827,0.15847984,-0.31263458,-0.09423328,-0.11849802,0.99751635,-0.00633356,-0.04745054,0.05166677
1755649494423,0.49355004,-1.98382533,-1.05533469,-0.04349179,-0.05497561,-0.00414806,0.99749506,-0.00667714,-0.04788485,0.05163400
1755649494436,-1.47905332,1.82974639,1.11706495,-0.29596289,-0.09344823,-0.05613201,0.99746853,-0.00868969,-0.04852030,0.05125230
1755649494448,0.52655470,0.12422019,-0.63241282,-0.24571044,-0.07991020,-0.08814298,0.99745829,-0.01015167,-0.04899577,0.05072785
1755649494459,1.70334648,-1.83718326,-0.06998759,-0.09945465,-0.02483685,-0.00298686,0.99744712,-0.01067878,-0.04912740,0.05071202
1755649494469,-2.30162061,1.76185237,-0.18915950,-0.17201831,-0.10858621,-0.01785975,0.99741486,-0.01154747,-0.04967576,0.05062183
1755649494481,0.53758546,0.04539089,0.58459405,-0.16394186,-0.02436984,-0.00353563,0.99739646,-0.01254751,-0.04982442,0.05060026
1755649494493,-0.16144282,-0.52713197,-0.94439163,-0.07664451,-0.02871981,0.01938424,0.99737604,-0.01300738,-0.04999674,0.05071657
1755649494505,-0.22824385,0.29363878,0.34017706,-0.06420195,0.03777684,0.00251138,0.99738147,-0.01338938,-0.04977196,0.05073151
1755649494517,0.07407964,0.84686495,0.17678095,-0.14580537,0.01935786,0.02534816,0.99736750,-0.01425692,-0.04965678,0.05088233
1755649494528,0.17539712,-0.57885515,-0.18800844,-0.08960110,-0.01174052,0.01952894,0.99735076,-0.01477661,-0.04972488,0.05099560
1755649494540,0.19202790,-0.35012921,-0.21504451,-0.03722460,-0.00803845,0.01598788,0.99734055,-0.01499065,-0.04977110,0.05108753
1755649494553,-0.62017026,0.59210736,-0.22702424,-0.06483172,-0.02378957,-0.03842218,0.99733922,-0.01539585,-0.04991979,0.05084739
1755649494563,0.58891359,-0.29556022,0.56022455,-0.09336845,0.02007653,-0.04383170,0.99734895,-0.01590938,-0.04980936,0.05060632
1755649494575,-0.40293467,0.53597316,-0.37294806,-0.04498856,0.01910969,-0.02874250,0.99735856,-0.01616581,-0.04970044,0.05044248
1755649494586,-0.03669107,0.35636203,0.05870571,-0.00266636,0.02959270,-0.02451519,0.99737376,-0.01618101,-0.04953176,0.05030275
1755649494598,-0.05015070,0.35771557,0.01547203,0.01890560,0.03651873,0.00090580,0.99738535,-0.01607514,-0.04932726,0.05030782
1755649494609,-0.17087556,0.29569891,0.08203075,0.04073279,0.03925019,0.01792060,0.99739495,-0.01584296,-0.04910353,0.05040997
1755649494620,-0.12935787,0.19750006,-0.03071063,0.09115921,0.05077817,-0.01058391,0.99742054,-0.01531880,-0.04881156,0.05034911
1755649494632,-0.18362012,0.12772424,-0.13749197,0.11438927,0.10853336,-0.04987599,0.99747379,-0.01467822,-0.04820377,0.05006980
1755649494643,-0.18348252,0.58582371,0.10037691,0.06255965,0.15789480,-0.00341264,0.99752261,-0.01432475,-0.04731166,0.05005052
1755649494654,0.06714791,0.38841801,0.30138630,0.08808294,0.13316853,0.03611591,0.99755505,-0.01382268,-0.04655260,0.05025638
1755649494666,-0.01546145,0.19536875,0.15153536,0.11960250,0.09242494,0.05492769,0.99757274,-0.01314693,-0.04603040,0.05056672
1755649494677,0.15310771,-0.21612460,0.08215536,0.11457216,0.06058061,0.08292811,0.99757293,-0.01249959,-0.04568812,0.05103527
1755649494688,0.02867099,-0.22709094,0.00868572,0.03369096,0.02772125,0.05716179,0.99756582,-0.01230756,-0.04553011,0.05136109
1755649494699,0.35545645,-0.33660825,0.28626582,-0.02989662,0.00646009,0.02294051,0.99755877,-0.01247498,-0.04549393,0.05148956
1755649494711,0.08548813,-0.63930797,0.11929982,-0.01251983,-0.02048516,-0.02936937,0.99756111,-0.01254446,-0.04560763,0.05132656
1755649494722,0.03550353,-0.44946647,-0.05197224,-0.00036639,0.00201613,-0.03520878,0.99757201,-0.01254657,-0.04559603,0.05112411
1755649494733,0.11771007,0.08249985,-0.10683003,-0.13711084,-0.02703403,-0.08494271,0.99757926,-0.01330068,-0.04574472,0.05065692
1755649494744,0.04450996,-0.04791387,-0.24124538,-0.03239544,0.02231966,-0.04339149,0.99759486,-0.01348209,-0.04561973,0.05041393
1755649494755,-0.00760263,-0.10168522,-0.17866188,0.02369095,0.01127731,-0.00006754,0.99759955,-0.01334942,-0.04555658,0.05041355
1755649494767,-0.00380132,0.31123280,-0.00570197,0.00657725,0.01173507,0.00204780,0.99760246,-0.01331259,-0.04549086,0.05042502
1755649494778,-0.06842370,0.24138361,-0.05701975,0.00652121,0.00630625,0.01209071,0.99760113,-0.01327607,-0.04545555,0.05049273
1755649494789,0.03150845,0.00467209,-0.18708348,0.04361313,0.01849808,0.02108367,0.99760310,-0.01302966,-0.04535103,0.05061185
1755649494800,-0.04150958,-0.06281235,-0.07813870,0.03381103,0.03349194,0.00954550,0.99761128,-0.01284201,-0.04516515,0.05066483
1755649494812,-0.08188242,-0.11922350,0.06662578,0.00159195,0.04759226,0.00583385,0.99762177,-0.01283309,-0.04489863,0.05069750
1755649494823,-0.08379495,0.03080112,0.14369538,-0.01643882,0.03378174,0.01175535,0.99762569,-0.01292433,-0.04471115,0.05076274
1755649494834,-0.00438350,-0.02339864,-0.07018737,0.00264955,0.01148546,0.00367901,0.99762772,-0.01290949,-0.04464683,0.05078334
1755649494845,0.05614394,0.04082830,-0.16909176,-0.00335906,0.00105684,-0.00398128,0.99762890,-0.01292880,-0.04464075,0.05076045
1755649494856,0.10922852,-0.22972937,0.04219205,0.00625889,0.00501925,-0.00591056,0.99763215,-0.01289532,-0.04461390,0.05072883
1755649494867,-0.11646521,-0.10829999,0.15115159,-0.00820874,0.01381104,-0.00936417,0.99763762,-0.01294088,-0.04453725,0.05067686
1755649494879,-0.12752626,0.07918330,0.19808220,-0.03945857,0.03140255,-0.03801204,0.99765364,-0.01316579,-0.04435825,0.05046019
1755649494884,-0.18245881,0.11425192,0.37911842,-0.03050429,0.04496714,-0.02994716,0.99766202,-0.01324815,-0.04423684,0.05037933
1755649494890,0.02308948,-0.12734411,-0.24300269,0.03775000,0.06559759,-0.01213709,0.99767326,-0.01314245,-0.04405317,0.05034535
1755649494899,-0.17961221,0.40348072,0.03252238,0.01064268,0.07647396,0.01429818,0.99768661,-0.01309137,-0.04368609,0.05041398
1755649494910,-0.05841458,0.30306345,-0.03217035,0.05304309,0.05679085,0.04406652,0.99769179,-0.01279698,-0.04337090,0.05065855
1755649494921,0.01417788,0.11121420,-0.06631756,0.12721012,0.04263364,0.05494296,0.99769536,-0.01208460,-0.04313215,0.05096623
1755649494933,-0.00760263,0.10596170,-0.05321843,0.13724117,0.04837485,0.03050098,0.99770730,-0.01131605,-0.04286126,0.05113703
1755649494944,-0.38590599,0.13933718,0.04708067,0.09055444,0.05245748,0.01603214,0.99772078,-0.01081348,-0.04257012,0.05122601
1755649494955,-0.41830200,0.19678074,0.17679035,0.05487710,0.05983494,0.01804674,0.99773278,-0.01051440,-0.04224402,0.05132437
1755649494966,-0.12655943,0.00728876,0.01506577,0.11977727,0.05815126,0.00174088,0.99775286,-0.00984364,-0.04191837,0.05133412
1755649494977,0.19006583,0.24898624,0.09123160,0.12263895,0.11582488,0.00882992,0.99778389,-0.00915686,-0.04126975,0.05138356
1755649494988,-0.12933794,0.40783089,0.07712591,0.12254022,0.12175984,-0.01416336,0.99782166,-0.00847677,-0.04059398,0.05130496
1755649494999,-0.06568401,0.31711029,0.15734369,0.09069859,0.11512248,0.04952261,0.99783757,-0.00796885,-0.03994930,0.05158228
1755649495010,0.09336658,0.03801872,-0.22261813,0.19087202,0.08131409,0.04917932,0.99784929,-0.00690951,-0.03949800,0.05185523
1755649495022,0.23994728,-0.05998682,-0.24188233,0.17330085,0.06595172,0.02867268,0.99786162,-0.00594769,-0.03913197,0.05201436
1755649495033,0.28638868,0.09191529,-0.51472561,0.16693932,0.05476103,-0.01035017,0.99788158,-0.00502118,-0.03882805,0.05195692
1755649495044,-0.28251857,0.25494398,0.63663430,0.08425439,0.01915998,-0.01660684,0.99789275,-0.00455357,-0.03872171,0.05186475
1755649495055,-0.07740235,-0.65985501,-0.45280373,0.12980892,0.00285684,0.02823285,0.99788824,-0.00383313,-0.03870585,0.05202144
1755649495066,0.73145218,0.15819105,-0.35411574,0.12764286,-0.00017197,0.07124452,0.99786998,-0.00312471,-0.03870681,0.05241685
1755649495077,-0.59729792,-0.03482818,-0.29634128,0.12059339,-0.01691161,0.05798265,0.99785142,-0.00246145,-0.03879982,0.05273575
1755649495088,-0.03462654,-0.84118817,0.30510750,0.09790659,-0.00443906,0.04189841,0.99783923,-0.00191317,-0.03882468,0.05297039
1755649495099,0.09664927,0.89924509,0.75016350,0.05021424,0.02530269,0.02893007,0.99783664,-0.00163448,-0.03868425,0.05313095
1755649495110,-0.28965348,-1.03566615,-0.78337944,-0.01147188,0.06058967,-0.01205330,0.99785322,-0.00169872,-0.03834495,0.05306345
1755649495122,-0.05421453,-0.17464265,-0.02704058,-0.02601243,0.06876124,-0.02110177,0.99787415,-0.00184570,-0.03795645,0.05294422
1755649495133,-0.11362067,0.09875112,-0.05110838,-0.02038306,0.01226851,-0.02587222,0.99788404,-0.00195780,-0.03788897,0.05280193
1755649495144,-0.11120579,-0.18117593,-0.34826972,0.07638071,0.06365884,-0.02735747,0.99790635,-0.00153007,-0.03753248,0.05264872
1755649495155,-0.18615501,-0.03323414,-0.12074525,0.04879960,0.09485473,0.08246472,0.99790226,-0.00126655,-0.03702027,0.05309403
1755649495166,-0.17021451,-0.11905513,-0.09263949,0.09314622,0.09347237,0.11089396,0.99788883,-0.00074493,-0.03649682,0.05371504
1755649495177,0.07602633,0.21524955,-0.06652304,0.04740699,0.07499557,0.11450990,0.99786954,-0.00047945,-0.03607685,0.05435630
1755649495188,-0.02582633,0.05068506,-0.09778117,0.04319136,0.03316228,0.08886854,0.99784946,-0.00024190,-0.03589445,0.05484507
1755649495199,-0.02405197,-0.18662737,0.03901533,0.05188298,0.02597060,0.00039647,0.99785459,0.00004864,-0.03574902,0.05484729
1755649495211,-0.03421185,0.04371514,0.09313226,0.03976481,0.02065943,-0.01400182,0.99786300,0.00027133,-0.03563333,0.05476888
1755649495222,-0.13827040,0.17938976,-0.17431339,0.05927926,0.04259359,-0.00611278,0.99787331,0.00060625,-0.03539267,0.05473435
1755649495233,-0.05478762,0.37698314,-0.25104310,0.09059873,0.07175282,0.05914390,0.99786891,0.00110455,-0.03499803,0.05505964
1755649495244,-0.39013949,1.67779686,-0.18521774,0.13443657,0.06315422,0.09792101,0.99785007,0.00184395,-0.03465068,0.05559820
1755649495255,0.36505761,-1.63948726,1.05360426,0.19496223,0.06101154,0.10142923,0.99782766,0.00292599,-0.03431207,0.05616113
1755649495266,0.45168625,0.40658827,-0.03705738,0.17700146,-0.00923136,0.09769845,0.99779121,0.00392605,-0.03436423,0.05671313
1755649495277,-0.08517640,0.44199557,-0.10026393,0.12881253,-0.06190872,0.08798024,0.99774799,0.00464740,-0.03471091,0.05720582
1755649495289,-0.17425551,-1.43844978,-0.97050639,0.23526332,-0.03913847,0.03088445,0.99772180,0.00604721,-0.03494379,0.05738958
1755649495300,-0.28168976,0.66380562,-0.07882630,0.23992717,0.02419472,0.01768125,0.99771266,0.00728284,-0.03481919,0.05748064
1755649495310,0.86771128,1.52626414,1.26739350,0.11384384,0.04291533,0.03401192,0.99770545,0.00789760,-0.03458744,0.05766431
1755649495322,-0.17765750,-0.33027249,-0.10020464,0.14693497,-0.05401850,0.03483017,0.99767651,0.00872778,-0.03489265,0.05786110
1755649495334,-0.11408123,-0.78032164,-0.72756973,0.20711696,-0.07424350,0.06416141,0.99763142,0.00985656,-0.03529727,0.05821078
1755649495344,-0.58827758,-0.52444273,-0.11413702,0.19715892,-0.03238192,0.05997626,0.99759347,0.01097051,-0.03548023,0.05854964
1755649495355,0.47787387,0.05653625,0.60563912,0.09536104,0.03002255,0.09019556,0.99756392,0.01149977,-0.03531361,0.05905023
1755649495366,-0.12771387,-0.01161035,-0.14319434,0.08009507,0.02707452,0.03826368,0.99755141,0.01194429,-0.03516334,0.05926259
1755649495377,0.71984183,0.40636232,-0.05418164,0.05580271,-0.01756422,0.08199069,0.99751708,0.01225400,-0.03526083,0.05971764
1755649495388,0.76241312,0.54036513,-0.24768751,0.08190227,-0.08937009,0.09025122,0.99746362,0.01270856,-0.03575683,0.06021853
1755649495399,-1.75166916,-0.88869988,0.13741331,0.11607242,-0.15924687,0.09803800,0.99739080,0.01334696,-0.03663269,0.06075774
1755649495410,1.25599381,-0.13134211,0.02249945,0.12714391,-0.11192810,0.08201114,0.99733026,0.01405260,-0.03725389,0.06121290
1755649495422,-0.28670268,-0.00471838,0.06916929,0.07702189,0.01086592,0.09193038,0.99729431,0.01448778,-0.03719250,0.06173231
1755649495433,-0.34236162,0.61372775,-0.17848699,0.08987622,-0.00910292,0.09002549,0.99725437,0.01498210,-0.03724256,0.06222745
1755649495444,0.87492486,2.75662843,-0.23371186,0.19555730,-0.01207036,0.10737821,0.99719708,0.01607722,-0.03731016,0.06282877
1755649495455,0.01503736,-2.27285095,-0.78025916,0.30615283,-0.10656019,0.15253076,0.99709031,0.01780698,-0.03791222,0.06369057
1755649495466,-0.39317534,-0.37927036,0.01353205,0.27418961,-0.08492302,0.11865575,0.99700328,0.01930131,-0.03837505,0.06433724
1755649495477,1.21516584,1.65015504,1.98477552,-0.00459881,0.00899873,0.13415922,0.99695695,0.01927556,-0.03832466,0.06508853
1755649495488,-2.07314384,-2.63829721,-0.94157042,0.13817422,-0.16771626,0.09219013,0.99687284,0.02003552,-0.03924710,0.06559558
1755649495499,0.61077488,0.49809290,0.25305290,0.11932278,-0.05950272,0.07081156,0.99682032,0.02069776,-0.03957734,0.06598858
1755649495511,1.44441363,0.64169154,-0.87348100,0.14406289,-0.08052424,0.07226922,0.99675780,0.02151172,-0.04003230,0.06639690
1755649495522,-0.25583832,0.05096888,-0.90284493,0.19695565,-0.14287152,0.11806327,0.99665849,0.02259497,-0.04081809,0.06704625
1755649495533,-0.12876096,0.91254061,1.09820037,0.13953320,-0.08433606,0.01314760,0.99661606,0.02337636,-0.04129038,0.06711988
1755649495544,-0.23919403,-1.36069154,-0.80313652,0.15277456,-0.16460676,0.04247572,0.99654299,0.02420898,-0.04218748,0.06735137
1755649495555,-0.18535778,0.06790930,1.04771610,0.09514448,-0.07725229,0.06134287,0.99648822,0.02474179,-0.04262009,0.06769489
1755649495566,-0.45221630,0.83899479,0.13450386,0.20225190,0.02079745,-0.08982086,0.99649839,0.02586429,-0.04250467,0.06719639
1755649495577,0.06424568,-1.76852832,-1.47326704,-0.10701015,-0.19400273,0.08212042,0.99643571,0.02526503,-0.04359108,0.06765626
1755649495588,2.31916782,0.67905874,1.32786491,0.25021650,0.16344053,-0.02577544,0.99644850,0.02665373,-0.04268399,0.06751321
1755649495599,-2.34616237,1.07650045,-1.12628859,-0.08189775,-0.20595637,-0.05306882,0.99643102,0.02620329,-0.04381675,0.06722133
1755649495611,2.04389279,-2.44538483,0.29756459,0.24686245,0.04013925,-0.08659570,0.99643623,0.02761041,-0.04358796,0.06672773
1755649495622,-1.67999187,1.21106266,-0.68968898,0.00024395,-0.15376891,0.06115462,0.99637461,0.02761179,-0.04445675,0.06707326
1755649495634,0.82706682,-1.50985933,0.84224872,0.09970854,0.04566628,-0.10928275,0.99641299,0.02819508,-0.04418960,0.06643395
1755649495644,-1.01558675,2.15617418,-0.41650244,-0.03228964,-0.02220148,-0.15240462,0.99646363,0.02803202,-0.04430172,0.06566431
1755649495655,0.95902274,-0.18671879,1.13737384,-0.01561395,0.04666338,-0.12408897,0.99652269,0.02794536,-0.04404274,0.06497561
1755649495666,0.47215432,0.23656092,-1.66415046,0.05696887,-0.03620867,-0.03258360,0.99651664,0.02826154,-0.04424370,0.06479478
1755649495677,-0.85405237,0.71071364,0.54233637,-0.02101460,-0.07997572,0.17358930,0.99643558,0.02814281,-0.04469556,0.06577555
1755649495689,1.86343286,-2.42591698,0.08775686,0.23351735,0.02742871,0.15060588,0.99634785,0.02946218,-0.04454059,0.06662648
1755649495700,-1.30447551,0.17901554,-0.45547250,0.02402394,-0.12753742,0.07942848,0.99628361,0.02959311,-0.04523567,0.06705936
1755649495711,-0.28279781,-0.26500996,0.80160994,-0.04319103,0.01008404,-0.10801855,0.99633296,0.02935556,-0.04518020,0.06646526
1755649495722,0.19683909,0.31494772,0.30839045,-0.24390960,-0.04425613,-0.10646660,0.99640059,0.02798967,-0.04542804,0.06586905
1755649495733,0.14445003,-0.58777858,0.10643687,-0.09764849,0.00772728,-0.17841342,0.99648332,0.02744284,-0.04538476,0.06486993
1755649495744,0.98653438,0.90075253,-1.07623817,-0.05392002,-0.05153984,-0.06924390,0.99650339,0.02714358,-0.04567081,0.06448563
1755649495755,-1.50062937,-0.01293631,-0.50479556,-0.03520264,-0.06526651,-0.04565932,0.99650835,0.02694996,-0.04602978,0.06423450
1755649495766,0.23175809,-0.51949002,-0.35422283,0.14163408,0.07419427,-0.02574641,0.99651480,0.02772187,-0.04562542,0.06409419
1755649495777,0.68675055,1.91764314,1.26412590,0.05087764,0.10730408,0.11411929,0.99649306,0.02800424,-0.04502988,0.06472755
1755649495788,-0.19697773,-1.06214899,-0.82994741,0.12467480,0.01376149,0.07031681,0.99645064,0.02870865,-0.04495213,0.06512484
1755649495799,-0.07425145,-0.05894651,0.38242239,0.06423234,-0.00332865,0.04515635,0.99642306,0.02906514,-0.04497060,0.06537546
1755649495811,-0.07001138,-0.61058925,0.46815674,0.00281107,0.00058004,0.01177426,0.99641850,0.02908060,-0.04496741,0.06544021
1755649495822,-0.26595251,0.44596015,0.54472057,-0.01992362,-0.00475797,-0.06880096,0.99644602,0.02896804,-0.04499429,0.06505149
1755649495833,-0.31382728,0.33958288,-0.43651225,-0.02266402,-0.01510879,-0.05855214,0.99646723,0.02884112,-0.04507890,0.06472360
1755649495844,0.78189753,-0.20044437,-0.64910654,-0.06421542,-0.02851830,-0.09488898,0.99650404,0.02848793,-0.04523575,0.06420171
1755649495855,0.62658767,0.05418604,0.05320084,0.01269518,-0.00289364,-0.03022212,0.99651202,0.02855776,-0.04525167,0.06403549
1755649495867,0.03285955,-0.58562482,-0.05176990,0.05934793,-0.02816814,-0.00921715,0.99649809,0.02890197,-0.04541504,0.06398203
1755649495889,-0.20449464,-0.08674051,0.16860539,-0.02293874,-0.02996125,-0.02253632,0.99650652,0.02863933,-0.04575810,0.06372398
1755649495901,0.86292477,0.17151031,0.01093394,-0.03074234,-0.01636734,-0.05792755,0.99652812,0.02846563,-0.04585058,0.06339669
1755649495912,-1.51246241,-0.64498674,-0.72775330,-0.08274608,-0.10121996,-0.01031879,0.99651877,0.02800639,-0.04641235,0.06333942
1755649495923,0.53794631,-0.42861550,0.81465970,-0.07405073,-0.02298322,-0.00090677,0.99652460,0.02759541,-0.04653990,0.06333439
1755649495934,1.82391722,0.28712389,-0.86823700,-0.10317665,0.00053584,-0.09994264,0.99657508,0.02702794,-0.04653696,0.06278471
1755649495945,-1.79974530,-0.55351034,-0.72439801,-0.19015448,-0.13278375,0.03083685,0.99655766,0.02597258,-0.04727391,0.06295585
1755649495956,1.00941414,-1.32789651,0.59756079,-0.04288581,0.01151502,-0.08521123,0.99659732,0.02573028,-0.04720885,0.06247441
1755649495968,-0.44321406,1.16944329,-0.03555028,-0.22664804,-0.01888549,-0.06993954,0.99664829,0.02447238,-0.04731366,0.06208624
1755649495979,-0.07681399,-0.15322559,-0.48209941,-0.20043828,-0.01541664,-0.09756897,0.99670501,0.02334992,-0.04739999,0.06153986
1755649495990,0.22089608,0.10698224,-0.37483370,-0.20950049,-0.01405117,-0.06205766,0.99674867,0.02219767,-0.04747728,0.06119854
1755649496001,0.41026574,-0.10127053,-0.26858030,-0.19297983,-0.02632225,-0.06210139,0.99678641,0.02111698,-0.04762468,0.06085077
1755649496012,0.01354541,-0.44619516,-0.33981013,-0.22449145,-0.05821370,-0.08484824,0.99682517,0.01987106,-0.04794777,0.06037987
1755649496023,-0.21869557,-0.43446737,-0.47100368,-0.24595096,-0.05866189,-0.10043614,0.99686973,0.01849373,-0.04827627,0.05981742
1755649496034,0.85529499,-0.58995052,-0.49024293,-0.28074192,-0.01594251,-0.07282890,0.99691688,0.01694965,-0.04836396,0.05941686
1755649496045,-0.27861327,0.56731083,0.39603614,-0.37818361,-0.03498898,-0.10499883,0.99697548,0.01485073,-0.04855815,0.05883412
1755649496056,0.59212795,-0.96752934,-0.25736280,-0.37959433,-0.07752898,-0.09451768,0.99701440,0.01274398,-0.04898843,0.05830955
1755649496068,0.15311429,0.30037679,-0.12540920,-0.57889239,-0.14098141,-0.11905043,0.99705023,0.00950219,-0.04977793,0.05764287
1755649496079,1.35098195,-1.88837970,-1.28218370,-0.49369190,-0.17020109,-0.10103492,0.99705723,0.00676220,-0.05072254,0.05708212
1755649496090,-0.07535974,-0.72665715,-0.68450685,-0.47746114,-0.19412926,-0.10835272,0.99705014,0.00401679,-0.05183879,0.05645909
1755649496101,0.07225162,0.05020492,-0.07293973,-0.70733342,-0.20919628,-0.22639389,0.99706723,0.00023256,-0.05295799,0.05524789
1755649496112,-0.11928642,-0.71636957,-0.14934313,-0.67877343,-0.18600889,-0.22000618,0.99707254,-0.00353463,-0.05399034,0.05402685
1755649496123,-0.20126497,-0.36409824,-0.34265459,-0.62099887,-0.12127428,-0.32066575,0.99711225,-0.00695013,-0.05465734,0.05226319
1755649496134,0.17031960,-0.49406941,-1.24083445,-0.41045435,-0.03473333,-0.17182771,0.99713302,-0.00926919,-0.05485359,0.05129236
1755649496147,-1.59161000,2.43520100,1.11691109,-0.31677717,0.05229007,-0.19949406,0.99719253,-0.01120153,-0.05453462,0.05007545
1755649496156,0.84445441,0.12471473,-2.73208473,-0.29379621,0.11973993,-0.02853026,0.99721425,-0.01264113,-0.05394789,0.04993565
1755649496167,-0.47299240,1.73699806,2.13878365,-0.17934432,0.28653255,0.09767655,0.99725898,-0.01364546,-0.05234331,0.05048264
1755649496179,-1.15167090,-0.69211606,-2.50750777,0.09437297,0.16837488,0.23289931,0.99724835,-0.01312169,-0.05140883,0.05177523
1755649496190,1.78025398,3.28379457,-1.41259283,0.05872512,0.20749980,0.18923154,0.99725621,-0.01279577,-0.05025721,0.05282547
1755649496201,-0.74841418,-1.37397477,-0.56054010,0.26102705,0.12566979,0.21279281,0.99724528,-0.01133402,-0.04955346,0.05401711
1755649496212,0.38013166,0.60060803,-0.73555477,0.27700092,0.07671418,0.20041153,0.99722153,-0.00978281,-0.04912386,0.05513941
1755649496223,0.05038063,0.43589356,0.21639830,0.19407385,0.09697823,0.11455318,0.99722253,-0.00870570,-0.04858563,0.05577518
1755649496234,0.57407822,1.18316582,1.81922642,-0.03480277,0.10907661,0.04107500,0.99723762,-0.00890234,-0.04796934,0.05600725
1755649496246,-0.98586428,0.17971484,0.00186717,-0.13614209,-0.01101300,-0.08579454,0.99725457,-0.00967154,-0.04803157,0.05552252
1755649496257,0.48417039,0.39833421,2.62654980,-0.45099153,-0.07829547,-0.14120203,0.99724961,-0.01212944,-0.04845828,0.05475296
1755649496268,-0.83479614,0.12190833,1.14583797,-0.71451822,-0.19733520,-0.07128625,0.99716306,-0.01602357,-0.04953375,0.05436445
1755649496279,1.38009351,-3.56118033,-2.23660935,-0.61228997,-0.14465977,-0.09655576,0.99709012,-0.01948301,-0.05035108,0.05381891
1755649496290,2.07924623,0.71790677,-0.34980039,-0.90050266,-0.01158869,-0.10559749,0.99700815,-0.02448080,-0.05041540,0.05323285
1755649496301,0.15787450,-2.82407860,-1.72292108,-0.72089184,-0.05881151,-0.16182947,0.99693211,-0.02851779,-0.05074474,0.05232660
1755649496312,1.23394545,-0.84982767,-1.68854602,-0.59713794,-0.12497655,-0.21675676,0.99685867,-0.03183191,-0.05143836,0.05112360
1755649496323,0.92101181,0.83814844,1.38032837,-0.74692030,-0.08119270,-0.19834430,0.99675122,-0.03593997,-0.05188492,0.05003271
1755649496334,-1.23006402,-0.38069641,-0.20879283,-0.99167188,-0.28631112,-0.14842286,0.99649457,-0.04144375,-0.05347395,0.04920896
1755649496346,2.59640200,-2.37005243,-0.04547882,-0.87419577,-0.10688449,-0.12347688,0.99628053,-0.04633924,-0.05407250,0.04851749
1755649496357,-0.64216304,0.43554370,-2.01107884,-1.13097809,-0.34102917,-0.19375598,0.99591600,-0.05261617,-0.05596522,0.04744215
1755649496368,1.97449290,-1.92414686,-0.23254811,-1.05051002,-0.25154832,-0.26567846,0.99557737,-0.05849903,-0.05737389,0.04595435
1755649496379,-1.04797249,-0.46524771,-1.33855956,-1.07440806,-0.39384114,-0.37175022,0.99517378,-0.06446199,-0.05955970,0.04389113
1755649496390,-0.75467288,-1.42081683,0.33670021,-1.06334660,-0.22969243,-0.42240045,0.99479746,-0.07036357,-0.06083450,0.04154681
1755649496401,-1.41171297,-0.40998618,-0.69493945,-0.82509178,-0.09782017,-0.50172277,0.99453717,-0.07502534,-0.06138718,0.03871208
1755649496412,1.78131269,0.72616269,-0.33318966,-0.62878349,0.16580886,-0.33042825,0.99439521,-0.07848364,-0.06047523,0.03689472
1755649496424,-2.85313003,3.79012003,-2.35401716,-0.73865799,0.03718415,-0.25207868,0.99412411,-0.08262013,-0.06026700,0.03548308
1755649496435,1.61027981,-1.21086297,-1.97820012,-0.29029095,0.25502718,-0.03724140,0.99408106,-0.08423124,-0.05885160,0.03527639
1755649496446,-1.79960457,1.06089592,-1.92344832,-0.13258592,0.12846110,0.09753435,0.99404104,-0.08496710,-0.05813864,0.03581771
1755649496457,0.54332534,0.72940857,0.86109977,0.02736665,0.23679307,0.10635081,0.99411035,-0.08481111,-0.05678892,0.03642391
1755649496468,-0.24203878,-0.93624119,-0.82016819,0.06085607,0.25588930,0.18165441,0.99418051,-0.08447944,-0.05539432,0.03741392
1755649496479,-1.08274521,0.14219131,0.59441807,0.00771929,0.24834747,0.07470104,0.99424430,-0.08443660,-0.05401600,0.03782851
1755649496490,-0.19350587,0.89593217,0.17802540,-0.14940302,0.26358178,-0.00298318,0.99425257,-0.08526578,-0.05255312,0.03781196
1755649496501,-0.90173734,0.72661453,-0.57277737,-0.26221290,0.19202314,-0.02018737,0.99418671,-0.08672107,-0.05148739,0.03769992
1755649496513,0.62981995,-0.06742628,1.60446383,-0.29557365,0.25255276,-0.06041375,0.99412596,-0.08837628,-0.05007309,0.03736160
1755649496524,-1.18981211,0.63814603,-0.20717176,-0.32263090,0.08642248,0.04362501,0.99397874,-0.09018301,-0.04958913,0.03760590
1755649496535,-0.72510775,-1.05404164,-0.70579077,-0.37996460,0.07246847,-0.02899161,0.99381275,-0.09227282,-0.04919055,0.03744645
1755649496546,0.85789947,0.62832674,1.57292124,-0.54798216,0.22362983,0.02825744,0.99358043,-0.09531412,-0.04794941,0.03760328
1755649496557,-0.16468947,-0.60102326,-0.55208131,-0.50516802,0.13900187,-0.00090789,0.99334245,-0.09814306,-0.04717099,0.03759819
1755649496568,0.45995931,-0.01520527,-0.32881389,-0.53763339,0.07916671,-0.10774522,0.99308399,-0.10115381,-0.04672766,0.03699482
1755649496579,-0.76437503,-1.27850028,-1.02133649,-0.38941043,0.05983840,-0.20161738,0.99291964,-0.10329556,-0.04639855,0.03588592
1755649496591,-0.42008005,-0.09189683,0.06417314,-0.32762420,0.11209359,-0.14903659,0.99278601,-0.10513026,-0.04577083,0.03505132
1755649496602,-0.88255130,-0.13573239,-0.08959828,-0.27495497,0.18748341,-0.15346744,0.99269800,-0.10669750,-0.04470217,0.03417655
1755649496613,0.15513302,-0.12659694,-2.23017162,-0.25504606,0.19369841,-0.15330457,0.99262372,-0.10807475,-0.04365620,0.03334871
1755649496624,0.58710666,-0.26116030,-0.06655578,-0.14670997,0.17191012,-0.02237370,0.99258080,-0.10888166,-0.04271069,0.03322565
1755649496636,-0.82451320,1.68227196,2.14249654,-0.19659557,0.11915540,-0.00164878,0.99247986,-0.11008089,-0.04198385,0.03321560
1755649496646,0.43196756,-1.48038395,-5.37993478,-0.29160651,0.17067206,0.07894552,0.99233951,-0.11153892,-0.04113048,0.03361032
1755649496659,-1.35584512,2.30681676,4.11777520,-0.29986695,0.07990905,0.04297951,0.99214175,-0.11338310,-0.04063904,0.03387465
1755649496668,0.00925573,-0.65064484,-6.52697715,-0.54212521,0.04036262,0.05829436,0.99182966,-0.11606662,-0.04043925,0.03416320
1755649496679,0.16126744,-1.12404781,1.51364569,-0.51539197,-0.01293819,-0.00804718,0.99149556,-0.11887551,-0.04050976,0.03411935
1755649496690,-0.05517521,-0.73626069,0.45475715,-0.44873224,-0.01655971,-0.11453682,0.99120135,-0.12145572,-0.04060498,0.03346076
1755649496701,-0.32328063,-0.50729891,-2.01310093,-0.52253915,0.02634761,-0.15622293,0.99088547,-0.12427743,-0.04046270,0.03261716
1755649496712,-0.52655097,-0.05665422,0.17251586,-0.43111344,0.04090167,-0.18114040,0.99062428,-0.12667011,-0.04023570,0.03161183
1755649496724,0.05731740,1.07736636,-0.35637443,-0.45361551,0.04357393,-0.03785010,0.99030715,-0.12925572,-0.03998733,0.03139608
1755649496735,0.28444640,-0.00075307,-3.32406381,-0.36635311,0.07854575,-0.01431138,0.99006642,-0.13123403,-0.03956318,0.03131880
1755649496747,-0.22442139,0.39537980,1.46605037,-0.26276350,0.03718539,0.04281321,0.98985865,-0.13279747,-0.03934193,0.03157354
1755649496757,-0.06520323,-1.18811587,-5.26253057,-0.20822152,0.16135729,0.07496735,0.98973328,-0.13388022,-0.03850287,0.03196337
1755649496768,-0.92869089,1.59169169,1.48127075,-0.21576850,0.13831402,0.09494161,0.98958160,-0.13508852,-0.03772831,0.03249504
1755649496779,-0.45615800,-0.43239977,-0.28129743,-0.21415898,0.11916672,0.19130697,0.98940660,-0.13628781,-0.03706098,0.03356636
1755649496790,-0.37042552,-1.61132940,-1.01366839,-0.21121813,0.10814748,0.20245986,0.98922795,-0.13746008,-0.03646076,0.03469001
1755649496802,-0.21601947,0.73362849,-0.38346736,-0.26794970,0.10646012,0.10794519,0.98901681,-0.13897399,-0.03585926,0.03529990
1755649496813,-0.19414558,0.40307788,-2.22978827,-0.34341195,0.05389421,0.12086728,0.98873632,-0.14086276,-0.03556284,0.03596467
1755649496824,0.31198442,-0.35117254,-0.19512849,-0.28312815,-0.00325185,0.11771538,0.98848428,-0.14244827,-0.03558105,0.03662388
1755649496835,-0.47125966,-0.70855661,-1.62987859,-0.19197202,-0.05613919,0.11629241,0.98829133,-0.14353292,-0.03589824,0.03728093
1755649496846,-0.55865241,-0.01601605,-2.33872706,-0.19730000,-0.03663531,0.15221753,0.98809384,-0.14461807,-0.03609973,0.03811813
1755649496857,0.03580149,0.50443472,-0.62303580,-0.16753534,0.00240520,0.14131519,0.98792571,-0.14555626,-0.03608626,0.03890949
1755649496868,0.00295560,-0.45646461,-1.81977132,-0.14670083,-0.02651871,0.16547544,0.98776489,-0.14636312,-0.03623212,0.03981961
1755649496880,0.13014326,-0.54097919,-0.59710045,-0.16608869,-0.08658089,0.09163595,0.98758789,-0.14729322,-0.03671697,0.04033277
1755649496891,-0.43520230,0.39560240,0.28587656,-0.18578804,-0.13717216,0.02041582,0.98739013,-0.14838008,-0.03751943,0.04045220
1755649496902,-1.21385422,-1.11314520,-5.82948771,-0.07544428,-0.08733743,-0.02049868,0.98731531,-0.14878747,-0.03799105,0.04034151
1755649496913,0.59651654,1.24984374,-0.94169122,-0.08923228,0.06347614,0.04294346,0.98724557,-0.14927379,-0.03764510,0.04057555
1755649496924,0.53216949,0.22749022,0.44298115,0.10574683,0.06471069,0.13218928,0.98731990,-0.14866575,-0.03727302,0.04133564
1755649496935,-0.64497700,-0.71248428,-5.97493744,0.25430138,0.04605115,0.18318377,0.98749156,-0.14730523,-0.03702664,0.04231567
1755649496946,-0.21327511,0.63799677,0.21457854,0.31621847,0.07838269,0.21796657,0.98771142,-0.14558184,-0.03659946,0.04350359
1755649496957,-0.38487459,0.06252120,-0.31512567,0.39670539,0.05960444,0.26261925,0.98798276,-0.14336029,-0.03626567,0.04497426
1755649496969,-0.24314911,1.13337523,1.94412849,0.44021062,0.05657984,0.21483050,0.98831532,-0.14071903,-0.03592619,0.04626324
1755649496980,-0.88709360,-0.66992722,-12.08115377,0.58428161,0.07606821,0.25852581,0.98869005,-0.13770998,-0.03553444,0.04759465
1755649496991,0.35027472,2.22329045,3.68650210,0.64087038,0.12960304,0.22112899,0.98914874,-0.13412110,-0.03480867,0.04883297
1755649497002,-1.09341181,-0.76870206,-1.52928377,0.68174999,0.19991695,0.32627003,0.98960181,-0.13033739,-0.03369913,0.05064377
1755649497013,1.47838483,1.23359990,0.24768750,0.72774949,0.40242220,0.36814940,0.99009227,-0.12629838,-0.03146568,0.05268700
1755649497024,-5.32915158,4.12554509,-1.28294389,0.18773499,-0.02336885,0.41899907,0.99009403,-0.12525645,-0.03159538,0.05501244
1755649497035,3.08300477,-3.86094337,1.79658442,0.68503946,0.18129421,0.31190539,0.99050512,-0.12142023,-0.03058013,0.05675911
1755649497046,-2.68372954,2.77211015,-0.70229324,0.08066569,-0.21501315,0.47998310,0.99036480,-0.12096850,-0.03178421,0.05944702
1755649497058,1.85340611,-1.53884245,-0.24111349,0.17728753,-0.12578229,0.23209771,0.99038369,-0.11998456,-0.03248230,0.06073516
1755649497069,0.38705076,-0.72640359,-2.28413910,0.02068289,-0.40633530,0.16867634,0.99026431,-0.11987080,-0.03471714,0.06166288
1755649497080,0.74191040,0.25678641,2.35410742,-0.13167343,-0.42795118,0.06897324,0.99006189,-0.12061476,-0.03713507,0.06205258
1755649497091,-1.93256280,-0.35935415,-3.56803962,-0.16520038,-0.56654241,-0.11119821,0.98986713,-0.12152336,-0.04025105,0.06144099
1755649497102,1.12207955,1.99740182,-0.95197063,-0.27554945,-0.48522939,-0.07299091,0.98958751,-0.12306644,-0.04296833,0.06103224
1755649497113,0.61165131,-1.00829515,-3.30225538,-0.03674048,-0.36382476,-0.05920440,0.98949260,-0.12327035,-0.04498756,0.06070366
1755649497125,1.24233983,1.61859685,-0.40499009,0.03088566,-0.27604805,0.13190287,0.98939531,-0.12309430,-0.04656104,0.06145550
1755649497136,-0.45810106,2.47760702,-5.84007986,-0.02440095,-0.29065866,0.20440308,0.98923160,-0.12322850,-0.04815966,0.06257972
1755649497147,1.36080362,1.29376264,-0.61574447,-0.03536419,-0.15061185,0.22069699,0.98908783,-0.12342477,-0.04899555,0.06380459
1755649497158,-1.19977924,1.03284984,-2.47514378,-0.02015608,-0.23689604,0.15115344,0.98895460,-0.12353563,-0.05029848,0.06463593
1755649497169,0.52331023,2.61484918,-0.25236684,-0.01256626,-0.09650086,0.03185141,0.98890693,-0.12360538,-0.05083406,0.06481271
1755649497174,1.55570141,-3.58238725,29.99961128,0.09133194,-0.01778691,0.08064095,0.98892174,-0.12334508,-0.05088475,0.06504253
1755649497186,-1.68505030,3.71790441,-7.84795157,-0.01206550,-0.00176190,0.00368452,0.98891144,-0.12341265,-0.05089462,0.06506317
1755649497197,0.55304668,1.86979364,-1.55075948,-0.03052356,0.00622938,0.07615916,0.98886416,-0.12358205,-0.05086005,0.06548585
1755649497208,0.07700803,2.03249560,0.98071696,-0.02904300,-0.05379669,0.07253246,0.98880074,-0.12374615,-0.05116400,0.06589566
1755649497219,1.83344241,0.81992546,-0.80294661,0.08952826,-0.08101973,0.19798455,0.98876559,-0.12324926,-0.05161366,0.06699447
1755649497230,-0.56502633,-0.39995159,-1.27113802,0.24602172,-0.23017583,0.17243273,0.98880234,-0.12187154,-0.05290264,0.06796010
1755649497242,0.46756195,1.67352965,-4.47414967,0.25626667,-0.21690652,0.08103421,0.98888114,-0.12043645,-0.05411732,0.06841389
1755649497253,2.06033623,-0.63974714,-1.76528621,0.22389845,-0.23627869,-0.00899296,0.98896180,-0.11920501,-0.05541685,0.06836443
1755649497264,0.59923490,-0.32452693,2.11665513,0.27226789,-0.20155052,-0.08174991,0.98911072,-0.11769392,-0.05653546,0.06791072
1755649497275,1.20948699,-1.75914484,2.33765969,0.39261237,-0.19587724,-0.05858460,0.98933095,-0.11547566,-0.05764216,0.06757971
1755649497286,-0.87377715,0.02676171,0.12367321,0.45009963,-0.17955600,-0.11827763,0.98960296,-0.11300011,-0.05862972,0.06692919
1755649497297,0.52527284,-1.03817413,3.44718943,0.46940685,-0.04898208,-0.16548557,0.98994552,-0.11037143,-0.05890402,0.06600247
1755649497308,-0.34211850,-0.72415082,1.66117537,0.41704633,-0.09710837,-0.13495719,0.99022071,-0.10803597,-0.05944783,0.06524671
1755649497319,0.25492286,0.70125688,-1.32531418,0.38522853,-0.19046896,-0.16968393,0.99044313,-0.10595574,-0.06047636,0.06433041
1755649497331,0.33939241,-1.07695937,4.02332881,0.42562288,-0.31025344,-0.15869261,0.99064845,-0.10352969,-0.06224481,0.06342586
1755649497342,0.49590510,1.13700215,-0.90132886,0.24450688,-0.42493233,-0.13865886,0.99068763,-0.10216045,-0.06462443,0.06264938
1755649497353,2.20811031,0.48958181,-1.60242980,0.10204606,-0.41054537,-0.12007681,0.99063751,-0.10160430,-0.06686190,0.06199496
1755649497364,0.92327135,-0.97605737,2.48459998,0.05603901,-0.39318489,-0.08792614,0.99054847,-0.10128768,-0.06908339,0.06149817
1755649497375,1.35565716,-2.02764920,-0.66882988,0.18925764,-0.32287559,-0.01948118,0.99053529,-0.10022784,-0.07089150,0.06138908
1755649497386,-0.46126961,-0.03016618,-0.26420462,-0.04978301,-0.31765592,0.02318068,0.99037155,-0.10050413,-0.07265449,0.06151773
1755649497398,0.14164185,-0.03092422,0.62772238,-0.14227169,-0.34107177,-0.05733476,0.99016829,-0.10130085,-0.07456449,0.06119666
1755649497409,0.48656853,-0.51507840,-0.47516458,-0.21978864,-0.41861557,-0.10106896,0.98989708,-0.10253167,-0.07690874,0.06063067
1755649497420,1.41249638,-1.49866625,-1.45434982,-0.12706416,-0.39442607,-0.14442509,0.98970184,-0.10323052,-0.07907808,0.05983633
1755649497431,0.49939883,-1.39318498,2.25473302,-0.08413196,-0.29029595,-0.13335660,0.98956376,-0.10371008,-0.08073277,0.05907620
1755649497442,0.39670750,-0.13789354,-2.53179306,-0.15703990,-0.24122592,-0.13069029,0.98940637,-0.10457380,-0.08205951,0.05835740
1755649497453,-0.32347144,-1.54658245,0.61855909,-0.13177023,-0.23818098,-0.15727331,0.98926938,-0.10530512,-0.08338141,0.05748454
1755649497464,0.51382842,-0.34600115,-0.06219091,-0.03716086,-0.24692376,-0.16519740,0.98918301,-0.10551322,-0.08476419,0.05655943
1755649497476,1.01410896,0.23494981,-1.33049106,-0.07230450,-0.27085126,-0.12908489,0.98905086,-0.10591451,-0.08626741,0.05584301
1755649497487,0.24177744,-0.42291788,0.00050513,-0.00206321,-0.24412443,-0.10199526,0.98896152,-0.10592607,-0.08763451,0.05527184
1755649497498,0.73953158,-1.13808425,0.41406933,0.08393499,-0.23183411,-0.04491877,0.98890941,-0.10545183,-0.08894437,0.05501805
1755649497509,0.41965087,-0.39231174,-2.16746264,0.04090110,-0.29555476,-0.02235811,0.98879159,-0.10522483,-0.09058470,0.05489396
1755649497520,0.22059669,-0.93850346,-0.73048466,-0.02064561,-0.32763772,-0.01582336,0.98861598,-0.10533941,-0.09240309,0.05480614
1755649497532,0.26910582,-1.38403028,0.05377494,-0.01740731,-0.30790019,-0.06569041,0.98846324,-0.10543690,-0.09412733,0.05443827
1755649497543,0.15205267,-0.82488571,-0.91136566,-0.01063092,-0.31263219,-0.10283304,0.98832016,-0.10549643,-0.09587807,0.05386241
1755649497554,-0.40560212,-1.57841181,-1.12779366,0.02395724,-0.27608773,-0.08668177,0.98821060,-0.10536347,-0.09741036,0.05338132
1755649497564,0.92778244,-1.15153091,-5.36183907,0.00344725,-0.21153963,-0.04569483,0.98811536,-0.10534537,-0.09852094,0.05314143
1755649497575,-0.01459587,-0.35862166,3.52202793,-0.03238744,-0.14755473,-0.06534116,0.98803362,-0.10552512,-0.09933987,0.05277878
1755649497587,0.00079332,0.33406228,1.01150837,-0.08393255,-0.15062826,-0.02957040,0.98790469,-0.10600353,-0.10019845,0.05261023
1755649497598,0.43043117,-1.59257078,-0.66648861,-0.04220849,-0.09903210,0.11204879,0.98778824,-0.10624201,-0.10075798,0.05324331
1755649497609,1.16588481,-1.71069646,-3.66067464,0.03894198,-0.12354021,0.14977506,0.98769696,-0.10602783,-0.10143745,0.05406707
1755649497620,0.70540373,-0.42905492,-1.32312459,0.02987879,-0.10925474,0.10979483,0.98761945,-0.10586350,-0.10203835,0.05467094
1755649497631,0.36416613,-0.75653976,0.94027295,-0.01439363,0.02608168,0.08874277,0.98759825,-0.10594410,-0.10189230,0.05516790
1755649497642,0.49496602,-1.13167420,0.61558168,0.00939672,0.16477886,0.05585241,0.98768188,-0.10589101,-0.10096130,0.05548347
1755649497654,0.70441251,-0.77326704,-3.39954601,0.02231226,0.16783112,0.01058803,0.98778474,-0.10576941,-0.10004662,0.05554117
1755649497665,-0.44794883,-0.12233799,3.03274203,-0.01951031,0.13417064,0.02677999,0.98784089,-0.10587964,-0.09928855,0.05569248
1755649497676,1.06610926,-1.42836670,-2.53652572,0.02359625,0.13772969,0.06057887,0.98791180,-0.10574986,-0.09853104,0.05602566
1755649497687,1.18877538,-0.63300561,1.21410598,0.04442256,0.16496100,0.06526121,0.98800930,-0.10550110,-0.09760726,0.05639113
1755649497698,1.48778368,-0.33273507,-1.58952976,-0.04424768,0.14649261,0.03570071,0.98805171,-0.10574667,-0.09679422,0.05658926
1755649497709,0.49000523,-0.34262518,1.35869215,-0.10804141,0.14619076,-0.06851041,0.98808885,-0.10635710,-0.09596825,0.05620218
1755649497720,1.56906732,-0.24703255,-1.47522912,-0.34219123,0.10244327,-0.17054193,0.98799194,-0.10823916,-0.09540481,0.05526420
1755649497732,0.63850328,0.88277968,2.03822518,-0.47212875,0.04190321,-0.21015553,0.98778462,-0.11090668,-0.09516805,0.05407682
1755649497743,1.57065021,-0.90248892,-2.16018229,-0.31725766,0.02421023,-0.26849829,0.98767776,-0.11268333,-0.09503248,0.05257323
1755649497754,1.50886200,0.93788579,-2.78492088,-0.31499773,0.08415904,-0.18798864,0.98757657,-0.11443156,-0.09456539,0.05152989
1755649497765,0.62574466,0.24937151,0.20937207,-0.30974036,0.23660936,-0.09370181,0.98752729,-0.11616611,-0.09324038,0.05100516
1755649497776,0.52965320,0.65689195,-2.67168541,-0.20645017,0.26656652,-0.02581498,0.98753780,-0.11731191,-0.09176094,0.05086189
1755649497788,-0.28253408,2.18883920,1.48270297,-0.07030239,0.29263909,-0.10044282,0.98767419,-0.11771615,-0.09007826,0.05028434
1755649497799,1.44535975,1.40934640,-3.58536879,-0.09578881,0.29882078,0.05116129,0.98774668,-0.11825256,-0.08840487,0.05057085
1755649497810,0.53718611,3.18792278,-2.91285074,-0.06412104,0.24915349,0.02355953,0.98782010,-0.11860844,-0.08702207,0.05070160
1755649497821,0.34571434,4.11293470,-0.75766918,-0.35108781,0.28385517,0.10901809,0.98768929,-0.12057453,-0.08543248,0.05131210
1755649497832,1.24303054,3.00018915,0.30695632,-0.41936283,0.36174777,0.10919044,0.98754099,-0.12292296,-0.08340669,0.05192357
1755649497844,0.19654668,0.46095430,-0.54468447,-0.24134652,0.38874487,0.16948455,0.98750332,-0.12426243,-0.08124915,0.05286421
1755649497855,-0.22520233,4.29100584,0.82491996,-0.34104427,0.31203083,0.19137915,0.98734540,-0.12617228,-0.07950178,0.05393593
1755649497866,-1.23954330,3.35493821,-1.87825088,-0.43889356,0.19122933,0.07077954,0.98709444,-0.12860814,-0.07844046,0.05432876
1755649497877,0.41023244,1.85039986,-0.25639527,-0.36875750,0.21675642,0.06738780,0.98689985,-0.13065474,-0.07723746,0.05470276
1755649497888,-0.06966211,0.06288941,-0.37733645,-0.04748008,0.21844273,0.10192883,0.98692755,-0.13091826,-0.07602510,0.05526847
1755649497899,-0.21903803,1.38692407,1.36436446,0.15986115,0.24229878,0.17978276,0.98709258,-0.13002304,-0.07466823,0.05627525
1755649497911,-0.55308160,0.73042080,1.91558017,0.35619064,0.18117183,0.21338260,0.98736301,-0.12801056,-0.07364461,0.05748086
1755649497922,-0.57822293,1.34687790,0.38952903,0.47420870,0.09041115,0.17120023,0.98768220,-0.12537870,-0.07314283,0.05843102
1755649497933,-1.94418510,0.79724911,2.32077228,0.49375407,0.08312192,0.10726238,0.98802791,-0.12261368,-0.07267735,0.05903169
1755649497944,-0.88435499,1.64121149,-1.52591459,0.40474561,-0.01468706,0.12702898,0.98825167,-0.12040781,-0.07275739,0.05972400
1755649497955,-1.97340729,-0.68647515,4.59125278,0.37113164,-0.04562184,0.06012334,0.98846531,-0.11831092,-0.07301515,0.06006370
1755649497966,-0.62439059,-1.62438677,-0.51831149,0.40650796,0.02384113,0.12979988,0.98869640,-0.11607513,-0.07288403,0.06077760
1755649497977,-2.11700808,-0.94876438,3.46265311,0.32651377,0.01922631,0.07896076,0.98889343,-0.11421400,-0.07277444,0.06122767
1755649497988,0.26657711,0.14051451,-3.25173374,0.11877035,0.04205587,0.14802129,0.98893454,-0.11356670,-0.07254523,0.06203439
1755649498000,-1.50106670,-1.47574784,2.74198734,0.09389911,0.12473455,-0.01161728,0.98904985,-0.11304087,-0.07184672,0.06196933
1755649498011,0.73442387,0.08071959,0.73209144,-0.02855919,0.18040255,0.01536773,0.98909860,-0.11319937,-0.07084549,0.06205462
1755649498022,-1.46409706,-0.36680976,-1.36403262,-0.03675120,-0.03809334,-0.00273997,0.98906136,-0.11340150,-0.07105500,0.06203955
1755649498033,0.12216489,-0.77929379,1.02165317,-0.02753637,-0.02611705,0.01645575,0.98902798,-0.11355295,-0.07119864,0.06213006
1755649498044,-0.94532978,-0.72568726,1.60487264,-0.05496817,-0.03798791,0.08100555,0.98894793,-0.11386352,-0.07141327,0.06258774
1755649498055,1.18435805,-0.34378111,-3.60197770,-0.06316240,0.07066411,0.07785349,0.98890939,-0.11420460,-0.07103169,0.06300815
1755649498066,-1.09460948,-1.16049628,3.54529236,-0.00887941,0.09648524,0.08047721,0.98891353,-0.11425477,-0.07048655,0.06346285
1755649498077,-0.81302601,0.85449599,-2.90879211,-0.11242501,0.03821127,0.07374245,0.98883074,-0.11487310,-0.07027638,0.06386843
1755649498088,-0.80097197,-1.23019246,1.80911570,-0.11139109,0.05756664,0.08455455,0.98875023,-0.11549689,-0.06995401,0.06434194
1755649498100,-0.93161640,-1.55669230,0.61274759,-0.08519635,0.04647056,0.03636672,0.98869903,-0.11597825,-0.06969145,0.06454741
1755649498111,0.16072974,-0.66724419,-1.93028096,-0.18628161,0.04008569,0.02867178,0.98858247,-0.11701212,-0.06946898,0.06470654
1755649498122,-0.86735168,-1.32763893,2.77991377,-0.21656878,0.06589213,-0.02542832,0.98847039,-0.11825739,-0.06909010,0.06456032
1755649498133,0.26390835,-0.94223475,-3.33095952,-0.24577896,0.06449510,-0.02043876,0.98833860,-0.11962146,-0.06873215,0.06444689
1755649498144,-0.90532979,-1.92953634,0.50434226,-0.22794474,0.03275167,0.00916456,0.98819266,-0.12089795,-0.06854874,0.06449821
1755649498155,-0.32495164,-1.52651077,-1.19002653,-0.25575612,0.02727861,0.03302545,0.98801648,-0.12231740,-0.06839734,0.06468150
1755649498167,-0.13030640,-1.73534385,0.40773402,-0.30704969,-0.01748186,0.01018829,0.98779156,-0.12403688,-0.06849524,0.06473856
1755649498178,-0.78960760,-2.53324232,-2.10264858,-0.28224790,-0.05973414,-0.04910478,0.98758838,-0.12560335,-0.06882677,0.06446602
1755649498189,-0.11997364,-2.20161300,-0.72758205,-0.27795839,0.07684738,-0.07053652,0.98744607,-0.12714602,-0.06840026,0.06407455
1755649498200,-0.39475197,-1.79766951,-0.96559429,-0.21489982,0.13292324,-0.04415261,0.98735847,-0.12833871,-0.06766254,0.06382950
1755649498211,-0.46352091,-0.94929749,0.56312568,-0.21904039,0.18809988,0.04975058,0.98725184,-0.12956534,-0.06660918,0.06410810
1755649498222,-0.51144292,-0.79337838,-1.14291131,-0.14773243,0.18423268,0.06918375,0.98718734,-0.13038526,-0.06558669,0.06449207
1755649498234,-0.92621991,0.32871115,-0.00578759,-0.22577329,0.11391436,0.16478126,0.98700098,-0.13164959,-0.06494877,0.06541485
1755649498245,-0.51285966,-1.90535898,-0.91911831,-0.04052002,0.08824192,0.26782333,0.98690343,-0.13187447,-0.06445903,0.06690127
1755649498256,0.58810820,-0.34540184,1.08197114,0.10741814,0.13845810,0.27451830,0.98692855,-0.13127293,-0.06368366,0.06843857
1755649498267,-0.77166728,0.13779773,-1.59845364,0.18888651,0.00921260,0.35911080,0.98693051,-0.13021517,-0.06363207,0.07044959
1755649498278,-0.65073259,0.89835531,-1.72933774,0.20421000,0.04247485,0.54275418,0.98687494,-0.12908180,-0.06339633,0.07346188
1755649498289,-1.02171098,-1.67576081,-0.64050443,0.48564175,0.12122875,0.50892381,0.98705248,-0.12638649,-0.06272351,0.07628640
1755649498300,-1.30422955,-0.84949076,-0.13158399,0.67592912,0.13204795,0.44266310,0.98737901,-0.12263508,-0.06199065,0.07874318
1755649498312,-2.77874425,-0.02370447,-0.68501076,0.71728666,0.01055689,0.25126862,0.98775683,-0.11865414,-0.06193206,0.08013772
1755649498323,2.38654246,1.15505738,3.37032089,0.50017538,0.12098622,0.24048452,0.98802368,-0.11582815,-0.06124849,0.08149646
1755649498334,-1.55430118,-0.99396440,-1.85988667,0.55548405,0.03120306,0.15007585,0.98832455,-0.11271744,-0.06107375,0.08233689
1755649498345,-0.33451586,1.06294316,0.25848953,0.48680664,0.05172170,0.12292836,0.98859193,-0.10999132,-0.06078411,0.08302528
1755649498356,-2.96579101,-0.33843716,-3.62055557,0.56516574,-0.03124506,0.14375944,0.98885320,-0.10691117,-0.06095439,0.08380877
1755649498367,-0.65267560,0.46954543,2.33376430,0.63710255,0.01962740,0.14019404,0.98917237,-0.10334339,-0.06084448,0.08459386
1755649498379,-0.26650477,0.96014488,0.30184758,0.51925862,-0.05007887,0.17306108,0.98937296,-0.10040958,-0.06112743,0.08557166
1755649498390,-0.05830993,0.82111686,-4.15890722,0.35337815,-0.17455590,0.17937206,0.98942269,-0.09846600,-0.06208748,0.08655820
1755649498401,0.85833730,1.10385051,0.73524375,0.16061923,-0.12173588,0.17977940,0.98938020,-0.09756654,-0.06276920,0.08756497
1755649498412,0.06842370,0.35067146,-1.61936088,0.12763862,-0.13659074,0.06224204,0.98937069,-0.09685176,-0.06353411,0.08791352
1755649498423,0.55389393,0.19978464,-2.29579921,0.16902309,-0.10999728,-0.05767885,0.98945036,-0.09592213,-0.06413910,0.08759629
1755649498434,-0.71013461,1.43612316,2.93983777,0.27492999,-0.13347247,-0.26380558,0.98968136,-0.09436878,-0.06489322,0.08610579
1755649498445,-0.68213387,1.95024803,-0.97616004,0.19054378,-0.22809817,-0.27796128,0.98983082,-0.09331126,-0.06615916,0.08456310
1755649498456,-0.57664748,2.79470849,0.45667386,-0.01849026,-0.32813755,-0.13687926,0.98976235,-0.09341388,-0.06798032,0.08380342
1755649498468,-0.11191624,4.28738003,0.00883549,-0.24658481,-0.39169191,-0.05089277,0.98950203,-0.09479476,-0.07017380,0.08351842
1755649498479,1.42549374,4.12822986,-0.30410534,-0.24961453,-0.30843384,0.06419335,0.98921268,-0.09619260,-0.07190103,0.08387790
1755649498490,1.41890018,1.04352110,-2.32127368,0.11754110,-0.26807510,0.14289186,0.98910011,-0.09554612,-0.07337544,0.08466381
1755649498501,-0.40106751,1.92534643,2.77878612,0.18778907,-0.31934790,0.18143814,0.98897825,-0.09448511,-0.07517976,0.08568894
1755649498512,0.95862464,1.08842769,-1.24453385,0.30785856,-0.33062811,0.21998491,0.98889227,-0.09277650,-0.07701474,0.08690985
1755649498523,0.56116702,0.01064282,0.66566018,0.66618935,-0.28960871,0.07075495,0.98907115,-0.08907915,-0.07862207,0.08730254
1755649498534,0.80440654,-0.05959677,1.96579439,0.81087395,-0.26538498,0.06666209,0.98931739,-0.08453825,-0.08010823,0.08767585
1755649498546,-0.67619934,2.60570336,0.56883814,0.78289552,-0.22080646,0.13781511,0.98951105,-0.08019318,-0.08133370,0.08844072
1755649498557,0.40787100,0.78932970,0.79141014,0.64256307,-0.27879966,0.06580477,0.98963356,-0.07659483,-0.08289498,0.08880923
1755649498568,1.93106885,-0.27559546,2.03940638,0.56887392,-0.08199424,0.15322715,0.98975904,-0.07340914,-0.08335415,0.08966730
1755649498579,0.21748677,0.85165906,-1.03542916,0.46670828,-0.15918216,0.08719748,0.98982901,-0.07081890,-0.08423761,0.09015125
1755649498590,1.11459380,1.03719145,1.41646294,0.09558068,-0.14612292,0.08821111,0.98975275,-0.07028843,-0.08504859,0.09064082
1755649498601,0.55792974,-3.03429388,3.48157715,0.20353219,0.02798348,0.01133838,0.98984145,-0.06913848,-0.08489049,0.09070488
1755649498613,1.05746675,-0.29303296,0.79409329,0.07607035,0.06539938,0.05037857,0.98987625,-0.06871628,-0.08452752,0.09098448
1755649498624,-0.16913500,0.07175989,1.42633990,-0.12795010,-0.00987343,-0.09101144,0.98986839,-0.06942001,-0.08458182,0.09048392
1755649498635,-0.98987020,-0.25720228,3.98380490,-0.23420470,-0.08834224,-0.25929127,0.98986476,-0.07074327,-0.08508096,0.08901892
1755649498646,0.42180541,-0.13774501,-2.35258962,-0.32262535,-0.22466652,-0.41859632,0.98983375,-0.07251771,-0.08631662,0.08671664
1755649498657,0.74183113,-0.60498730,0.67438554,-0.38920039,-0.26930501,-0.41532417,0.98974092,-0.07467777,-0.08781127,0.08441159
1755649498668,3.05352259,-0.74548135,-1.16103520,-0.26078651,-0.06366966,-0.35430659,0.98976500,-0.07612513,-0.08816463,0.08244519
1755649498679,1.31334186,-0.09983036,0.12612630,-0.12824805,0.06359710,-0.20778895,0.98983804,-0.07684974,-0.08780531,0.08127119
1755649498691,0.79542899,0.76438671,-2.60140383,0.09284533,0.05583162,-0.10356486,0.98995237,-0.07633444,-0.08749544,0.08069640
1755649498702,0.03376665,-1.04715571,1.37092259,0.33149006,-0.01564038,0.04194230,0.99006684,-0.07447810,-0.08758303,0.08093128
1755649498713,-0.52257862,-1.73139354,-0.74421360,0.40078755,-0.13396515,0.06901497,0.99013365,-0.07227377,-0.08831984,0.08131086
1755649498724,-0.42187794,-0.66444842,2.57080066,0.22349775,-0.05208798,-0.02500244,0.99021032,-0.07101101,-0.08861413,0.08116960
1755649498735,1.15849145,-1.04695016,-2.98770407,0.19047925,0.04316884,-0.15974885,0.99037773,-0.06996337,-0.08837671,0.08029098
1755649498746,-0.61791701,-1.54718936,-0.09504656,0.08264362,0.02559228,-0.17132834,0.99049931,-0.06950470,-0.08823467,0.07934011
1755649498757,-0.51982323,-1.97133935,2.08583779,0.07068587,0.06757905,-0.21483119,0.99065906,-0.06910179,-0.08784947,0.07811557
1755649498769,1.11826022,-2.05013101,-2.78271621,0.09137941,0.08459980,-0.17099311,0.99081020,-0.06859463,-0.08737994,0.07716656
1755649498780,1.11361411,-1.74699168,-1.66756320,0.07283682,0.10015741,-0.12757149,0.99094067,-0.06819403,-0.08682907,0.07646491
1755649498791,0.70586994,-1.46805984,1.72959906,0.03448645,0.12726770,-0.09930660,0.99105888,-0.06800091,-0.08611637,0.07590880
1755649498802,0.43335009,-2.11543271,-0.38773429,-0.00280482,0.09602175,-0.02898385,0.99111680,-0.06801661,-0.08557865,0.07574649
1755649498813,-0.15205267,-1.87927591,0.31170796,-0.00926182,0.10437672,-0.03070651,0.99117666,-0.06806848,-0.08499414,0.07557453
1755649498824,0.23623706,-1.30968364,-2.36539661,-0.03059831,0.10545755,-0.10692456,0.99125932,-0.06823677,-0.08441413,0.07498644
1755649498835,0.18569527,-1.80950855,0.78398022,-0.01067356,0.16006293,-0.09464948,0.99137008,-0.06829601,-0.08352578,0.07446114
1755649498847,0.86673565,-1.57661243,1.31446889,0.01236755,0.23638203,-0.08088649,0.99152073,-0.06822613,-0.08219022,0.07400413
1755649498858,1.13784875,-0.83218654,-1.80450216,-0.00694137,0.28955020,-0.00895189,0.99165368,-0.06826466,-0.08058321,0.07395445
1755649498869,1.14555473,-1.18038579,0.19931104,0.06024570,0.29791510,0.08856594,0.99177284,-0.06793029,-0.07892979,0.07444599
1755649498880,-1.10019408,-0.67121460,-0.85858025,0.00879020,0.19584989,0.12118452,0.99181103,-0.06788195,-0.07785261,0.07511250
1755649498891,0.53764440,-1.64883837,1.81969027,0.19026154,0.22579022,0.05733852,0.99195745,-0.06681648,-0.07658819,0.07543360
1755649498902,0.27430687,0.48918113,-0.09867645,0.09190087,0.12285445,0.06257798,0.99201869,-0.06629724,-0.07589406,0.07578717
1755649498913,1.56503435,-2.24291709,-1.44401612,0.29592988,0.21407142,0.00999372,0.99221302,-0.06465483,-0.07470596,0.07584263
1755649498924,2.72069250,-1.83319971,-3.30529224,0.42976135,0.25120613,0.12894597,0.99240924,-0.06233412,-0.07334945,0.07653894
1755649498935,0.09288282,-0.00869433,1.96397705,0.33985091,0.26715198,0.13397121,0.99257676,-0.06044795,-0.07186676,0.07728248
1755649498947,0.23611200,-1.55179678,1.95474160,0.45752952,0.41285161,0.03452044,0.99288437,-0.05784003,-0.06951350,0.07747925
1755649498958,1.45464025,0.71374337,-3.00544992,0.30832247,0.43458810,-0.02445798,0.99315663,-0.05614425,-0.06712327,0.07734473
1755649498969,-0.51801578,0.89126188,1.82535769,0.15131099,0.31586778,-0.04407997,0.99334132,-0.05529691,-0.06535441,0.07709788
1755649498980,0.02660922,0.32168642,0.29460204,0.00919255,0.21410809,-0.05609718,0.99344667,-0.05524544,-0.06415540,0.07678373
1755649498991,0.31906430,-0.06556863,0.67493288,-0.04189808,0.11676542,-0.09963313,0.99351729,-0.05547587,-0.06351319,0.07623575
1755649499003,-0.03097516,1.38581055,3.28484178,-0.07707297,-0.01030341,-0.10988685,0.99353694,-0.05591904,-0.06357244,0.07560390
1755649499014,2.04613343,-0.61482951,-5.40455425,-0.04540558,-0.06118732,-0.14588321,0.99356200,-0.05616877,-0.06390897,0.07480155
1755649499025,2.19502725,1.88961502,-2.18714564,-0.03074300,0.05030105,-0.24167805,0.99366936,-0.05633786,-0.06363231,0.07347232
1755649499036,-0.36437348,2.02277561,0.78421161,-0.02958052,0.04108952,-0.24182807,0.99377387,-0.05650351,-0.06340221,0.07211808
1755649499047,1.20581799,1.92417829,-1.79789410,0.06129929,0.06795520,-0.20388339,0.99389861,-0.05616330,-0.06302506,0.07098653
1755649499058,0.79683816,3.51367939,-0.17583658,0.12818208,0.03034001,-0.02619831,0.99396013,-0.05544548,-0.06285515,0.07083982
1755649499069,0.15964234,2.89018722,-2.52779134,-0.01664195,0.01156080,0.11401979,0.99391373,-0.05553784,-0.06279099,0.07147263
1755649499080,-0.71790055,4.14026663,1.20275846,-0.28347114,0.13101987,0.14471880,0.99381030,-0.05713946,-0.06205073,0.07229029
1755649499092,-0.57942669,1.97504301,0.64462640,-0.20993257,0.24542401,0.11529926,0.99377911,-0.05833607,-0.06065181,0.07294749
1755649499103,0.49063660,3.27764358,-2.44728098,-0.17444402,0.27527837,0.06323330,0.99378812,-0.05931296,-0.05911025,0.07330160
1755649499114,-0.31171839,4.72850156,-2.95402454,-0.37013075,0.24208279,-0.01413494,0.99374934,-0.06131166,-0.05780301,0.07322527
1755649499125,-2.18927680,3.23402292,4.35574570,-0.38352126,0.18060212,-0.08634830,0.99370834,-0.06345938,-0.05679164,0.07274172
1755649499136,-0.00594849,1.49775331,-2.52273558,-0.00792315,0.15433815,-0.10476113,0.99379492,-0.06350256,-0.05595049,0.07217077
1755649499147,-1.18926196,1.69402506,3.93922408,0.28928804,0.11292434,0.02024246,0.99392655,-0.06185362,-0.05530682,0.07228615
1755649499159,-0.67676774,-0.60224193,-2.32607233,0.70049129,0.04584203,0.08155768,0.99414384,-0.05793087,-0.05505011,0.07274288
1755649499170,-1.11429871,0.90419239,2.16654745,0.69552840,0.14481903,0.10527493,0.99436631,-0.05400114,-0.05423188,0.07333768
1755649499182,-2.24331470,1.34831080,5.10361571,0.38916995,0.17069790,0.15773411,0.99447282,-0.05172449,-0.05323330,0.07426042
1755649499192,1.55690839,2.50143356,-9.71906081,0.33503728,0.11504860,0.14259804,0.99453871,-0.04996555,-0.05262929,0.07500906
1755649499203,-3.38690034,-1.36387263,9.43961665,0.16214781,-0.08898384,0.13861533,0.99449784,-0.04904130,-0.05313650,0.07579917
1755649499214,0.12201204,-0.27952082,-6.59405637,0.13711399,-0.19163679,0.04842643,0.99445940,-0.04832146,-0.05414259,0.07605341
1755649499225,-3.44223831,-2.37458322,8.59618881,-0.05469739,-0.20932409,-0.08733260,0.99441685,-0.04863050,-0.05532528,0.07555998
1755649499237,-0.89068549,0.35001127,0.19008265,-0.30089217,-0.12694095,-0.19299797,0.99437475,-0.05031549,-0.05603614,0.07447919
1755649499248,-0.70234649,-0.18594058,3.46548777,-0.43458682,-0.02430863,-0.19548729,0.99432084,-0.05281437,-0.05617592,0.07335514
1755649499259,0.01770329,0.43497491,-5.16875753,-0.38670997,0.01843882,-0.18368994,0.99428603,-0.05490260,-0.05607635,0.07236321
1755649499270,-0.60309329,-0.27257452,1.87969450,-0.31510923,0.05221044,-0.10333351,0.99424580,-0.05665146,-0.05578658,0.07178971
1755649499281,0.38561594,0.27281921,-2.95006137,-0.12439672,0.08525648,0.03625089,0.99421861,-0.05732942,-0.05532193,0.07198728
1755649499292,-0.83349970,-0.84255399,1.96451347,0.03270953,0.14845297,0.20416701,0.99419163,-0.05714624,-0.05449060,0.07313062
1755649499303,0.01340719,-1.56228776,-1.03003864,0.25649563,0.25257365,0.26475025,0.99423911,-0.05572269,-0.05308881,0.07459998
1755649499314,-1.63560482,-0.16194732,1.11506888,0.16653225,0.19009126,0.19509192,0.99426485,-0.05478179,-0.05201480,0.07570225
1755649499326,-0.38157818,-0.73869170,-0.43299687,0.19608593,0.25183490,0.14626161,0.99433482,-0.05368371,-0.05060452,0.07652131
1755649499337,-0.50805656,-1.01372022,-0.62086012,0.14550796,0.21390500,0.16269461,0.99436790,-0.05287614,-0.04941735,0.07742427
1755649499348,-1.47173014,-2.45234216,-0.11376849,0.17647135,0.25231757,0.12778111,0.99443207,-0.05190554,-0.04802960,0.07812707
1755649499359,-1.23022554,-1.89664297,2.56696448,0.08858057,0.24499657,0.08965557,0.99448403,-0.05140506,-0.04664537,0.07863362
