UnixTime(ms),Ax,Ay,Az,Gx,Gy,Gz,QuatW,QuatX,QuatY,QuatZ
1761621593009,0.00000000,0.00000000,0.00000000,0.00000000,0.00000000,0.00000000,0.99512979,0.07345229,0.05504942,0.03593081
1761621593052,0.04554412,-0.06696627,-0.09367422,-0.03436808,-0.01861987,0.00196188,0.99520477,0.07271166,0.05464816,0.03597308
1761621593072,0.00277289,-0.05443837,-0.06818734,-0.09478841,-0.03922241,-0.00394119,0.99529372,0.07179221,0.05426771,0.03593486
1761621593078,0.11247477,-0.31281559,-0.41285661,-0.08709554,-0.04086256,-0.00615733,0.99532205,0.07150915,0.05413490,0.03591484
1761621593089,-0.09970538,0.24761319,0.33094977,-0.04740993,-0.01563373,-0.00763347,0.99534761,0.07124128,0.05404657,0.03587171
1761621593100,0.00283732,-0.02580418,-0.03228283,-0.05957752,-0.01279333,-0.00186999,0.99537620,0.07090169,0.05397365,0.03586106
1761621593112,-0.00916565,0.02056149,0.02772953,-0.05867948,-0.02622086,-0.01088044,0.99541059,0.07056428,0.05382288,0.03579849
1761621593123,0.02509774,-0.00495108,-0.01045851,-0.05379882,-0.01696672,-0.02213497,0.99544204,0.07025763,0.05372617,0.03567232
1761621593135,0.01771491,0.01921981,0.02066023,-0.03700932,-0.02911281,-0.00576156,0.99546702,0.07004668,0.05356023,0.03563948
1761621593146,0.01782957,-0.00128992,-0.00470104,-0.02559503,-0.01560625,-0.00886830,0.99548387,0.06990079,0.05347127,0.03558893
1761621593158,-0.02127046,0.08398807,0.10894667,0.00217295,-0.02014121,-0.00478717,0.99549019,0.06991328,0.05335546,0.03556141
1761621593169,-0.01435187,0.08261835,0.10575881,0.02719526,-0.01314413,-0.01148880,0.99548560,0.07006965,0.05327988,0.03549535
1761621593181,0.02660519,0.04958016,0.05621033,-0.02049201,-0.00138361,-0.04065085,0.99550262,0.06995182,0.05327192,0.03526160
1761621593192,0.00835096,0.00925836,0.01008892,-0.02764491,-0.02384758,-0.01166048,0.99552330,0.06979425,0.05313599,0.03519514
1761621593203,0.02407719,-0.01370349,-0.02173005,-0.01181224,-0.01404478,-0.01597930,0.99553507,0.06972928,0.05305875,0.03510725
1761621593214,0.01997996,0.00785516,0.00563904,0.00429016,-0.01535166,-0.02082886,0.99554220,0.06975373,0.05297124,0.03498853
1761621593225,-0.01381781,0.04547780,0.05936483,0.02892739,-0.00707133,-0.02147138,0.99553716,0.06991573,0.05293164,0.03486829
1761621593237,-0.01368153,0.05915567,0.07627800,0.04363959,-0.01930108,-0.00550801,0.99552669,0.07016229,0.05282259,0.03483717
1761621593248,-0.01091126,0.05595302,0.07188594,0.02772815,-0.01206325,-0.01135845,0.99552150,0.07031896,0.05275443,0.03477299
1761621593259,-0.02058070,0.03070797,0.04171494,0.01968744,-0.01411407,-0.00351211,0.99551858,0.07042921,0.05267540,0.03475333
1761621593271,-0.01737786,-0.01951005,-0.02049457,-0.00185269,-0.01670467,-0.00470411,0.99552535,0.07041855,0.05257934,0.03472628
1761621593282,0.01818673,-0.01427387,-0.02115672,0.00902226,-0.01357881,-0.01443367,0.99552855,0.07046817,0.05250466,0.03464689
1761621593293,-0.02302521,-0.02573509,-0.02726644,0.00429309,-0.00902920,-0.01228406,0.99553196,0.07049265,0.05245319,0.03457687
1761621593304,-0.01806579,-0.02194622,-0.02390785,0.00232472,-0.00558077,-0.00604954,0.99553388,0.07050578,0.05242166,0.03454269
1761621593315,-0.00952721,0.00636621,0.01026343,0.00631417,-0.00739891,-0.00907827,0.99553528,0.07054019,0.05238134,0.03449322
1761621593327,-0.01547707,-0.00056853,0.00203224,0.01208414,-0.00318090,-0.00784897,0.99553292,0.07060847,0.05236337,0.03444887
1761621593338,-0.00311089,0.01768648,0.02279072,0.02655703,-0.00721644,-0.00690653,0.99552589,0.07075586,0.05232332,0.03441054
1761621593349,0.00185934,0.00004474,-0.00051713,0.00809659,-0.00383846,-0.01549967,0.99552681,0.07080201,0.05230144,0.03432219
1761621593360,0.00688985,0.00136814,0.00081867,0.00292652,-0.00604724,-0.01356369,0.99552995,0.07081796,0.05226848,0.03424827
1761621593371,0.00785222,-0.03042631,-0.03948171,-0.01122079,-0.00241590,-0.01641703,0.99553836,0.07075456,0.05225483,0.03415551
1761621593382,-0.00205025,-0.04885659,-0.06025680,-0.01819423,-0.00306618,-0.01434004,0.99554915,0.07065358,0.05223781,0.03407592
1761621593394,-0.00122441,-0.03328461,-0.04139604,-0.02262723,-0.00554894,-0.01239098,0.99556225,0.07052574,0.05220646,0.03400592
1761621593405,0.00375600,-0.02695286,-0.03399811,-0.01895077,-0.01054585,-0.01412764,0.99557544,0.07042056,0.05214793,0.03392751
1761621593416,0.00045353,-0.02473247,-0.03087779,-0.02857146,-0.00076263,-0.02037104,0.99559071,0.07026199,0.05214370,0.03381445
1761621593427,0.01114804,-0.00988398,-0.01424584,-0.01774088,-0.00639724,-0.01810782,0.99560304,0.07016264,0.05210787,0.03371304
1761621593438,0.02335731,0.00822629,0.00585046,-0.00704857,-0.01701909,-0.02186602,0.99561494,0.07012317,0.05201257,0.03359059
1761621593450,0.01443312,0.00843788,0.00736505,-0.00112420,-0.01747158,-0.00973496,0.99562233,0.07011687,0.05191473,0.03353608
1761621593461,0.01617075,0.03128543,0.03606719,-0.00005792,-0.01586787,-0.01178007,0.99562914,0.07011655,0.05182666,0.03347070
1761621593472,-0.01154200,0.01375961,0.01959666,-0.01246335,-0.01875387,-0.00740914,0.99564091,0.07004676,0.05172164,0.03342921
1761621593483,-0.00322071,-0.00856383,-0.00998383,-0.01208395,-0.01624035,-0.00980254,0.99565243,0.06997788,0.05162907,0.03337333
1761621593494,0.00672974,-0.01023206,-0.01413798,-0.00844907,-0.01280136,-0.01493727,0.99566218,0.06993099,0.05155802,0.03329043
1761621593505,0.00027212,-0.00060471,-0.00058203,0.00179704,-0.02527596,-0.00601910,0.99566985,0.06994096,0.05141774,0.03325703
1761621593517,0.01666465,0.02988595,0.03394574,0.00576715,-0.02612279,-0.00666808,0.99567625,0.06997268,0.05127406,0.03322035
1761621593528,0.02171801,0.02262610,0.02403390,0.00709891,-0.01845056,-0.00967097,0.99568054,0.07001208,0.05117166,0.03316668
1761621593539,-0.01558157,0.03677231,0.04851829,0.02117941,-0.03471985,-0.00606699,0.99568330,0.07013068,0.05097723,0.03313270
1761621593550,-0.00897076,0.00725823,0.01079156,-0.00179386,-0.01660954,-0.00421345,0.99568961,0.07012055,0.05088339,0.03310890
1761621593561,0.00042476,0.00792762,0.01007917,0.01170558,-0.03567163,0.00814692,0.99569359,0.07018493,0.05068719,0.03315370
1761621593572,-0.01494805,-0.01136108,-0.01125818,0.00251330,-0.02919000,-0.00130206,0.99570108,0.07019888,0.05052519,0.03314648
1761621593583,-0.01527255,-0.00108540,0.00145464,0.00870132,-0.02138152,0.01232887,0.99570140,0.07024674,0.05040759,0.03321429
1761621593594,-0.01680463,0.00983813,0.01561793,0.01221469,-0.02706177,0.00228228,0.99570381,0.07031514,0.05025604,0.03322707
1761621593873,0.00086725,-0.00114925,-0.00156405,0.00125726,-0.02651195,0.00038405,0.99586889,0.07048996,0.04656956,0.03328047
1761621593908,-0.02385614,-0.00174477,0.00239691,0.01821800,-0.00584891,-0.01156330,0.99585770,0.07081151,0.04646632,0.03307638
1761621593932,0.01583385,0.01544722,0.01631928,-0.00141216,-0.01059919,-0.01057333,0.99586918,0.07079435,0.04633754,0.03294791
1761621593951,-0.00576057,-0.01143127,-0.01310688,0.00478952,-0.00700319,-0.00750660,0.99587137,0.07083937,0.04627171,0.03287735
1761621593970,-0.01138587,0.01673938,0.02290464,0.02736762,-0.01633342,0.00252002,0.99585919,0.07110073,0.04611573,0.03290142
1761621593984,0.00436892,0.02575497,0.03133915,0.01850383,-0.03423851,0.00548561,0.99585972,0.07122841,0.04587948,0.03293927
1761621593996,0.00468302,-0.00210016,-0.00340366,0.00741669,-0.01336577,0.00028839,0.99586019,0.07127402,0.04579728,0.03294104
1761621594009,0.00641013,-0.00377169,-0.00602621,0.01224824,-0.01826551,-0.00208212,0.99586038,0.07135180,0.04568130,0.03292782
1761621594021,0.00552851,-0.01676601,-0.02146557,-0.00271221,-0.01952340,-0.00845367,0.99586873,0.07133525,0.04556221,0.03287625
1761621594033,-0.00244935,-0.01354598,-0.01653897,0.00795665,-0.01296088,0.00200452,0.99586847,0.07138220,0.04548574,0.03288808
1761621594045,0.00553198,-0.00980766,-0.01321660,-0.00429905,-0.01292285,-0.00781070,0.99587534,0.07135662,0.04540885,0.03284160
1761621594057,-0.01017264,-0.01497815,-0.01667041,0.00702081,-0.01151043,-0.00640193,0.99587676,0.07139944,0.04533863,0.03280255
1761621594068,0.02835475,0.03646545,0.04067655,0.02747607,-0.01041569,-0.01668448,0.99587135,0.07155606,0.04527926,0.03270745
1761621594080,-0.01830461,0.01137120,0.01704419,0.01369491,-0.00358140,-0.00288430,0.99586717,0.07163480,0.04525867,0.03269087
1761621594091,0.00687490,-0.00032394,-0.00179074,-0.00013301,-0.01224427,-0.00976128,0.99587230,0.07163403,0.04518765,0.03263425
1761621594103,-0.02343533,-0.03561326,-0.03980407,-0.00985233,-0.01111395,-0.00516126,0.99588032,0.07157689,0.04512319,0.03260432
1761621594116,0.00218992,-0.01854861,-0.02345450,-0.00894288,-0.01301356,-0.00565171,0.99588924,0.07152055,0.04504121,0.03256871
1761621594128,-0.01125536,-0.00117039,0.00050943,0.00792148,-0.00941138,-0.00379541,0.99588912,0.07157125,0.04498097,0.03254442
1761621594139,0.04169569,0.01572323,0.01199091,0.01381983,-0.02297329,-0.00387995,0.99589000,0.07164380,0.04486036,0.03252405
1761621594149,-0.00791291,0.01899005,0.02573808,0.01477034,-0.01270762,-0.00272380,0.99588805,0.07171544,0.04479873,0.03251084
1761621594161,-0.01608257,0.00730132,0.01152319,0.01701650,-0.01687504,-0.00152866,0.99588550,0.07181924,0.04469579,0.03250151
1761621594172,0.01907060,0.02499513,0.02813208,0.01597444,-0.02339507,-0.00010928,0.99588494,0.07190869,0.04456478,0.03250090
1761621594183,-0.01277770,0.01077277,0.01553471,0.02385037,-0.02067342,0.00811255,0.99587935,0.07203391,0.04445625,0.03254349
1761621594194,-0.00662241,0.00127538,0.00290294,0.00801878,-0.00316348,-0.00625017,0.99587801,0.07207962,0.04443821,0.03250787
1761621594205,-0.02847618,-0.01891994,-0.01870540,0.00302086,-0.00805930,0.00609543,0.99587768,0.07209699,0.04439187,0.03254292
1761621594217,-0.01428906,-0.00910706,-0.00874231,0.00701022,-0.00782632,-0.00626153,0.99587794,0.07213765,0.04434648,0.03250660
1761621594228,0.00873513,0.00464376,0.00450597,0.01347723,-0.00415060,-0.00797127,0.99587499,0.07221244,0.04432344,0.03246236
1761621594239,0.00488476,0.00289003,0.00247116,0.00790526,-0.01542271,-0.00386393,0.99587633,0.07225711,0.04423631,0.03244053
1761621594251,-0.00419799,0.00072694,0.00185782,0.01961676,-0.00527171,-0.00704544,0.99587081,0.07236990,0.04420599,0.03240002
1761621594262,0.00709948,0.00913526,0.00998240,0.01125296,-0.00300242,-0.00009114,0.99586713,0.07243067,0.04418978,0.03239952
1761621594273,-0.02502923,0.00194195,0.00717498,0.01568882,-0.00758605,-0.00256422,0.99586301,0.07252010,0.04414654,0.03238491
1761621594285,-0.00492064,0.01056868,0.01381140,0.02430030,-0.01058506,0.00886034,0.99585378,0.07266104,0.04408515,0.03243630
1761621594296,0.00942787,0.01842919,0.02146726,0.01883851,-0.01755052,-0.00944311,0.99585221,0.07276277,0.04399037,0.03238531
1761621594307,0.02187902,-0.00494214,-0.00992181,0.01208191,-0.01173999,-0.00369935,0.99585084,0.07283043,0.04392463,0.03236459
1761621594318,0.01102366,-0.00325092,-0.00572849,0.00975798,-0.01770144,0.00376729,0.99585052,0.07288556,0.04382462,0.03238587
1761621594329,-0.02891192,-0.01870267,-0.01832158,0.01434301,-0.00945863,0.00928544,0.99584523,0.07296660,0.04377118,0.03243834
1761621594340,-0.01488687,0.01152893,0.01678838,0.04536044,-0.00678472,-0.00373680,0.99582893,0.07322061,0.04373318,0.03241741
1761621594352,-0.00522940,0.03920542,0.05049798,0.02388396,-0.00793328,0.00785537,0.99581952,0.07335556,0.04368836,0.03246179
1761621594363,-0.00649908,-0.00775470,-0.00906012,-0.00317607,-0.00385237,0.00367321,0.99582111,0.07333777,0.04366679,0.03248236
1761621594374,0.01412609,-0.04928774,-0.06394164,-0.00181232,-0.01544969,-0.01065024,0.99582753,0.07332771,0.04358104,0.03242325
1761621594385,0.00919496,-0.00701753,-0.01020503,0.01366023,-0.00792270,-0.00668247,0.99582503,0.07340489,0.04353628,0.03238550
1761621594391,-0.01430725,0.03337029,0.04388359,0.03507521,0.00404123,-0.01070023,0.99581851,0.07349960,0.04354719,0.03235661
1761621594396,0.08497550,0.03340615,0.02763456,0.00360719,-0.01377209,-0.03110312,0.99582234,0.07350988,0.04350794,0.03226796
1761621594406,0.01935977,-0.03601894,-0.04860272,-0.00650628,-0.00562074,-0.02407971,0.99582971,0.07347800,0.04348040,0.03214997
1761621594418,0.02226910,-0.04483305,-0.05992165,-0.02791815,-0.01044131,-0.01107132,0.99584579,0.07332166,0.04342192,0.03208797
1761621594429,-0.01200296,-0.04723102,-0.05735965,-0.02005756,-0.01347191,-0.00751403,0.99585881,0.07320833,0.04334581,0.03204552
1761621594440,-0.00993622,-0.03529173,-0.04235182,-0.01613916,-0.01449768,0.00405135,0.99586791,0.07312118,0.04326752,0.03206740
1761621594451,-0.03308360,-0.00730377,-0.00384549,-0.01427123,0.00074350,0.00513347,0.99587271,0.07304055,0.04327172,0.03209640
1761621594462,-0.02052294,0.00493691,0.01011344,-0.00332354,-0.00827463,-0.00445878,0.99587686,0.07302210,0.04322580,0.03207166
1761621594473,0.00742276,-0.00154011,-0.00319738,-0.01851589,-0.01261335,-0.00771282,0.99588880,0.07291934,0.04315579,0.03202885
1761621594484,-0.00439658,-0.00942247,-0.01120565,-0.01964774,-0.00960052,0.00126844,0.99589913,0.07280735,0.04310107,0.03203608
1761621594495,0.00953948,-0.00959758,-0.01370114,-0.01399691,-0.01436551,-0.00356915,0.99590863,0.07273176,0.04302350,0.03201681
1761621594506,-0.02577714,0.00113989,0.00594784,-0.00909633,0.00333334,0.00739165,0.99591018,0.07268173,0.04304183,0.03205746
1761621594518,-0.01360358,0.01684105,0.02372320,0.00146290,-0.00318478,-0.00081155,0.99591050,0.07269007,0.04302368,0.03205283
1761621594529,-0.00223453,0.02093089,0.02644446,0.01055910,-0.01067489,0.00297937,0.99590827,0.07274815,0.04296496,0.03206922
1761621594540,0.00124130,0.01394501,0.01725741,0.01215375,-0.00990691,-0.00139186,0.99590596,0.07281560,0.04290998,0.03206150
1761621594551,0.01386288,0.03811347,0.04530758,0.02126549,-0.00540134,-0.01127270,0.99590063,0.07293362,0.04288000,0.03199893
1761621594562,0.00359800,0.01576959,0.01909359,-0.00356857,-0.00401144,0.01133950,0.99590101,0.07291382,0.04285774,0.03206187
1761621594573,-0.01434031,-0.03666103,-0.04332766,-0.02986467,-0.00723190,-0.00720745,0.99591642,0.07274508,0.04281688,0.03202114
1761621594584,-0.00687004,-0.01443874,-0.01703411,0.00125979,-0.00082952,-0.00057956,0.99591621,0.07275214,0.04281223,0.03201790
1761621594595,-0.02203292,0.02374076,0.03371106,0.02567154,0.00555451,0.00329710,0.99590410,0.07289205,0.04284251,0.03203587
1761621594606,0.02359383,0.03355328,0.03769438,0.01468996,0.00733145,-0.03318415,0.99590230,0.07297284,0.04288283,0.03185336
1761621594618,0.03453185,0.01380036,0.01159328,0.01395418,-0.00474131,-0.02117826,0.99590149,0.07305168,0.04285604,0.03173370
1761621594629,-0.00421194,0.01885798,0.02456209,0.03504586,0.00437634,0.00191564,0.99588582,0.07324619,0.04288033,0.03174433
1761621594640,-0.02804128,0.04478894,0.06059365,0.05053991,0.01671139,-0.00375179,0.99586225,0.07352163,0.04297141,0.03172388
1761621594651,-0.02479506,0.03925819,0.05382526,0.05736815,0.00370855,0.01083004,0.99583565,0.07384289,0.04299218,0.03178453
1761621594662,-0.03119729,0.02441611,0.03579973,0.03040958,-0.00543395,0.02760561,0.99581952,0.07401166,0.04296202,0.03193774
1761621594673,-0.02024626,0.00906306,0.01495365,0.01784784,-0.00856121,0.00708361,0.99581300,0.07410983,0.04291493,0.03197670
1761621594684,0.00441330,0.00006851,-0.00063779,0.03017536,-0.01399476,0.00823192,0.99580221,0.07428032,0.04283586,0.03202321
1761621594695,-0.00346207,-0.01756617,-0.02113132,0.01101801,0.00243898,0.00970940,0.99579533,0.07434147,0.04284940,0.03207710
1761621594707,0.00962955,-0.02459189,-0.03244236,0.01010206,-0.01936987,0.01182457,0.99579361,0.07439855,0.04273996,0.03214391
1761621594718,0.01771576,-0.02337045,-0.03225937,0.00206164,-0.00772635,-0.00737111,0.99579586,0.07440968,0.04269823,0.03210410
1761621594729,0.01352459,-0.02996239,-0.03998807,0.00397819,-0.01687473,0.01115920,0.99579622,0.07443196,0.04260374,0.03216660
1761621594740,-0.00244597,-0.02331134,-0.02917201,-0.00085131,0.00462552,0.00335573,0.99579485,0.07442715,0.04262987,0.03218556
1761621594752,-0.00445203,-0.00956312,-0.01091500,0.00201323,-0.00679082,0.00569191,0.99579458,0.07443943,0.04258845,0.03222028
1761621594762,-0.01030451,-0.00208419,-0.00112281,0.01935257,0.00397730,0.00609549,0.99578569,0.07453425,0.04260793,0.03225014
1761621594773,-0.00562312,0.01234796,0.01663736,0.01442873,0.00560767,-0.00372844,0.99577909,0.07461361,0.04263878,0.03222964
1761621594784,0.00104418,-0.00973050,-0.01254624,-0.00437138,0.01157116,-0.01257277,0.99578045,0.07458870,0.04270473,0.03215797
1761621594795,0.01045497,-0.03793581,-0.04982788,-0.01798075,-0.00075437,-0.00251318,0.99578840,0.07449070,0.04270062,0.03214428
1761621594807,0.00194698,-0.04106046,-0.05164656,-0.03607100,-0.00408691,-0.00355479,0.99580511,0.07428870,0.04267773,0.03212437
1761621594818,0.00953299,-0.04210589,-0.05491121,-0.03494376,-0.00000031,-0.00894825,0.99582131,0.07409302,0.04267773,0.03207426
1761621594829,0.01075060,-0.01181786,-0.01654909,-0.01212837,0.00042581,-0.00324694,0.99582684,0.07402510,0.04268012,0.03205608
1761621594840,-0.00089390,0.00453871,0.00568422,0.00501334,0.00971735,-0.00844912,0.99582402,0.07405242,0.04273308,0.03201003
1761621594851,-0.01110892,0.01654065,0.02289856,-0.00953855,0.00166577,0.00461461,0.99582678,0.07399853,0.04274249,0.03203610
1761621594862,0.00268151,0.00536783,0.00616098,-0.00434587,-0.00255146,-0.00389545,0.99582985,0.07397463,0.04272846,0.03201468
1761621594873,-0.01109890,-0.00644036,-0.00614211,-0.02074683,-0.00478404,0.01223159,0.99583729,0.07386052,0.04270214,0.03208195
1761621594884,-0.00411771,-0.00688228,-0.00772043,-0.01035039,-0.00285441,-0.00537687,0.99584329,0.07380204,0.04268602,0.03205157
1761621594895,0.00875098,-0.01351051,-0.01912677,-0.01700756,-0.00001001,-0.00502826,0.99585118,0.07370765,0.04268596,0.03202366
1761621594907,0.01239669,-0.00398011,-0.00636282,-0.02139976,-0.01008526,-0.00117108,0.99586267,0.07358781,0.04262948,0.03201711
1761621594918,0.02818834,-0.00681205,-0.01382995,0.00213753,-0.00519775,-0.01791144,0.99586622,0.07359967,0.04260063,0.03191770
1761621594929,0.00667537,0.04168142,0.05163975,0.01251985,-0.00257083,-0.00619819,0.99586286,0.07366790,0.04258662,0.03188392
1761621594940,0.00230385,0.02007119,0.02476555,0.00211631,0.00577210,-0.00890074,0.99586220,0.07367965,0.04261866,0.03183452
1761621594951,0.00468222,0.03663311,0.04562449,0.02598532,-0.01096749,-0.00762425,0.99585541,0.07382517,0.04255724,0.03179182
1761621594962,0.01931266,0.02936932,0.03304488,0.02580141,-0.01055188,-0.01376161,0.99584972,0.07396837,0.04249868,0.03171545
1761621594973,-0.00408345,0.02111929,0.02746243,0.01712370,0.00005361,0.00570664,0.99584157,0.07406426,0.04249898,0.03174740
1761621594984,-0.03669741,0.00129700,0.00807363,0.00595377,0.00449453,0.01511328,0.99583537,0.07409730,0.04252392,0.03183128
1761621594996,-0.03180151,0.01889980,0.02910584,0.04779938,-0.00651399,0.01106141,0.99581499,0.07436498,0.04248744,0.03189323
1761621595006,0.00971474,0.05958697,0.07319200,0.06455257,-0.01592426,0.00515350,0.99579145,0.07471679,0.04240066,0.03192131
1761621595018,-0.00339816,-0.00068490,0.00009790,-0.00471771,-0.01715844,0.01558975,0.99579475,0.07469014,0.04230371,0.03200939
1761621595029,-0.00174830,-0.02423518,-0.03040894,-0.00316133,0.00855491,-0.00464691,0.99579487,0.07467259,0.04235119,0.03198360
1761621595040,0.00285724,0.03442855,0.04318356,0.06257513,-0.01422016,0.01207726,0.99576997,0.07501988,0.04227227,0.03205063
1761621595051,0.02060975,0.04331357,0.05102831,0.08067126,-0.00242187,-0.05427526,0.99574657,0.07546357,0.04225895,0.03175212
1761621595062,0.06472605,0.02366428,0.01914009,0.00527645,0.00160179,-0.03621987,0.99575040,0.07549312,0.04226792,0.03154929
1761621595073,0.05566748,-0.02014280,-0.03438799,-0.02529220,-0.00231302,-0.03069634,0.99576666,0.07535528,0.04225531,0.03138199
1761621595084,-0.02510361,-0.06302018,-0.07548829,0.00516221,0.00007268,0.01363745,0.99576196,0.07538470,0.04225573,0.03145973
1761621595095,-0.04435636,-0.06008327,-0.06794723,-0.02618591,0.00901206,0.00924098,0.99576908,0.07524199,0.04230484,0.03151009
1761621595107,-0.07971703,-0.05581142,-0.05781090,-0.01631123,0.01308654,0.02306962,0.99576876,0.07515065,0.04237813,0.03163928
1761621595118,-0.05902435,-0.04759998,-0.04989971,-0.03653965,0.01120787,0.01673925,0.99577853,0.07494603,0.04244089,0.03173302
1761621595129,-0.00982864,-0.03647339,-0.04443684,-0.02889865,-0.00339198,0.02307179,0.99578722,0.07478708,0.04242224,0.03185991
1761621595140,0.02081950,-0.02285332,-0.03224194,-0.02128140,-0.02123911,0.00125490,0.99580100,0.07466791,0.04230330,0.03186694
1761621595151,0.01669016,-0.00865876,-0.01382432,-0.01503879,-0.01003201,0.00104283,0.99580951,0.07458369,0.04224712,0.03187278
1761621595162,0.00983416,0.00468392,0.00411531,-0.01933597,0.00493980,0.00212479,0.99581600,0.07447638,0.04227453,0.03188457
1761621595173,-0.00238035,0.01132208,0.01493458,0.01304292,-0.00733660,0.01659598,0.99580942,0.07454811,0.04223418,0.03197585
1761621595184,-0.00092363,0.00238411,0.00323269,-0.02633115,-0.00429121,0.00648089,0.99582010,0.07440329,0.04221058,0.03201150
1761621595196,0.00435316,-0.01571286,-0.02077063,-0.03661972,-0.00866935,-0.00561193,0.99583847,0.07419822,0.04216203,0.03198007
1761621595207,0.01499462,-0.01776767,-0.02448653,-0.02449953,-0.01627787,0.00302329,0.99585175,0.07406347,0.04207250,0.03199670
1761621595218,0.01684188,-0.00705214,-0.01214491,-0.02162320,-0.01143087,0.00804963,0.99586201,0.07394238,0.04200849,0.03204178
1761621595229,0.00081662,-0.03516499,-0.04414130,-0.06177367,-0.00837666,-0.00653084,0.99589053,0.07359954,0.04196200,0.03200553
1761621595240,0.00015118,0.00284023,0.00364335,0.00660642,-0.00228816,0.01470871,0.99588573,0.07363620,0.04194930,0.03208716
1761621595251,0.00573769,0.03213453,0.03971316,0.00168046,-0.00854075,-0.00199773,0.99588740,0.07364561,0.04190147,0.03207597
1761621595262,0.03548885,0.03724102,0.04108689,-0.00168764,-0.00992027,-0.03377136,0.99589651,0.07363616,0.04184592,0.03188686
1761621595273,0.06219507,0.02109547,0.01582323,-0.00474540,-0.00851979,-0.02483448,0.99590470,0.07361030,0.04179949,0.03175151
1761621595284,0.01104080,0.02819962,0.03352249,0.02237310,-0.01337134,-0.00609090,0.99589961,0.07373671,0.04172394,0.03171709
1761621595295,-0.00567362,0.01413834,0.01928968,-0.00669116,0.00171197,-0.01895316,0.99590526,0.07369991,0.04173336,0.03161285
1761621595306,0.00415632,0.01640590,0.01976559,0.00173689,-0.00254119,-0.01563799,0.99590786,0.07370946,0.04171938,0.03152684
1761621595318,-0.01205994,-0.00183887,-0.00038331,0.00526651,-0.00478438,-0.01614878,0.99590967,0.07373922,0.04169235,0.03143560
1761621595329,0.01017214,0.00753276,0.00796750,0.00395613,-0.02107806,0.00170845,0.99591261,0.07376098,0.04157642,0.03144500
1761621595340,0.01124341,0.01501656,0.01661079,0.00983461,-0.01512678,-0.00180700,0.99591239,0.07381556,0.04149246,0.03143497
1761621595351,-0.01002300,0.00547259,0.00892697,0.01161331,-0.01928839,-0.00058204,0.99591216,0.07388001,0.04138541,0.03143174
1761621595362,-0.00843417,0.02891976,0.03762041,0.02389803,-0.01107002,-0.00299465,0.99590533,0.07401384,0.04132342,0.03141497
1761621595373,0.00659021,0.02692129,0.03313896,0.04595824,-0.03426410,-0.00113263,0.99589441,0.07426891,0.04113326,0.03140868
1761621595396,0.00048624,0.01989073,0.02489573,0.01825057,-0.01706850,-0.00119846,0.99588723,0.07447970,0.04093611,0.03139484
1761621595408,0.02090139,0.02084396,0.02311500,0.01847643,-0.01578514,0.01001262,0.99588135,0.07458317,0.04084772,0.03145091
1761621595419,-0.00571682,-0.03493202,-0.04353695,-0.00036622,-0.01735399,-0.00956293,0.99588717,0.07458112,0.04075054,0.03139736
1761621595430,0.00973161,-0.00721888,-0.01013171,0.00733565,-0.01332423,-0.01899618,0.99589043,0.07462147,0.04067725,0.03129288
1761621595441,0.00560356,-0.00033278,-0.00140491,0.02785622,-0.01591654,-0.00110454,0.99588263,0.07477607,0.04058892,0.03128675
1761621595452,-0.01539467,0.01280390,0.01887313,0.02180664,-0.00242065,-0.00299109,0.99587446,0.07489928,0.04057524,0.03126985
1761621595463,-0.03042165,0.00811687,0.01522481,0.01598098,0.00887653,-0.00343847,0.99586638,0.07498797,0.04062450,0.03125077
1761621595475,-0.02858781,-0.01177958,-0.01018824,0.01768022,0.00178820,0.00492201,0.99585749,0.07508875,0.04063470,0.03127882
1761621595486,-0.03153449,0.00275410,0.00887987,0.00188468,-0.00294845,-0.00291062,0.99585787,0.07509902,0.04061863,0.03126296
1761621595497,-0.01996966,-0.00763255,-0.00633573,0.01764746,0.01123373,-0.00516759,0.99584891,0.07519608,0.04068041,0.03123454
1761621595508,-0.00210746,-0.01083045,-0.01332202,0.00667803,-0.00489730,-0.00218255,0.99584759,0.07523348,0.04065299,0.03122232
1761621595519,0.00230158,-0.03168754,-0.04058945,-0.01079574,0.00518472,-0.00522310,0.99585189,0.07517302,0.04068202,0.03119307
1761621595530,0.00737107,-0.02414480,-0.03127962,-0.00666971,-0.01067538,-0.00724168,0.99585836,0.07513600,0.04062277,0.03115287
1761621595541,0.02322877,-0.01600206,-0.02443330,-0.00029545,-0.00975430,-0.00836221,0.99586211,0.07513438,0.04056913,0.03110688
1761621595552,0.00894092,0.00651171,0.00697197,0.00658759,-0.00829078,-0.00522278,0.99586213,0.07517160,0.04052228,0.03107737
1761621595563,-0.00705646,0.01120549,0.01522588,0.01513495,-0.00919834,0.00503997,0.99585698,0.07525560,0.04047123,0.03110535
1761621595574,0.00249441,-0.00166294,-0.00237347,-0.00059012,-0.01450495,0.00388013,0.99585983,0.07525232,0.04039073,0.03112688
1761621595586,0.01721633,0.00706452,0.00603033,0.00931848,-0.01650516,-0.00850355,0.99586109,0.07530357,0.04029995,0.03108011
1761621595597,0.00745859,-0.00393352,-0.00595014,0.00282249,-0.01838679,0.00458023,0.99586328,0.07531952,0.04019607,0.03110599
1761621595608,0.00601512,-0.00875778,-0.01238858,0.00423914,-0.01712093,0.00183893,0.99586502,0.07534326,0.04010019,0.03111629
1761621595619,-0.00121761,0.00504120,0.00680822,0.01183432,-0.02059560,0.00561083,0.99586366,0.07540953,0.03998485,0.03114771
1761621595630,0.00184869,0.01981898,0.02481757,0.01101353,-0.01963107,-0.00205731,0.99586376,0.07546956,0.03987786,0.03113650
1761621595641,0.02018039,-0.00107547,-0.00469729,0.00175736,-0.02190332,0.00111930,0.99586768,0.07547931,0.03975630,0.03114271
1761621595652,0.00252311,-0.00454828,-0.00608149,0.01314770,-0.02316132,0.00628425,0.99586617,0.07555294,0.03962660,0.03117790
1761621595664,-0.01384796,-0.00176308,-0.00004735,0.00564418,-0.01734807,0.01268561,0.99586539,0.07558511,0.03952771,0.03125021
1761621595675,-0.02162778,0.00934226,0.01545202,0.03903221,-0.00751133,-0.00414300,0.99585130,0.07580174,0.03948602,0.03122721
1761621595686,0.01832787,0.06410504,0.07809317,0.01749140,-0.01716441,-0.00042913,0.99584785,0.07589619,0.03939334,0.03122490
1761621595697,-0.01963816,-0.03484307,-0.04063525,-0.01536187,-0.02290451,0.00217179,0.99585889,0.07581170,0.03926736,0.03123684
1761621595708,0.02581440,-0.00889894,-0.01552789,0.01642958,-0.02344750,0.00287124,0.99585654,0.07590371,0.03913606,0.03125292
1761621595719,0.01233943,0.01576952,0.01810823,0.06034758,-0.02535968,-0.00961845,0.99583799,0.07624165,0.03899404,0.03119906
1761621595730,0.03847751,0.06592853,0.07734059,0.02991154,-0.03398982,-0.01804744,0.99583576,0.07640766,0.03880540,0.03109889
1761621595741,0.05446888,-0.00196907,-0.01106990,-0.01272885,-0.01911096,-0.02294031,0.99584928,0.07633702,0.03869933,0.03097157
1761621595753,0.03922234,-0.04444249,-0.06224837,-0.01498716,-0.04152363,-0.00567002,0.99586585,0.07625234,0.03846472,0.03093954
1761621595764,0.01666624,-0.06457881,-0.08507089,-0.02690123,-0.03299508,-0.00697898,0.99588571,0.07610169,0.03827995,0.03090046
1761621595775,-0.03252977,-0.06959970,-0.08244926,-0.02882811,-0.00913565,0.01733895,0.99589678,0.07594314,0.03822971,0.03099582
1761621595786,-0.03092607,-0.02637721,-0.02867473,-0.00173565,-0.03429994,-0.00383753,0.99590538,0.07593359,0.03804106,0.03097471
1761621595797,-0.00425974,-0.01041424,-0.01232431,-0.01715045,-0.03432563,-0.00639964,0.99592114,0.07583755,0.03784883,0.03093888
1761621595808,0.02862855,-0.01269487,-0.02058668,-0.01742503,-0.03783819,-0.01379989,0.99593868,0.07574171,0.03764072,0.03086298
1761621595819,0.01458427,-0.02078358,-0.02867512,-0.02996350,-0.02379357,-0.01199581,0.99595835,0.07557541,0.03750867,0.03079640
1761621595830,0.00845076,-0.00243772,-0.00384744,-0.00388024,-0.03183776,-0.00727126,0.99596787,0.07555388,0.03733197,0.03075604
1761621595842,-0.00939445,0.02637150,0.03478936,-0.00088966,-0.01798073,-0.00804293,0.99597346,0.07554885,0.03723038,0.03071060
1761621595853,-0.00428056,0.03498195,0.04520095,0.01209789,-0.04039661,-0.00074006,0.99597681,0.07561539,0.03700820,0.03070653
1761621595864,0.00857500,0.01951712,0.02338373,-0.00274495,-0.03553708,-0.01343473,0.99598758,0.07560016,0.03681096,0.03063197
1761621595875,0.02275011,0.01519614,0.01593805,-0.00066944,-0.04464972,-0.01361515,0.99599941,0.07559641,0.03656093,0.03055572
1761621595886,0.03831014,0.02755398,0.02913724,0.03168986,-0.04609864,-0.01529069,0.99599799,0.07577387,0.03630277,0.03047010
1761621595897,0.02818847,0.01900961,0.01993646,-0.01028345,-0.04398343,-0.01304279,0.99601341,0.07571680,0.03605867,0.03039771
1761621595908,0.01322948,-0.01375011,-0.01945179,-0.00966664,-0.03802228,-0.01186736,0.99602699,0.07566363,0.03584954,0.03033244
1761621595919,0.01216641,0.01993786,0.02401971,0.03807333,-0.05557248,-0.01154081,0.99602392,0.07587494,0.03554112,0.03026839
1761621595931,0.01137379,0.03173495,0.03843978,0.02932127,-0.04411226,-0.04009413,0.99602709,0.07604500,0.03528527,0.03003584
1761621595942,0.11287677,0.03520426,0.02810507,0.00720554,-0.07389847,-0.04312002,0.99604517,0.07608391,0.03488621,0.02980299
1761621595953,0.09577998,0.02375571,0.01587261,0.04905211,-0.09795203,-0.03998584,0.99604980,0.07635370,0.03434748,0.02958307
1761621595964,0.09391736,0.06113134,0.06449036,0.06539213,-0.12866623,-0.01242552,0.99604831,0.07671989,0.03362695,0.02951349
1761621595975,0.12469124,0.08463340,0.08984505,0.10385262,-0.20706574,-0.01310006,0.99604394,0.07730666,0.03245703,0.02943947
1761621595986,0.28369822,0.15816992,0.16136075,0.16655249,-0.36297631,-0.01958103,0.99603852,0.07823935,0.03042436,0.02932982
1761621595997,0.70700464,0.28226795,0.26151557,0.27274805,-0.61659896,-0.12592646,0.99603767,0.07971219,0.02709472,0.02864982
1761621596009,1.04301895,0.40495745,0.38052071,0.36818615,-0.87485134,-0.00347000,0.99599070,0.08182926,0.02206433,0.02862986
1761621596019,1.02956557,0.44068009,0.45095851,0.51254449,-1.19372755,0.07048181,0.99586903,0.08462263,0.01555851,0.02901399
1761621596031,1.14186131,0.61746086,0.69380269,0.78377707,-1.51076325,0.12479781,0.99556513,0.08897259,0.00717378,0.02970662
1761621596042,1.29027791,0.93494790,1.14069127,1.09770950,-1.90985533,0.29961407,0.99496475,0.09511977,-0.00352141,0.03138446
1761621596053,1.50739438,1.28764105,1.67159132,1.29498232,-2.31629645,0.47668238,0.99404512,0.10224217,-0.01626104,0.03400621
1761621596064,1.21163905,1.13992025,1.63970732,1.44909320,-2.70323730,0.63146074,0.99269975,0.11028464,-0.03126401,0.03751082
1761621596075,1.16479194,1.14405809,1.81078029,1.67244304,-3.09524141,0.80178148,0.99075548,0.11956670,-0.04844260,0.04196070
1761621596086,1.02449262,1.01047101,1.83069778,1.59233847,-3.31938349,0.89081621,0.98835285,0.12840418,-0.06686518,0.04690473
1761621596097,0.49404472,0.42494583,1.19613033,1.39299405,-3.35442938,0.96712897,0.98555672,0.13627459,-0.08581770,0.05236901
1761621596109,0.48193042,0.16934058,0.95795866,1.24472062,-3.46075219,1.04776382,0.98238642,0.14318279,-0.10502488,0.05818410
1761621596120,-0.18698141,-0.28410274,0.32407956,1.39197150,-3.44202001,1.06086793,0.97859243,0.15097783,-0.12430019,0.06412496
1761621596131,-0.00830191,0.11538683,1.00639644,1.60061776,-3.59183028,0.98999120,0.97410373,0.15978123,-0.14405526,0.06956991
1761621596142,-0.52790996,-0.02019179,0.80595457,1.60176204,-3.53455887,0.94625843,0.96900940,0.16883118,-0.16402552,0.07491627
1761621596153,0.07303638,0.32802505,1.57200616,1.40748619,-3.64058238,0.90850535,0.96361931,0.17657236,-0.18404872,0.07991305
1761621596164,-0.42896039,-0.25581256,0.57052346,1.34227302,-3.45135127,0.90296369,0.95793110,0.18402197,-0.20320372,0.08492450
1761621596175,-0.51363713,-0.42279898,0.24374181,1.16621974,-3.30875191,0.84808880,0.95214810,0.19049449,-0.22156729,0.08963139
1761621596186,-0.64141148,-0.51381855,-0.01383265,1.12804180,-3.13404961,0.73044005,0.94626000,0.19675513,-0.23896127,0.09368534
1761621596198,-0.70436136,-0.51838408,-0.12506828,1.13585504,-2.97143652,0.67895328,0.94022003,0.20305912,-0.25545274,0.09745353
1761621596209,-0.81785643,-0.51817714,-0.26858023,1.05771586,-2.81974086,0.62466974,0.93411039,0.20898233,-0.27124329,0.10095168
1761621596220,-0.72611808,-0.37766741,-0.00878241,1.01433955,-2.68866559,0.63911204,0.92797150,0.21461191,-0.28616538,0.10449875
1761621596226,-0.87735571,-0.38353355,0.36161851,0.68395111,-1.91438373,0.41141769,0.92560347,0.21662957,-0.29181281,0.10571243
1761621596237,-0.86327380,-0.64606043,-1.19646584,0.68986466,-2.19121971,0.45052284,0.92034106,0.22056180,-0.30430277,0.10828041
1761621596248,-0.38928293,-0.30152957,0.04381053,0.66716998,-2.08055195,0.49414570,0.91530894,0.22419788,-0.31564177,0.11097351
1761621596259,-0.85639713,-0.70259798,-1.49131531,0.50029363,-1.87317043,0.38868149,0.91057826,0.22704955,-0.32631885,0.11318899
1761621596270,-0.22512403,-0.33809085,-0.26612935,0.39266151,-1.80990045,0.37345754,0.90626976,0.22915029,-0.33600181,0.11518699
1761621596282,-0.59881242,-0.78470550,-2.13037317,0.27344338,-1.67923963,0.30532175,0.90204233,0.23070892,-0.34557348,0.11692732
1761621596292,0.10374354,-0.40605286,-0.69184452,0.27365879,-1.72221541,0.27265118,0.89788997,0.23217299,-0.35478733,0.11838601
1761621596303,-0.31668148,-0.51463151,-1.50301641,0.33022604,-1.52580232,0.24085035,0.89384182,0.23400574,-0.36325553,0.11972273
1761621596315,-0.35422572,-0.28816513,-0.87130447,0.29265607,-1.42649749,0.20745112,0.88989425,0.23567388,-0.37138657,0.12090520
1761621596326,-0.23169980,-0.11721188,-0.21553785,0.27976153,-1.40672465,0.25030798,0.88599076,0.23722656,-0.37919389,0.12229441
1761621596337,-0.42535115,-0.17977420,-0.68046378,0.17106362,-1.31351297,0.23111584,0.88226995,0.23821018,-0.38674659,0.12362332
1761621596348,0.07340545,-0.11768362,-0.09275800,0.07403281,-1.32042018,0.22083203,0.87886509,0.23860625,-0.39381084,0.12480477
1761621596359,-0.16986310,-0.29440486,-1.13293996,0.03736820,-1.19073545,0.16158574,0.87560242,0.23881925,-0.40059803,0.12572581
1761621596370,0.32530998,-0.17373020,-0.24078696,-0.02042429,-1.25893267,0.14605857,0.87243663,0.23871100,-0.40727038,0.12649992
1761621596381,-0.04150238,-0.23066831,-0.88540419,-0.07666138,-1.16232750,0.12150549,0.86938691,0.23828170,-0.41377941,0.12718035
1761621596392,0.24096784,-0.18390354,-0.45681135,-0.10443730,-1.13991928,0.04168696,0.86644620,0.23769685,-0.42016296,0.12741380
1761621596404,0.47824312,-0.16639313,-0.15033139,-0.13609687,-1.07847347,0.03949287,0.86356803,0.23690749,-0.42641810,0.12764286
1761621596415,-0.22167094,-0.14594344,-0.76905478,-0.12629977,-1.14868836,0.07746787,0.86060265,0.23622547,-0.43262102,0.12806119
1761621596426,0.58260048,-0.07189364,0.44878244,-0.09552639,-1.08165312,0.14094887,0.85758726,0.23569530,-0.43862420,0.12884345
1761621596437,-0.63665017,-0.00684574,-0.56071561,-0.14676464,-1.05836339,0.15861621,0.85462187,0.23487341,-0.44455103,0.12973170
1761621596448,-0.29189726,-0.01497980,-0.26881790,-0.21182778,-0.98759073,0.12981190,0.85191329,0.23367659,-0.45013092,0.13046514
1761621596460,0.00560450,-0.08139876,-0.30231653,-0.24941741,-1.01947209,0.11928825,0.84917745,0.23229232,-0.45578899,0.13112719
1761621596471,0.09778438,-0.11750397,-0.40916192,-0.28689453,-0.97151023,0.08175238,0.84660315,0.23068571,-0.46122945,0.13158500
1761621596482,0.19210749,-0.11071165,-0.25447506,-0.27002716,-0.99828754,0.08354650,0.84389707,0.22918706,-0.46676994,0.13204869
1761621596493,0.05127905,-0.04786247,-0.07673717,-0.24019227,-1.01191660,0.12800872,0.84101662,0.22785399,-0.47238608,0.13275913
1761621596504,-0.23596403,0.03169641,-0.01887467,-0.21856667,-0.95269442,0.16540236,0.83813125,0.22660816,-0.47781644,0.13370193
1761621596515,-0.17986418,0.04008722,0.10346915,-0.23262446,-0.97962796,0.20460514,0.83517497,0.22531710,-0.48325337,0.13483749
1761621596526,-0.27050135,0.03892711,-0.05499655,-0.24505093,-0.96140491,0.18020952,0.83224279,0.22394481,-0.48863724,0.13584666
1761621596538,-0.00374728,-0.01716844,-0.00151848,-0.28783602,-1.01569060,0.12519440,0.82925056,0.22236172,-0.49422354,0.13653523
1761621596549,0.31264389,-0.07471324,0.15041723,-0.27303797,-1.02895136,0.09241929,0.82605715,0.22080540,-0.50008856,0.13706202
1761621596560,-0.00052825,-0.01434753,0.04210761,-0.24963909,-1.08081867,0.15049524,0.82265812,0.21943238,-0.50603306,0.13788974
1761621596571,-0.09957992,0.03545862,0.20830891,-0.18483893,-1.03682173,0.17814787,0.81916634,0.21839729,-0.51183926,0.13888737
1761621596582,-0.22264849,0.06599503,0.19319398,-0.21423764,-1.01720575,0.17767120,0.81569882,0.21718684,-0.51758648,0.13989121
1761621596594,-0.17161070,0.04999031,0.17960272,-0.22738679,-1.00524506,0.17309188,0.81230227,0.21592485,-0.52316559,0.14085187
1761621596605,-0.09889964,0.00090706,-0.03561717,-0.26260024,-0.98230791,0.16022268,0.80899743,0.21446741,-0.52861740,0.14174111
1761621596616,-0.11390519,-0.00521504,-0.12646762,-0.19860659,-0.94718051,0.20401191,0.80560012,0.21335522,-0.53392161,0.14288358
1761621596627,-0.22344614,0.03715193,-0.05203052,-0.18587217,-0.90949430,0.21318686,0.80226392,0.21231433,-0.53901477,0.14407742
1761621596638,-0.31841966,0.07439295,0.00778082,-0.14958015,-0.88215654,0.21756501,0.79892419,0.21147669,-0.54395485,0.14529579
1761621596649,-0.33786967,0.08287709,0.01609003,-0.13211507,-0.81484464,0.25396761,0.79576219,0.21074345,-0.54847724,0.14670531
1761621596660,-0.38938694,0.08408139,-0.11682975,-0.12515092,-0.74565444,0.24489830,0.79279894,0.21004260,-0.55265290,0.14807674
1761621596672,-0.30026577,0.05969976,-0.13322806,-0.14682754,-0.68959385,0.25942449,0.79008708,0.20923505,-0.55644567,0.14950357
1761621596683,-0.24850112,0.02148648,-0.36192331,-0.16414614,-0.64969909,0.23412805,0.78748262,0.20830762,-0.56011647,0.15082639
1761621596694,-0.09912736,0.00091884,-0.18981138,-0.13875904,-0.55118325,0.24704934,0.78515585,0.20750976,-0.56328577,0.15224693
1761621596705,-0.25517863,0.02264910,-0.42248767,-0.11787301,-0.51305808,0.27804888,0.78301615,0.20686735,-0.56608194,0.15376230
1761621596717,-0.28282043,0.02862298,-0.47706068,-0.10558650,-0.44484180,0.27480786,0.78104354,0.20627079,-0.56859530,0.15531496
1761621596727,-0.24161979,0.05750668,-0.10465316,-0.13454293,-0.39669787,0.27033619,0.77941016,0.20555771,-0.57069780,0.15674774
1761621596739,-0.08999722,-0.01688717,-0.40131006,-0.15418510,-0.28952879,0.18418093,0.77814514,0.20462489,-0.57244944,0.15786204
1761621596750,0.05760734,-0.05439352,-0.36690666,-0.17141853,-0.31671720,0.17057953,0.77698439,0.20373351,-0.57409637,0.15874905
1761621596761,0.22556420,-0.09566779,-0.28956850,-0.18039418,-0.27013165,0.11519011,0.77601442,0.20274135,-0.57558210,0.15938260
1761621596773,0.23895107,-0.08487973,-0.15493444,-0.18718568,-0.22823148,0.08168441,0.77519577,0.20162759,-0.57694008,0.15986862
1761621596783,0.33641463,-0.11223109,-0.13384353,-0.22462054,-0.24552522,0.06692405,0.77444050,0.20040341,-0.57827819,0.16023335
1761621596794,0.22932803,-0.08300169,-0.15162140,-0.21623326,-0.21962580,0.06229298,0.77382185,0.19930062,-0.57939828,0.16055105
1761621596805,0.11507735,-0.05449592,-0.19000430,-0.17055231,-0.12583301,0.11170667,0.77339807,0.19831994,-0.58012182,0.16119336
1761621596816,-0.13643731,0.02063041,-0.17614609,-0.17761583,-0.11946598,0.09584266,0.77303824,0.19732530,-0.58079083,0.16173008
1761621596828,-0.09119738,0.00841724,-0.16441879,-0.20287016,-0.09746930,0.07207721,0.77282885,0.19616894,-0.58134640,0.16214092
1761621596838,0.12306245,-0.06576168,-0.26155766,-0.25796244,-0.11111053,0.04847463,0.77267752,0.19480173,-0.58193529,0.16239784
1761621596850,0.09208899,-0.03820537,-0.07364962,-0.24587987,-0.11043182,0.03749517,0.77251177,0.19341251,-0.58255923,0.16260968
1761621596861,0.14422112,-0.05371725,-0.07344657,-0.22675900,-0.12047480,0.03413290,0.77227930,0.19214266,-0.58323389,0.16280083
1761621596872,0.07835935,-0.02867655,-0.01315883,-0.21124715,-0.10661232,0.05390265,0.77205987,0.19097024,-0.58382559,0.16309999
1761621596883,-0.02898504,0.01149278,0.05580615,-0.19605115,-0.11691069,0.05329351,0.77177214,0.18987235,-0.58448029,0.16339843
1761621596895,-0.01770060,0.00418217,0.01991463,-0.17424071,-0.09208851,0.03587988,0.77156957,0.18885305,-0.58501900,0.16360833
1761621596905,-0.07894176,0.03739932,0.14876729,-0.20846806,-0.10466693,0.00864706,0.77141020,0.18775859,-0.58556851,0.16365373
1761621596917,0.07582256,-0.01784323,0.06588708,-0.20362338,-0.10332880,-0.01838638,0.77126419,0.18657757,-0.58616781,0.16354708
1761621596928,0.27500247,-0.08983714,-0.01246632,-0.26200797,-0.12430757,-0.05466163,0.77115623,0.18514963,-0.58684529,0.16324918
1761621596939,0.21751694,-0.06386305,0.06366933,-0.26019269,-0.14683009,-0.06454007,0.77095492,0.18369255,-0.58766754,0.16288775
1761621596950,0.31448584,-0.09878932,0.04080912,-0.26167169,-0.14846114,-0.10032655,0.77079153,0.18226644,-0.58847665,0.16234097
1761621596961,0.22359790,-0.06330424,0.10639709,-0.27511218,-0.15282307,-0.13982210,0.77066494,0.18072581,-0.58933246,0.16155797
1761621596973,0.42084623,-0.13095982,0.09061095,-0.27674922,-0.15099768,-0.18548250,0.77059424,0.17912067,-0.59020825,0.16048217
1761621596983,0.45820430,-0.13920713,0.15910826,-0.30545788,-0.17716547,-0.27161000,0.77054803,0.17751701,-0.59113837,0.15905622
1761621596995,0.16807283,-0.03706883,0.24694370,-0.26310585,-0.18044099,-0.30784685,0.77046333,0.17603046,-0.59215786,0.15731688
1761621597006,0.50885166,-0.14813300,0.28561675,-0.32276884,-0.23646063,-0.38981078,0.77029946,0.17423910,-0.59347021,0.15515343
1761621597017,0.54281667,-0.16551887,0.30268465,-0.39890822,-0.29649299,-0.44300559,0.77001616,0.17200521,-0.59513057,0.15267260
1761621597028,0.69997682,-0.23492434,0.25198572,-0.44501311,-0.34997386,-0.46647446,0.76956495,0.16951314,-0.59709043,0.15006035
1761621597039,0.59511213,-0.21704503,0.21765340,-0.41838793,-0.38095229,-0.48006071,0.76893287,0.16714925,-0.59924281,0.14734800
1761621597051,0.46293330,-0.17889316,0.25639939,-0.39870704,-0.40018161,-0.45870791,0.76815281,0.16491649,-0.60148382,0.14477924
1761621597062,0.24890613,-0.10358902,0.32669905,-0.38644357,-0.42325893,-0.46459255,0.76725666,0.16279105,-0.60381175,0.14222398
1761621597073,0.38791990,-0.15821391,0.37476035,-0.39918240,-0.44132741,-0.44813217,0.76622998,0.16053567,-0.60630525,0.13969203
1761621597084,-0.44664025,0.11652964,0.06815195,-0.42849094,-0.45907272,-0.45530514,0.76515025,0.15813612,-0.60887606,0.13714232
1761621597095,0.02981033,-0.05857898,0.08477116,-0.45923035,-0.47370331,-0.44904804,0.76399729,0.15554147,-0.61155248,0.13460520
1761621597107,0.18229237,-0.13382966,-0.00840290,-0.51998664,-0.47152602,-0.42804906,0.76288411,0.15262954,-0.61419303,0.13220813
1761621597118,0.18900790,-0.15459158,-0.12616562,-0.52133180,-0.45086088,-0.39634035,0.76182586,0.14976222,-0.61667276,0.13002826
1761621597129,-0.09535490,-0.04790321,-0.20674647,-0.44485903,-0.40321046,-0.31267197,0.76080490,0.14733773,-0.61887026,0.12832419
1761621597140,-0.71375073,0.21656108,-0.28721940,-0.40239870,-0.34665993,-0.23505983,0.75985997,0.14504406,-0.62084622,0.12698435
1761621597151,-0.43403054,0.11607302,-0.23381744,-0.40782079,-0.30927372,-0.22566459,0.75908516,0.14276027,-0.62257815,0.12572063
1761621597163,-0.63231878,0.20698997,-0.33108103,-0.40325674,-0.25173361,-0.21107183,0.75851920,0.14040121,-0.62405079,0.12448586
1761621597173,0.32328216,-0.21506268,-0.31605728,-0.52621724,-0.25936764,-0.26612849,0.75813194,0.13763857,-0.62541247,0.12308869
1761621597184,-0.27693972,0.05048819,-0.39777982,-0.49589270,-0.20485534,-0.24252553,0.75790515,0.13488637,-0.62654942,0.12174267
1761621597196,0.00273872,-0.07514297,-0.38285680,-0.54287396,-0.15565880,-0.27383964,0.75796421,0.13181913,-0.62742889,0.12019548
1761621597208,-0.08648295,-0.03038324,-0.35760904,-0.51812555,-0.10403658,-0.23600355,0.75820082,0.12876219,-0.62804271,0.11880306
1761621597218,0.48287606,-0.33207828,-0.57623405,-0.57907671,-0.02485457,-0.24168574,0.75881736,0.12563518,-0.62817692,0.11749795
1761621597229,-0.03759145,-0.08934756,-0.58386516,-0.60427757,0.04687686,-0.24556266,0.75976370,0.12237208,-0.62792379,0.11617191
1761621597241,-0.45807092,0.13813586,-0.41183702,-0.53549985,0.13366878,-0.20970225,0.76109310,0.11923940,-0.62714183,0.11494516
1761621597251,0.37634157,-0.34361055,-0.92166938,-0.61336172,0.20333867,-0.29495575,0.76271548,0.11598859,-0.62606413,0.11338189
1761621597263,-0.28730099,0.05504125,-0.32724114,-0.62852477,0.23916880,-0.31046405,0.76461163,0.11243742,-0.62471283,0.11162777
1761621597274,0.47410319,-0.39313560,-0.69753265,-0.73641560,0.28961310,-0.41505073,0.76678307,0.10846078,-0.62314892,0.10938649
1761621597285,0.35455919,-0.30202967,-0.32961171,-0.80592960,0.32152002,-0.50614380,0.76924246,0.10398787,-0.62136448,0.10657740
1761621597296,0.67829853,-0.52116572,-0.50511078,-0.90798407,0.38507788,-0.57267951,0.77205918,0.09894856,-0.61922730,0.10339903
1761621597307,0.67821236,-0.56661236,-0.57769525,-1.03461830,0.44804619,-0.62725140,0.77524417,0.09315469,-0.61671824,0.09988642
1761621597318,1.01055536,-0.85445053,-0.93145892,-1.21871601,0.51101834,-0.74319748,0.77875933,0.08645175,-0.61390764,0.09579883
1761621597329,0.87926757,-0.83658414,-0.85776753,-1.33843720,0.59780844,-0.83594104,0.78270388,0.07902343,-0.61058980,0.09115936
1761621597340,1.83594739,-1.66534475,-1.78814539,-1.48038193,0.68738577,-0.89425432,0.78700754,0.07080731,-0.60677481,0.08619625
1761621597351,-0.18416093,-0.25626252,-0.13676185,-1.54876452,0.75159669,-0.95742990,0.79156940,0.06205679,-0.60252829,0.08078677
1761621597362,0.05190339,-0.46386555,-0.32074607,-1.67563847,0.82638379,-1.09798673,0.79622248,0.05292456,-0.59802450,0.07480274
1761621597374,2.41809565,-2.56713413,-2.40543404,-1.69013710,0.85255092,-1.15975471,0.80093660,0.04345979,-0.59325021,0.06830811
1761621597385,-0.92042286,0.24838597,0.79123989,-1.61076238,0.84212481,-1.15587237,0.80548392,0.03419791,-0.58840800,0.06166185
1761621597396,0.65037516,-1.27683956,-0.83477814,-1.47437388,0.91475977,-1.09232822,0.80983343,0.02616257,-0.58342255,0.05570866
1761621597407,-1.23585216,0.48359681,0.61110701,-1.16911222,0.85868494,-0.88207580,0.81381823,0.01955709,-0.57857098,0.05072493
1761621597418,-1.24915262,0.51002582,0.34149023,-1.03840889,0.82866748,-0.77980931,0.81744317,0.01379392,-0.57397188,0.04639699
1761621597429,-1.35965080,0.75082299,0.48357852,-1.16073193,0.83824696,-0.79514158,0.82097902,0.00740989,-0.56936152,0.04202371
1761621597441,-1.03156266,0.58938727,0.46666741,-1.29682245,0.87945999,-0.83892452,0.82466414,0.00008284,-0.56439257,0.03728379
1761621597452,-0.24582423,-0.31665259,-0.33953268,-1.43062053,0.96371674,-0.83614169,0.82852488,-0.00800016,-0.55894757,0.03255959
1761621597463,0.54282356,-1.67621856,-1.87166624,-1.23024210,1.03693676,-0.71553957,0.83243067,-0.01482801,-0.55319257,0.02858834
1761621597474,-2.09020136,2.19971195,1.93295078,-0.89137069,0.99436766,-0.67092706,0.83612106,-0.01981968,-0.54762412,0.02483115
1761621597485,-0.24488794,-0.86445801,-1.55064021,-0.64096426,0.96101761,-0.53594717,0.83961219,-0.02340908,-0.54224242,0.02182985
1761621597496,-2.11688292,2.83723578,2.61461413,-0.59387501,0.93238871,-0.51679714,0.84290309,-0.02670509,-0.53706766,0.01896162
1761621597508,-0.46066029,-0.28809635,-0.94031003,-0.60255398,0.90179761,-0.51123027,0.84604571,-0.03007939,-0.53201759,0.01609873
1761621597519,-0.89668481,1.26225756,1.27468750,-0.63645573,0.93750088,-0.46610146,0.84920799,-0.03361172,-0.52681446,0.01351187
1761621597530,-0.53250396,0.37768415,0.11989805,-0.57801262,0.96734228,-0.38464748,0.85241377,-0.03681969,-0.52144571,0.01137708
1761621597541,-0.62986811,0.46652359,0.06149034,-0.47562988,0.99474090,-0.33488596,0.85570065,-0.03948322,-0.51587516,0.00950171
1761621597552,-0.68952320,0.55116121,0.06532028,-0.34302982,0.98413411,-0.30597827,0.85892585,-0.04140418,-0.51036401,0.00778824
1761621597563,-0.68360213,0.63335161,0.18197380,-0.29775026,0.96139859,-0.28735693,0.86200593,-0.04305670,-0.50502825,0.00619340
1761621597575,-0.55157404,0.68819737,0.44988253,-0.25051504,0.92703364,-0.23618306,0.86496401,-0.04445958,-0.49983686,0.00487078
1761621597586,-0.43626048,0.55185911,0.37567700,-0.20507619,0.92057617,-0.22535418,0.86786921,-0.04560801,-0.49468164,0.00360880
1761621597597,-0.39850385,0.39928618,0.17433710,-0.20282049,0.94090899,-0.17567032,0.87076882,-0.04673366,-0.48945959,0.00263383
1761621597608,-0.33995111,0.39187539,0.23551342,-0.21302068,0.97762164,-0.14715161,0.87378756,-0.04793723,-0.48393603,0.00180242
1761621597619,-0.41597393,0.17217821,-0.20781332,-0.24712955,1.01080978,-0.11978517,0.87679619,-0.04930880,-0.47832603,0.00113761
1761621597630,-0.65925030,-0.06613970,-0.88202393,-0.19649784,1.04202610,-0.10436933,0.87986528,-0.05039936,-0.47254279,0.00055836
1761621597642,-0.01040613,0.44176328,0.80450906,-0.12387548,1.02500239,-0.11791781,0.88293775,-0.05110545,-0.46670028,-0.00011377
1761621597653,-0.52687551,0.16677544,-0.32964168,-0.09191976,1.10326311,-0.08923219,0.88606064,-0.05160641,-0.46068749,-0.00060008
1761621597664,-0.27004170,0.31442068,0.23698166,-0.12727595,1.10689169,-0.07543331,0.88921398,-0.05231916,-0.45448890,-0.00102251
1761621597675,-0.36991562,0.15680431,-0.10486288,-0.13164766,1.17460588,-0.06774072,0.89250137,-0.05305639,-0.44791111,-0.00140186
1761621597686,-0.36688645,0.09644356,-0.15978894,-0.09418493,1.22328283,-0.07608147,0.89587436,-0.05358382,-0.44106072,-0.00182792
1761621597697,-0.44205130,0.12145679,-0.20270982,-0.01884447,1.23851878,-0.06815484,0.89921876,-0.05368841,-0.43418694,-0.00220617
1761621597709,-0.34989664,0.27787496,0.11970616,0.03755682,1.23661305,-0.03072786,0.90254180,-0.05347809,-0.42726191,-0.00237825
1761621597720,-0.40489962,0.33429313,0.12887354,0.02555231,1.25876227,0.00284741,0.90585372,-0.05333500,-0.42021284,-0.00236231
1761621597731,-0.54087631,0.29137559,-0.06792195,0.05007765,1.33662467,-0.00838456,0.90924383,-0.05305957,-0.41286141,-0.00240842
1761621597742,-0.08643134,0.19806329,0.34964657,0.04674934,1.31743815,-0.00944283,0.91266106,-0.05279076,-0.40528614,-0.00246272
1761621597754,-0.32596642,0.08477324,-0.04525277,0.03589873,1.32059991,-0.02817844,0.91600684,-0.05258434,-0.39769269,-0.00262474
1761621597764,-0.85408192,0.00489872,-0.66094352,0.02895296,1.42071461,-0.07176531,0.91924691,-0.05243089,-0.39016290,-0.00300510
1761621597776,0.40947549,-0.04441031,0.61990295,-0.00082759,1.32332621,-0.07472658,0.92238284,-0.05243557,-0.38268611,-0.00342730
1761621597787,-0.10992642,-0.06255307,0.05023928,0.04003339,1.30688432,-0.05656630,0.92537014,-0.05221338,-0.37543290,-0.00374125
1761621597798,0.05653281,0.01761306,0.29404447,0.07015664,1.28811200,-0.04744933,0.92828498,-0.05182051,-0.36821947,-0.00400696
1761621597809,-0.34181801,0.17415588,0.07673875,0.14164316,1.32673520,-0.05371191,0.93113590,-0.05105563,-0.36105510,-0.00429701
1761621597820,0.25815099,0.26062907,0.70899461,0.17549100,1.21667929,-0.02555315,0.93382535,-0.05006411,-0.35418086,-0.00444138
1761621597831,-0.30852066,0.30209191,0.22528418,0.17607331,1.21274867,-0.04901826,0.93635501,-0.04910451,-0.34757138,-0.00470853
1761621597842,0.16464151,0.21307565,0.54069345,0.17355485,1.14581079,-0.04599453,0.93871835,-0.04814996,-0.34126942,-0.00496150
1761621597853,0.35357039,0.09231630,0.55374119,0.16269370,1.06793087,-0.03580003,0.94093553,-0.04723074,-0.33523561,-0.00516377
1761621597864,-0.51377654,0.14782489,-0.12121168,0.13665337,1.00017312,-0.04727387,0.94293102,-0.04647231,-0.32968465,-0.00542614
1761621597876,1.13165226,-0.14218836,0.91448969,0.12176379,0.92446283,-0.03281182,0.94478972,-0.04577826,-0.32441521,-0.00561317
1761621597887,0.13682186,-0.03234182,0.19035463,0.11613540,0.91056430,-0.00459487,0.94654072,-0.04513371,-0.31936158,-0.00563867
1761621597898,0.34815782,-0.03093797,0.34102190,0.16634721,0.83672640,0.02334317,0.94816769,-0.04419385,-0.31463408,-0.00550678
1761621597909,0.06992964,0.08659808,0.23071434,0.13414454,0.78981701,0.02314595,0.94963293,-0.04345605,-0.31029008,-0.00537948
1761621597920,0.29599031,0.06373118,0.36518048,0.14161802,0.73286145,0.04243755,0.95098920,-0.04267007,-0.30622270,-0.00514395
1761621597931,0.28989106,0.03394016,0.31817151,0.13377335,0.67783492,0.06320844,0.95223826,-0.04192094,-0.30242683,-0.00478998
1761621597943,0.20099774,0.00989760,0.22021915,0.11301184,0.63381056,0.05950071,0.95337728,-0.04129372,-0.29890918,-0.00445976
1761621597954,0.28317802,-0.03873488,0.22041309,0.09060129,0.58632082,0.08138256,0.95442435,-0.04078636,-0.29562578,-0.00400401
1761621597965,0.20686420,-0.04946021,0.14925341,0.09695789,0.54141215,0.07605394,0.95537439,-0.04024824,-0.29262095,-0.00358191
1761621597976,0.23922163,-0.05994147,0.15323246,0.08484799,0.52196468,0.09803991,0.95627847,-0.03977733,-0.28972404,-0.00303779
1761621597987,0.34565852,-0.06455482,0.21076811,0.08990934,0.47382747,0.09697356,0.95712264,-0.03926036,-0.28699953,-0.00248019
1761621597999,0.18702766,-0.02172247,0.13806244,0.07549307,0.45216840,0.07800663,0.95792403,-0.03882250,-0.28437696,-0.00202776
1761621598009,-0.45673840,0.09827213,-0.16295713,0.09069890,0.50821805,0.09787145,0.95870156,-0.03836447,-0.28181046,-0.00153350
1761621598020,0.52136480,-0.10912216,0.26493644,0.07197925,0.46512398,0.08333715,0.95947312,-0.03796498,-0.27922902,-0.00107098
1761621598032,0.18790183,-0.05985120,0.09260902,0.06930015,0.42341893,0.05295285,0.96018180,-0.03757344,-0.27683670,-0.00077180
1761621598043,0.15806737,-0.04657707,0.08165210,0.09435001,0.41594510,0.04889163,0.96087713,-0.03704036,-0.27448661,-0.00049556
1761621598054,0.02775182,0.01358152,0.05556698,0.10201526,0.41186730,0.04500252,0.96154290,-0.03647927,-0.27222134,-0.00024805
1761621598065,0.18122615,0.05381401,0.18507012,0.12869203,0.40185587,0.03503172,0.96220424,-0.03575860,-0.26997095,-0.00005187
1761621598076,0.09574950,0.10314473,0.17640781,0.12730166,0.40404060,0.01699670,0.96285658,-0.03505207,-0.26772852,0.00004246
1761621598087,-0.14454929,0.16170043,0.08724280,0.16893457,0.38014878,0.02500437,0.96347992,-0.03410604,-0.26559969,0.00018249
1761621598099,0.27184200,0.03911691,0.21776341,0.17380052,0.40637528,0.03527277,0.96413240,-0.03314145,-0.26334431,0.00037825
1761621598110,-0.02431901,0.10164348,0.10062566,0.18079348,0.41643221,0.05512666,0.96480042,-0.03212900,-0.26101229,0.00068696
1761621598121,-0.13696619,0.14736042,0.07976825,0.21154942,0.43439180,0.06837820,0.96549358,-0.03094433,-0.25857969,0.00106988
1761621598132,-0.18510630,0.17416267,0.08152042,0.25548796,0.45349181,0.06006748,0.96621448,-0.02951360,-0.25604014,0.00140625
1761621598143,-0.17168381,0.17612449,0.09475504,0.24692621,0.47304228,0.05852649,0.96694670,-0.02814315,-0.25341475,0.00173108
1761621598154,-0.08985319,0.10463694,0.07653400,0.25727512,0.45579664,0.04800767,0.96765236,-0.02670241,-0.25086229,0.00199992
1761621598165,-0.14895201,0.10866766,0.05058108,0.27375228,0.50476108,0.08817967,0.96841387,-0.02518309,-0.24806087,0.00248932
1761621598177,-0.23601669,0.14902975,0.04598032,0.33052366,0.52831526,0.16029341,0.96920345,-0.02334868,-0.24512872,0.00337894
1761621598188,-0.37864276,0.24858973,0.07189279,0.39940399,0.58563768,0.17638634,0.97007433,-0.02111202,-0.24184915,0.00436671
1761621598199,-0.52929821,0.43634331,0.18549507,0.51549770,0.61979431,0.14367460,0.97097953,-0.01825101,-0.23840929,0.00516410
1761621598210,-0.38955150,0.53223184,0.36843215,0.62193994,0.62495760,0.09364801,0.97188040,-0.01479924,-0.23494077,0.00568385
1761621598221,-0.20869357,0.63825920,0.58335060,0.79229729,0.59624591,0.14012963,0.97273397,-0.01036238,-0.23160180,0.00646857
1761621598232,-0.38354979,0.94470412,0.81988238,0.99784712,0.63985260,0.23429421,0.97360633,-0.00482433,-0.22805062,0.00776891
1761621598244,-0.39360563,0.93842262,0.84935514,1.07294890,0.65975111,0.25120874,0.97447074,0.00123784,-0.22432302,0.00918824
1761621598255,-1.38533130,1.73967648,1.24689079,1.17734626,0.71522860,0.22171882,0.97533347,0.00777211,-0.22035350,0.01041878
1761621598266,0.16517645,0.15966659,0.46832268,1.19112825,0.72224504,0.19882068,0.97613601,0.01432331,-0.21638116,0.01151229
1761621598277,0.06355795,0.14774889,0.41562883,1.17586015,0.66005613,0.17202597,0.97682328,0.02096692,-0.21265184,0.01248424
1761621598288,-0.04911725,0.31861401,0.56795689,1.29650142,0.65024536,0.16839685,0.97741371,0.02822733,-0.20901046,0.01342726
1761621598299,-0.00434389,0.42103656,0.73403149,1.41168202,0.60012951,0.22959587,0.97784417,0.03606217,-0.20567975,0.01470152
1761621598310,0.00840340,0.39694690,0.75221456,1.50436838,0.57029786,0.30157619,0.97813684,0.04448663,-0.20248608,0.01639034
1761621598322,-0.25423156,0.63533810,0.97054301,1.64271785,0.54132179,0.34044536,0.97826353,0.05360371,-0.19948174,0.01827981
1761621598333,-0.24780845,0.56000673,0.96580592,1.70208583,0.54065748,0.34653824,0.97826974,0.06305029,-0.19648109,0.02020310
1761621598344,-0.04760475,0.25069614,0.74742245,1.63633904,0.50026436,0.28877749,0.97816014,0.07221379,-0.19367961,0.02182026
1761621598355,0.17823684,-0.08736431,0.45676756,1.55628770,0.44075312,0.27380714,0.97792561,0.08100681,-0.19118936,0.02336727
1761621598366,0.13799513,-0.01708684,0.55799906,1.55367314,0.40743140,0.26237645,0.97758036,0.08955202,-0.18894848,0.02481034
1761621598378,0.63718778,-0.70188519,-0.19048726,1.46049075,0.34160276,0.25284047,0.97712335,0.09780379,-0.18701843,0.02623889
1761621598388,0.16943164,-0.17862817,0.31785880,1.51297712,0.34371854,0.31356104,0.97656701,0.10612516,-0.18512798,0.02796347
1761621598400,0.22317329,-0.38806353,0.01904098,1.51993854,0.36613164,0.30787177,0.97594634,0.11456082,-0.18309595,0.02967216
1761621598411,0.06918559,-0.35056623,-0.01239045,1.48879959,0.36949692,0.32213528,0.97525484,0.12297254,-0.18100829,0.03149222
1761621598422,-0.64784867,0.47740037,1.02961872,1.39229400,0.34959359,0.26315799,0.97454640,0.13083900,-0.17903308,0.03297907
1761621598433,1.17929405,-1.63441901,-1.66832600,1.45135159,0.34069767,0.20775781,0.97375240,0.13874887,-0.17717628,0.03411135
1761621598444,-0.67071294,0.95047080,1.83020552,1.43425690,0.26186860,0.21589029,0.97280582,0.14670899,-0.17572291,0.03530954
1761621598456,1.03140802,-1.08438954,-0.97284004,1.41990636,0.23054379,0.20949113,0.97175304,0.15473146,-0.17442034,0.03649316
1761621598466,0.10951602,0.05741063,0.64654134,1.47915063,0.20314676,0.19977291,0.97059190,0.16279283,-0.17331319,0.03758192
1761621598478,0.45327090,-0.43706822,-0.14959138,1.42165942,0.17101378,0.20651928,0.96933679,0.17082521,-0.17234696,0.03874876
1761621598489,0.14850692,-0.07776333,0.41988459,1.42132916,0.15266314,0.16168968,0.96802763,0.17871359,-0.17149968,0.03964614
1761621598500,0.42667987,-0.35296702,-0.03358753,1.34185728,0.09230770,0.09760652,0.96667915,0.18622799,-0.17098276,0.04019273
1761621598511,0.52707631,-0.36485215,-0.06114774,1.22963197,0.06118638,0.03422183,0.96537975,0.19311393,-0.17064011,0.04038438
1761621598522,0.69056262,-0.48340571,-0.31448470,1.12137303,-0.02688248,0.00122714,0.96407535,0.19939362,-0.17079066,0.04039125
1761621598533,0.71515428,-0.49084648,-0.39683982,1.06511805,-0.06953797,-0.01691234,0.96276921,0.20530502,-0.17117659,0.04029738
1761621598545,0.69565359,-0.52217861,-0.55871796,0.95808119,-0.10611854,-0.03261456,0.96152248,0.21062237,-0.17176555,0.04011637
1761621598556,0.57470166,-0.50404367,-0.64682447,0.90237427,-0.12483433,-0.04320011,0.96028641,0.21567567,-0.17246462,0.03987445
1761621598567,0.47224892,-0.32219862,-0.29548106,0.86950266,-0.13901501,-0.06987427,0.95908903,0.22041446,-0.17322225,0.03949364
1761621598578,0.45296366,-0.52356714,-0.89458890,0.72386520,-0.16088087,-0.08531425,0.95798513,0.22454049,-0.17413927,0.03900735
1761621598589,0.40773861,-0.27068093,-0.30355958,0.65724693,-0.19113367,-0.12878852,0.95696740,0.22815535,-0.17519051,0.03829901
1761621598600,0.41704129,-0.42725408,-0.78254707,0.56834926,-0.19188951,-0.11930323,0.95604043,0.23130969,-0.17625550,0.03763688
1761621598612,0.30565716,-0.41837187,-0.87233110,0.45501743,-0.18821294,-0.11039663,0.95524234,0.23388053,-0.17731890,0.03701314
1761621598623,0.34783280,-0.13902774,-0.09518276,0.39463006,-0.17628445,-0.10525482,0.95455000,0.23605100,-0.17828846,0.03643423
1761621598634,0.06085130,-0.52233708,-1.38668035,0.34408244,-0.17063319,-0.10101679,0.95391382,0.23797786,-0.17924401,0.03586854
1761621598645,0.03073591,-0.27709425,-0.73371670,0.28664673,-0.15090877,-0.10123198,0.95335931,0.23962608,-0.18011174,0.03528646
1761621598656,0.01563605,-0.16124497,-0.41482707,0.23758004,-0.12621120,-0.07770935,0.95291420,0.24093277,-0.18080590,0.03485905
1761621598667,-0.05401245,-0.20338379,-0.60198081,0.18558359,-0.11225021,-0.06249153,0.95255399,0.24194420,-0.18141766,0.03451848
1761621598678,-0.12448312,-0.20168430,-0.65441293,0.15853165,-0.09259538,-0.05106931,0.95223665,0.24283990,-0.18194082,0.03422993
1761621598690,-0.10383843,-0.11439028,-0.38531883,0.13109010,-0.08266478,-0.03513545,0.95197001,0.24356745,-0.18239961,0.03403493
1761621598701,-0.10035093,-0.12010970,-0.41513056,0.07972681,-0.06019765,-0.03863215,0.95180025,0.24400994,-0.18273371,0.03382052
1761621598712,-0.11672231,-0.12223798,-0.43971878,0.05063952,-0.03285712,-0.03808921,0.95169792,0.24429858,-0.18292100,0.03360342
1761621598723,-0.08126151,-0.09949879,-0.35689761,0.02583806,0.00477206,-0.02722818,0.95167175,0.24444069,-0.18289475,0.03345366
1761621598734,-0.08000138,-0.10447746,-0.37754740,-0.01209066,0.01825668,-0.04880969,0.95171751,0.24437419,-0.18279434,0.03318521
1761621598746,0.03399992,-0.10601785,-0.33164889,-0.03046150,0.04100506,-0.06316829,0.95182121,0.24419752,-0.18255651,0.03281883
1761621598757,-0.13031181,-0.08190647,-0.33272282,-0.06039153,0.07910676,-0.05383288,0.95199662,0.24387140,-0.18212933,0.03252813
1761621598768,-0.07036886,-0.08933605,-0.32885415,-0.10195016,0.10893102,-0.05498117,0.95226721,0.24330558,-0.18152477,0.03222299
1761621598779,-0.05491094,-0.09197244,-0.32889843,-0.11098982,0.14394743,-0.06997331,0.95259225,0.24268404,-0.18071866,0.03183114
1761621598790,-0.05753830,-0.09024344,-0.32140223,-0.14603676,0.17199755,-0.07223536,0.95299224,0.24187353,-0.17976407,0.03143023
1761621598801,-0.04447611,-0.09097799,-0.31399351,-0.17590178,0.19853793,-0.08177932,0.95346148,0.24089728,-0.17866219,0.03097636
1761621598812,-0.03740072,-0.08048794,-0.27205623,-0.19658024,0.22088745,-0.09272574,0.95399589,0.23977677,-0.17740313,0.03044782
1761621598823,-0.01081992,-0.17322087,-0.55148016,-0.23605589,0.25186200,-0.11194834,0.95459718,0.23847846,-0.17601789,0.02983210
1761621598834,0.00566490,-0.04602735,-0.12527443,-0.24948891,0.27661984,-0.13120339,0.95524037,0.23710627,-0.17449648,0.02911049
1761621598846,0.01841856,0.00572903,0.04608642,-0.28830659,0.27326671,-0.12018557,0.95596290,0.23543410,-0.17291153,0.02841341
1761621598857,-0.01726175,-0.21915661,-0.67117508,-0.29336525,0.30552656,-0.11138426,0.95667264,0.23383525,-0.17124641,0.02780636
1761621598868,-0.08210712,-0.13408367,-0.41779265,-0.27945331,0.30939014,-0.09839853,0.95737177,0.23228429,-0.16952930,0.02726025
1761621598879,-0.12958846,0.06910276,0.19317328,-0.25620186,0.31015782,-0.08933296,0.95803274,0.23086237,-0.16780792,0.02676445
1761621598890,-0.14190934,0.01892729,0.03132376,-0.25528007,0.30666350,-0.05380666,0.95867779,0.22944556,-0.16610594,0.02646583
1761621598901,-0.16044358,0.04238988,0.09115941,-0.22842017,0.29443838,-0.04188737,0.95926832,0.22817783,-0.16447181,0.02623335
1761621598912,-0.19059022,0.06228779,0.13454748,-0.22210651,0.29820062,-0.01382877,0.95985535,0.22692293,-0.16278697,0.02615522
1761621598923,-0.19177644,0.01244334,-0.01340156,-0.21667552,0.28321350,0.00523042,0.96039832,0.22573122,-0.16122930,0.02618399
1761621598935,-0.14125437,0.07490842,0.18796200,-0.18798060,0.28485357,0.03374315,0.96091537,0.22465973,-0.15960563,0.02637632
1761621598946,-0.23700501,0.07341215,0.14150787,-0.12835003,0.31418270,0.07284501,0.96136238,0.22394097,-0.15784621,0.02678426
1761621598957,-0.41967461,0.11947285,0.19753990,-0.08293370,0.34759618,0.10406869,0.96175705,0.22349312,-0.15596919,0.02734623
1761621598968,-0.30912976,0.16629935,0.37249603,-0.05828910,0.37265460,0.11250988,0.96215081,0.22316670,-0.15388233,0.02797628
1761621598979,-0.36835332,0.12719056,0.24077173,-0.03031903,0.40006766,0.10396367,0.96252536,0.22299843,-0.15166195,0.02855328
1761621598990,-0.28123357,0.12311811,0.26422621,0.01632182,0.43113661,0.11995941,0.96285838,0.22308902,-0.14926914,0.02921906
1761621599002,-0.25277173,0.14891919,0.35025021,0.09227781,0.47759502,0.18298633,0.96312230,0.22361500,-0.14654685,0.03026208
1761621599013,-0.67586508,0.21843295,0.39919295,0.17917977,0.60292675,0.25379093,0.96335090,0.22461841,-0.14317046,0.03168331
1761621599024,-1.26384869,0.30018522,0.45298033,0.22863588,0.74485844,0.26422364,0.96361256,0.22589877,-0.13899925,0.03316296
1761621599035,-0.04399345,0.10921984,0.36702576,0.24887990,0.85716310,0.24300960,0.96391223,0.22726761,-0.13428486,0.03449951
1761621599046,-1.71916481,0.29833107,0.39981638,0.30275501,0.94276066,0.25812765,0.96417695,0.22894790,-0.12905253,0.03593212
1761621599057,-0.22027922,0.04347835,0.21034692,0.31892869,1.05518753,0.30949906,0.96445549,0.23071796,-0.12319624,0.03764984
1761621599068,-0.83062713,0.07970474,0.18005487,0.30555682,1.20987579,0.29985773,0.96481319,0.23239852,-0.11654193,0.03929906
1761621599080,-0.49279131,0.00927165,0.11744429,0.34827609,1.30810556,0.24494087,0.96514422,0.23436628,-0.10915113,0.04068297
1761621599091,-0.80242339,0.05465208,0.23642638,0.38055030,1.47110148,0.17950378,0.96547266,0.23645930,-0.10106007,0.04167024
1761621599102,0.03681309,-0.02916149,0.19691095,0.38737563,1.44331485,0.14303898,0.96572171,0.23868671,-0.09276101,0.04249272
1761621599113,-0.48365782,0.03072365,0.31206692,0.39408147,1.55128050,0.12183143,0.96593882,0.24089357,-0.08407384,0.04317497
1761621599124,-0.45671199,0.02717441,0.35783967,0.39712488,1.65501556,0.06043453,0.96612350,0.24303804,-0.07513676,0.04350132
1761621599137,0.47420637,-0.10492064,0.07263583,0.34335979,1.59553731,0.02905597,0.96628514,0.24497803,-0.06612197,0.04366549
1761621599146,-0.16869155,-0.05833449,0.15546348,0.34087589,1.66333057,-0.00341082,0.96639099,0.24683580,-0.05705682,0.04364690
1761621599158,0.51015914,-0.14039566,-0.08075846,0.31230510,1.59413416,-0.03105762,0.96643640,0.24860033,-0.04804996,0.04347142
1761621599169,0.12470560,-0.09209777,0.03209677,0.26877497,1.60605617,-0.07231846,0.96647157,0.25009203,-0.03913635,0.04307005
1761621599180,0.57167900,-0.10425772,-0.05155498,0.27412964,1.51786355,-0.09217795,0.96640086,0.25165457,-0.03048453,0.04254464
1761621599191,-0.01884783,-0.03312596,0.17650482,0.26162697,1.53655242,-0.13161428,0.96628907,0.25306735,-0.02218714,0.04183392
1761621599202,0.92170311,-0.09103096,-0.12507770,0.21435310,1.38077292,-0.13356255,0.96614962,0.25428916,-0.01431674,0.04107262
1761621599214,0.39919438,-0.07837689,-0.07988913,0.16188952,1.32329793,-0.16558097,0.96603094,0.25519574,-0.00690627,0.04014536
1761621599224,0.47051775,-0.09501090,-0.17747447,0.10234385,1.20195212,-0.18221172,0.96594881,0.25575352,-0.00035563,0.03915231
1761621599236,0.91188837,-0.12833708,-0.41202872,0.02670581,1.02728608,-0.21442092,0.96594211,0.25590307,0.00539717,0.03795155
1761621599247,0.45055996,-0.13378853,-0.39272352,-0.06514461,0.87966347,-0.21589786,0.96604535,0.25553826,0.01032329,0.03674252
1761621599258,1.27446290,-0.15791879,-0.69226508,-0.10278080,0.75346162,-0.21861396,0.96618771,0.25496783,0.01450500,0.03552922
1761621599269,0.86833525,-0.13177827,-0.57309207,-0.12910673,0.61731972,-0.22252392,0.96636667,0.25423838,0.01799285,0.03427196
1761621599280,0.70848921,-0.12762450,-0.54717022,-0.17788973,0.51312626,-0.21855431,0.96661091,0.25325109,0.02084071,0.03305898
1761621599292,0.64639486,-0.10189163,-0.46601552,-0.21312764,0.40606161,-0.18755031,0.96690648,0.25205757,0.02311465,0.03200870
1761621599303,0.52768379,-0.10283576,-0.44422231,-0.26270130,0.29239619,-0.17340585,0.96727661,0.25059958,0.02473745,0.03104630
1761621599314,0.43755758,-0.10059282,-0.41286291,-0.27758203,0.21419530,-0.16460840,0.96767219,0.24905900,0.02592623,0.03013272
1761621599325,0.41415547,-0.08990464,-0.36766115,-0.31729952,0.12613647,-0.14180250,0.96812890,0.24729799,0.02662629,0.02934572
1761621599336,0.36925224,-0.08618043,-0.33650240,-0.34034300,0.04957292,-0.13614746,0.96862888,0.24539207,0.02690390,0.02858329
1761621599347,0.31727630,-0.08275288,-0.30262044,-0.35503921,-0.00875980,-0.13020162,0.96915300,0.24340385,0.02685484,0.02785416
1761621599358,0.27569940,-0.07411083,-0.25495549,-0.36707656,-0.04766772,-0.11004239,0.96969182,0.24134822,0.02658790,0.02723792
1761621599369,0.18742493,-0.09288754,-0.27855504,-0.40898319,-0.08416085,-0.09730476,0.97028164,0.23907836,0.02612081,0.02669788
1761621599381,0.10131801,-0.05113061,-0.12555736,-0.42452621,-0.11070899,-0.07527790,0.97090858,0.23663734,0.02548424,0.02626503
1761621599392,0.16173133,-0.19586128,-0.54401657,-0.46992438,-0.12436206,-0.06622943,0.97154463,0.23412324,0.02481890,0.02591071
1761621599403,0.08995376,-0.17116708,-0.43508367,-0.46744357,-0.13259899,-0.06911072,0.97220062,0.23150556,0.02407634,0.02552369
1761621599414,-0.12045733,0.06220369,0.27410696,-0.48847898,-0.13546736,-0.05290599,0.97289804,0.22867238,0.02329063,0.02521683
1761621599425,0.11630471,-0.25921055,-0.65636171,-0.56730753,-0.16140434,-0.05161081,0.97362699,0.22566565,0.02243519,0.02494329
1761621599436,-0.08912334,-0.02956919,0.02589199,-0.55651206,-0.13793731,-0.03518191,0.97436657,0.22254918,0.02166274,0.02474628
1761621599448,-0.06754195,-0.06885402,-0.08381824,-0.58342951,-0.14506026,-0.03998524,0.97515747,0.21916529,0.02082139,0.02451436
1761621599459,0.07851703,-0.30972932,-0.71841298,-0.64897587,-0.14102887,-0.03251217,0.97595147,0.21569327,0.02006689,0.02434042
1761621599470,-0.10394858,-0.01212340,0.09589784,-0.64194760,-0.13444739,-0.04937602,0.97678255,0.21200207,0.01929382,0.02405651
1761621599481,0.03591611,-0.23952477,-0.48868697,-0.69695913,-0.12501923,-0.05567105,0.97763508,0.20813395,0.01859996,0.02374753
1761621599492,0.00163565,-0.14291685,-0.22155110,-0.71414236,-0.12351456,-0.05737465,0.97849860,0.20413475,0.01790828,0.02342624
1761621599503,0.08563188,-0.28135699,-0.54310154,-0.82203496,-0.13840458,-0.05947271,0.97943517,0.19969576,0.01716089,0.02310508
1761621599514,-0.05190006,-0.09944678,-0.07228412,-0.83639382,-0.12195200,-0.04315116,0.98040435,0.19497014,0.01647186,0.02286128
1761621599525,0.02572652,-0.36985789,-0.67953189,-0.91903598,-0.12632886,-0.04086856,0.98140361,0.18996139,0.01578337,0.02263855
1761621599537,-0.08020854,-0.18101877,-0.20650737,-0.92141028,-0.10636788,-0.03539721,0.98240225,0.18480149,0.01518771,0.02244032
1761621599548,-0.09392259,-0.20372323,-0.23479649,-0.95525055,-0.10562547,-0.00923181,0.98342121,0.17935656,0.01458565,0.02238770
1761621599559,-0.04793847,-0.40861957,-0.64234305,-1.03689444,-0.10130633,-0.02686153,0.98445569,0.17365364,0.01402846,0.02223996
1761621599570,-0.06116641,-0.26002447,-0.29138562,-1.07419017,-0.09537272,-0.04686737,0.98550195,0.16769189,0.01349914,0.02197985
1761621599581,-0.02646099,-0.17239535,-0.09779999,-1.10082339,-0.10251488,-0.04396646,0.98656248,0.16141720,0.01291481,0.02172924
1761621599593,0.07567356,-0.44488527,-0.61161301,-1.19342205,-0.10616072,-0.04059292,0.98763585,0.15479370,0.01232562,0.02150395
1761621599603,0.07197475,-0.46833109,-0.59858123,-1.27599760,-0.11174517,-0.04146101,0.98871303,0.14783952,0.01171660,0.02127799
1761621599615,0.04501132,-0.67825201,-0.92047830,-1.27583306,-0.09880763,-0.02991969,0.98978327,0.14056727,0.01115340,0.02110744
1761621599626,-0.05550299,-0.24753322,-0.05280251,-1.36885780,-0.10131696,-0.02009469,0.99081323,0.13317544,0.01060629,0.02099893
1761621599637,-0.11002973,0.04383808,0.43316782,-1.28805621,-0.08546786,-0.01401548,0.99178740,0.12576911,0.01011485,0.02091834
1761621599648,-0.04963849,-0.47076886,-0.42537321,-1.37665435,-0.10827290,0.00506509,0.99273999,0.11805985,0.00950852,0.02094671
1761621599659,-0.03146400,-0.54147276,-0.48780766,-1.48236664,-0.11316126,-0.00163690,0.99367335,0.10998095,0.00889179,0.02093779
1761621599671,-0.00119254,-0.22877281,0.03103419,-1.49845912,-0.12268986,-0.00852379,0.99457320,0.10158958,0.00820473,0.02089005
1761621599682,0.06095202,-0.37582353,-0.17759474,-1.51206096,-0.14770869,-0.01046755,0.99541655,0.09304643,0.00737017,0.02083091
1761621599693,0.13582059,-0.67338396,-0.56642483,-1.59627802,-0.15146087,-0.00271213,0.99620432,0.08426691,0.00653714,0.02081600
1761621599704,0.09509829,-0.18966381,0.15664160,-1.60250316,-0.16550580,-0.02367948,0.99693726,0.07521276,0.00560203,0.02068221
1761621599715,0.18194754,-0.92881022,-0.80640426,-1.73316148,-0.18891907,0.00318954,0.99760405,0.06585369,0.00458187,0.02069943
1761621599726,0.07872829,-0.26137979,0.13120426,-1.75386139,-0.21051726,-0.00781419,0.99820451,0.05611976,0.00341350,0.02065606
1761621599738,0.03090691,-0.01936736,0.42836328,-1.70456644,-0.18879897,0.00806043,0.99871738,0.04614805,0.00230902,0.02070321
1761621599749,0.16869754,-1.25465696,-1.02892014,-1.89781753,-0.22105194,0.02503894,0.99914426,0.03571005,0.00109324,0.02084093
1761621599759,0.11281863,-0.87920890,-0.47440456,-1.99092455,-0.25149298,0.00231845,0.99947091,0.02495906,-0.00026482,0.02085345
1761621599771,0.05625201,-0.25187655,0.27384026,-1.95345133,-0.26022752,0.00969238,0.99968162,0.01401973,-0.00172210,0.02090773
1761621599782,0.16600830,-0.50394492,0.01311999,-1.96299647,-0.28712027,0.00709371,0.99977069,0.00292880,-0.00334433,0.02094781
1761621599793,0.30286358,-0.92911301,-0.36889691,-1.88444057,-0.31430797,-0.00673922,0.99974159,-0.00734140,-0.00505731,0.02091108
1761621599804,0.21309478,0.13032316,0.70888780,-1.71031379,-0.32377240,0.00567344,0.99961701,-0.01674813,-0.00683805,0.02094228
1761621599815,0.29361951,-0.29924669,0.26113384,-1.54126926,-0.34097516,-0.00371291,0.99941645,-0.02553336,-0.00878161,0.02092112
1761621599826,-0.20425302,2.27831415,2.55466082,-1.58857154,-0.34986289,-0.02103281,0.99914154,-0.03419108,-0.01068836,0.02080649
1761621599838,0.54508515,-1.31705087,-0.76406946,-1.53229310,-0.37077753,-0.03306255,0.99878348,-0.04292515,-0.01280180,0.02061803
1761621599849,-0.08816147,1.26386042,1.46032830,-1.56903212,-0.36599827,-0.03408731,0.99832540,-0.05202553,-0.01492459,0.02042033
1761621599860,0.25718261,-0.44621440,0.00624892,-1.83348491,-0.41763375,-0.05673149,0.99775403,-0.06155966,-0.01709628,0.02012532
1761621599871,0.39256685,-1.31815243,-0.66684744,-1.68995024,-0.36973184,-0.02652924,0.99705856,-0.07144586,-0.01925921,0.01997013
1761621599882,0.06883754,-0.27116092,0.23687420,-1.77432851,-0.41062663,-0.00780410,0.99627354,-0.08111595,-0.02149713,0.01992759
1761621599893,0.05997040,-0.30583690,0.20416823,-1.68894830,-0.41532447,-0.04779512,0.99543498,-0.09032072,-0.02376065,0.01966711
1761621599905,-0.13182208,0.80803059,0.94309834,-1.50608618,-0.38955270,-0.06329594,0.99455436,-0.09905602,-0.02602005,0.01929999
1761621599916,0.23837747,-0.22898222,0.21947841,-1.48198912,-0.40113343,-0.06653406,0.99363858,-0.10735516,-0.02826640,0.01892740
1761621599926,0.31029038,-0.35566737,0.15330050,-1.50531712,-0.40994511,-0.06083603,0.99268602,-0.11533334,-0.03043911,0.01860497
1761621599938,-0.23975965,1.18698343,1.05443712,-1.41121455,-0.38320496,-0.06817686,0.99166550,-0.12330670,-0.03260422,0.01821977
1761621599949,-0.05672373,0.39999187,0.52171389,-1.37150458,-0.36676598,-0.07420495,0.99058914,-0.13119286,-0.03471312,0.01779309
1761621599960,0.31924190,-0.73711763,-0.11730561,-1.34663916,-0.38837728,-0.09690835,0.98954241,-0.13839738,-0.03679094,0.01727463
1761621599972,-0.27241446,1.27039356,0.95118759,-1.07875523,-0.35040773,-0.08580034,0.98858650,-0.14460022,-0.03880578,0.01678128
1761621599983,-0.01955083,0.76678481,0.62889119,-0.91819752,-0.34149234,-0.10235417,0.98773816,-0.14983394,-0.04075229,0.01619786
1761621599994,0.19511703,0.44529891,0.44079333,-0.85247157,-0.36510698,-0.09919729,0.98696891,-0.15435204,-0.04268736,0.01567212
1761621600006,-0.25160158,1.45598422,0.86630864,-0.69954722,-0.28323552,-0.08823130,0.98623660,-0.15854933,-0.04438677,0.01514273
1761621600016,-0.27692091,1.21290112,0.70404265,-0.77550127,-0.33045406,-0.09898089,0.98551582,-0.16254316,-0.04608861,0.01463298
1761621600027,-0.01080987,0.29172653,0.23406342,-0.75129515,-0.29459474,-0.08531253,0.98476211,-0.16663772,-0.04769415,0.01416803
1761621600038,-0.21502355,0.56187966,0.33352140,-0.65098005,-0.28343572,-0.09090784,0.98406728,-0.17028320,-0.04928139,0.01365894
1761621600049,-0.12235488,0.45366338,0.27268507,-0.49610321,-0.25750752,-0.08518955,0.98351570,-0.17306138,-0.05072343,0.01318188
1761621600060,-0.11530890,0.73678412,0.38364806,-0.35063151,-0.24685551,-0.08087680,0.98310557,-0.17500739,-0.05209348,0.01273301
1761621600072,0.01669228,0.69879416,0.35572084,-0.25388733,-0.23831771,-0.08160710,0.98278270,-0.17644185,-0.05343998,0.01227193
1761621600083,-0.36118505,1.29961982,0.56808811,-0.21444220,-0.21930747,-0.07260110,0.98250879,-0.17762128,-0.05464617,0.01187263
1761621600094,-0.39557093,1.01830649,0.42218417,-0.18331239,-0.21960775,-0.08429235,0.98226130,-0.17863867,-0.05586499,0.01140480
1761621600105,0.27163167,0.15163636,0.10172963,-0.11189513,-0.18117618,-0.06857342,0.98209328,-0.17926528,-0.05687958,0.01102079
1761621600116,-0.41809253,0.84707029,0.33093114,0.01030349,-0.17467883,-0.06253639,0.98204976,-0.17920655,-0.05787525,0.01066434
1761621600127,-0.10414681,0.74446616,0.30802542,0.11323155,-0.15548093,-0.05768247,0.98211524,-0.17858944,-0.05872262,0.01034997
1761621600138,-0.26021824,0.84521843,0.33189363,0.17819666,-0.13868543,-0.03978880,0.98225055,-0.17760045,-0.05949232,0.01012914
1761621600150,-0.28151558,0.61949455,0.23501059,0.18234639,-0.11952116,-0.03772776,0.98240249,-0.17653372,-0.06019152,0.00990843
1761621600160,-0.04229042,0.61371996,0.25615742,0.21116453,-0.11117356,-0.03724172,0.98256864,-0.17541455,-0.06078074,0.00971105
1761621600172,-0.26136532,0.20385019,0.06468402,0.20698892,-0.10619471,-0.02589952,0.98274388,-0.17422436,-0.06139136,0.00956213
1761621600183,-0.09526046,0.41907350,0.17349889,0.29204270,-0.09355095,-0.00221460,0.98299060,-0.17264733,-0.06189653,0.00955017
1761621600194,-0.21322852,0.34984248,0.13424386,0.36628236,-0.07972483,0.01347810,0.98331679,-0.17061446,-0.06233901,0.00962497
1761621600205,-0.18393030,0.48447925,0.19801467,0.41925065,-0.06882266,0.01185716,0.98369612,-0.16826666,-0.06272441,0.00969137
1761621600216,-0.15344621,0.42988581,0.18295686,0.42043223,-0.07091875,0.00685318,0.98407350,-0.16589122,-0.06312510,0.00973009
1761621600227,-0.10302328,0.33551541,0.15277117,0.40153436,-0.05151758,0.01157992,0.98442757,-0.16366270,-0.06341103,0.00979436
1761621600239,-0.08042591,0.03125297,0.02407526,0.37768733,-0.05646634,0.00310290,0.98475919,-0.16152877,-0.06373006,0.00981189
1761621600250,-0.04205943,0.09299520,0.05664247,0.42362509,-0.04726607,0.00897177,0.98512446,-0.15917765,-0.06399239,0.00986169
1761621600261,-0.06137764,0.14975540,0.08160505,0.49098357,-0.03380182,-0.00214271,0.98554881,-0.15645269,-0.06417999,0.00984979
1761621600272,-0.07463482,0.61616405,0.29919369,0.54276140,-0.02040816,-0.00866148,0.98601955,-0.15341323,-0.06429427,0.00980129
1761621600283,-0.07516510,-0.45464341,-0.19196649,0.51480587,-0.01853714,-0.01055702,0.98645760,-0.15053031,-0.06439808,0.00974217
1761621600294,-0.02458139,1.23058387,0.60794645,0.52857039,-0.02228781,-0.03568617,0.98687906,-0.14770246,-0.06451732,0.00955125
1761621600306,-0.02029188,-0.70825993,-0.30652855,0.48346348,-0.00246601,-0.02820353,0.98729174,-0.14492255,-0.06453150,0.00938908
1761621600317,-0.00416264,-0.00253497,0.02848194,0.48579182,-0.00955323,-0.02189348,0.98769185,-0.14215353,-0.06458596,0.00926429
1761621600328,-0.01055662,0.32198190,0.19048905,0.56345766,0.00231119,-0.03645484,0.98812364,-0.13913904,-0.06457359,0.00906925
1761621600340,-0.04583976,-0.42028229,-0.18496557,0.55993458,0.01288516,-0.02281633,0.98860887,-0.13569544,-0.06449435,0.00892893
1761621600350,-0.10981181,0.77555458,0.41698942,0.66585743,0.03587035,-0.03461810,0.98907795,-0.13233286,-0.06431320,0.00875411
1761621600361,-0.12706629,0.83999784,0.46258856,0.59455292,0.03764442,-0.02562374,0.98951661,-0.12912227,-0.06410992,0.00861574
1761621600372,-0.01801984,-0.71041282,-0.32680369,0.53345803,0.02850426,-0.05213620,0.98991818,-0.12610823,-0.06394887,0.00832117
1761621600383,0.00960064,-0.10302341,-0.01248664,0.50841284,0.01412790,-0.04520623,0.99028070,-0.12328654,-0.06387046,0.00807028
1761621600394,0.04099405,-0.29790170,-0.11832454,0.49253343,0.01247340,-0.02547620,0.99062584,-0.12052836,-0.06380061,0.00792761
1761621600406,0.02711957,-0.13450035,-0.03556534,0.51577475,0.02930360,-0.02809817,0.99098162,-0.11766581,-0.06363798,0.00777167
1761621600417,0.01291047,-0.10346517,-0.02261600,0.47482747,-0.00166929,-0.02623352,0.99129151,-0.11503051,-0.06364724,0.00762607
1761621600428,0.00804174,-0.25691288,-0.11294217,0.43913065,0.01723865,-0.00828957,0.99158798,-0.11250551,-0.06354812,0.00757841
1761621600439,-0.04002639,0.18152249,0.13094937,0.45085860,0.01758423,0.01835855,0.99186140,-0.11011596,-0.06345492,0.00767571
1761621600450,-0.02848998,-0.41891361,-0.21624863,0.40657818,-0.00139511,0.01407172,0.99211041,-0.10783912,-0.06346274,0.00775451
1761621600460,-0.01246014,-0.21643408,-0.10120576,0.44296789,0.00111584,0.01225453,0.99235560,-0.10555784,-0.06345699,0.00781762
1761621600472,-0.00169538,-0.12772421,-0.05317829,0.38281695,-0.00397056,0.01580429,0.99258115,-0.10339492,-0.06347942,0.00790691
1761621600483,0.01319630,-0.21960703,-0.10864797,0.34889988,-0.01365288,0.01299424,0.99278419,-0.10137130,-0.06355861,0.00798228
1761621600494,0.02251489,0.07504083,0.06858818,0.34839067,-0.01415050,0.01013140,0.99296915,-0.09948999,-0.06363502,0.00803699
1761621600505,0.05191228,-0.15689228,-0.07029161,0.28797311,-0.02634456,0.01014566,0.99312347,-0.09783415,-0.06378650,0.00809533
1761621600516,0.09391706,-0.35537719,-0.18990879,0.25544874,-0.02133070,-0.00904778,0.99325021,-0.09646750,-0.06390062,0.00804692
1761621600527,0.05518435,-0.37770746,-0.21415092,0.23934444,-0.02992076,0.01379838,0.99336701,-0.09513914,-0.06406668,0.00812350
1761621600539,0.02805283,-0.29353313,-0.16975990,0.23289619,-0.01698467,0.01094652,0.99348753,-0.09379998,-0.06416434,0.00818645
1761621600550,-0.00800667,-0.21185908,-0.12466583,0.22901726,-0.02259444,0.01254938,0.99359507,-0.09256329,-0.06428635,0.00825421
1761621600561,-0.01151876,0.08300488,0.05852110,0.25376272,-0.00858523,0.00979512,0.99371947,-0.09118028,-0.06433314,0.00830760
1761621600571,-0.02979660,-0.09043542,-0.05268319,0.22400413,-0.01313934,0.01490042,0.99382734,-0.08993706,-0.06440607,0.00839029
1761621600583,-0.01540906,-0.12759743,-0.07628907,0.21020328,-0.00654163,0.00480377,0.99393422,-0.08871788,-0.06444401,0.00841815
1761621600594,-0.01505292,0.10317079,0.07188508,0.19285862,-0.00257206,0.00349333,0.99402305,-0.08770537,-0.06445751,0.00843649
1761621600605,0.00202706,-0.26374461,-0.16372929,0.14786974,-0.00082654,0.00824257,0.99409443,-0.08688470,-0.06446210,0.00848224
1761621600616,-0.00868663,-0.06475478,-0.03758627,0.14450337,0.00444944,-0.00541278,0.99416798,-0.08606103,-0.06443674,0.00845139
1761621600627,-0.02166160,-0.20650466,-0.13245405,0.16461117,0.01144863,0.00308088,0.99425062,-0.08514744,-0.06437320,0.00846849
1761621600638,-0.03740106,-0.00582029,-0.00394571,0.20044340,0.00743712,0.00846883,0.99434753,-0.08403498,-0.06433192,0.00851549
1761621600650,-0.02251824,0.05661244,0.03856289,0.21466727,0.01266959,-0.00321557,0.99445407,-0.08282211,-0.06426034,0.00849732
1761621600661,-0.02366139,0.17626962,0.11888840,0.24776216,0.02430741,0.00717843,0.99457382,-0.08147180,-0.06412786,0.00853644
1761621600673,-0.02084166,-0.07950705,-0.05054755,0.19097378,0.01771001,0.01231916,0.99467488,-0.08030686,-0.06401983,0.00861159
1761621600684,-0.06224833,0.15902235,0.10519617,0.16670080,0.02163119,0.00242549,0.99475601,-0.07939001,-0.06390086,0.00862493
1761621600694,-0.05317389,-0.01477829,-0.01005391,0.18527202,0.03530940,0.00885757,0.99484464,-0.07841733,-0.06371549,0.00867143
1761621600705,-0.01849648,-0.11954252,-0.07729103,0.20265399,0.02791974,0.02084133,0.99493982,-0.07731286,-0.06356332,0.00878502
1761621600716,-0.02155324,0.01490780,0.01337280,0.23089699,0.04107908,-0.00777748,0.99505247,-0.07604293,-0.06333739,0.00874224
1761621600727,-0.02219875,0.07440342,0.05325672,0.23129319,0.03372790,0.00982802,0.99516115,-0.07475925,-0.06315020,0.00879679
1761621600738,-0.03777488,0.12208654,0.08560689,0.22655973,0.04393082,0.00415887,0.99526713,-0.07353583,-0.06291297,0.00881924
1761621600750,0.02196962,-0.12854178,-0.08007014,0.19348647,0.03525256,0.00150465,0.99536386,-0.07239426,-0.06270498,0.00882812
1761621600762,-0.01188554,-0.03659766,-0.02085148,0.16127172,0.04113640,0.01311125,0.99544578,-0.07145889,-0.06246639,0.00890417
1761621600771,-0.11752816,0.19522409,0.12953970,0.16938959,0.06053034,0.00903555,0.99552318,-0.07062888,-0.06216979,0.00894844
1761621600783,0.05316626,-0.38093490,-0.25474225,0.14838710,0.03890891,0.01985741,0.99559626,-0.06977565,-0.06194607,0.00906262
1761621600794,-0.03904059,-0.01083721,-0.00716412,0.17944097,0.04470875,0.01257254,0.99567957,-0.06878873,-0.06170017,0.00913177
1761621600805,0.00120071,0.00715810,0.00898996,0.19054040,0.03916080,0.01186531,0.99576414,-0.06774075,-0.06148478,0.00919703
1761621600816,0.03725803,0.00109504,0.00928650,0.17688189,0.03552311,0.00606161,0.99584298,-0.06675021,-0.06128585,0.00923098
1761621600827,-0.03060925,0.11532503,0.08248657,0.17821732,0.03510347,0.01429245,0.99592209,-0.06573438,-0.06108576,0.00931244
1761621600839,0.03886182,-0.13471512,-0.08694189,0.14167923,0.03599970,0.01535783,0.99598624,-0.06493389,-0.06088237,0.00939921
1761621600853,0.07853622,-0.29605577,-0.20043894,0.10042521,0.03141575,0.01554151,0.99604791,-0.06418572,-0.06064832,0.00951500
1761621600860,-0.52869505,1.24903017,0.84636655,0.20691842,0.07253294,0.03201650,0.99610434,-0.06351324,-0.06041259,0.00961905
1761621600872,0.14084731,-0.53655442,-0.36798955,0.09079793,0.04282776,0.01864480,0.99615177,-0.06298661,-0.06016419,0.00972719
1761621600884,0.04646254,-0.27833355,-0.19341337,0.05915806,0.04175592,0.02538931,0.99618924,-0.06261687,-0.05990321,0.00988587
1761621600893,-0.18268973,0.11511006,0.06708021,0.06836672,0.05873288,0.02317755,0.99622184,-0.06232289,-0.05965066,0.00998554
1761621600904,0.03930719,-0.19913610,-0.13884273,0.08827910,0.03740192,0.04023506,0.99626433,-0.06181087,-0.05943373,0.01021890
1761621600915,-0.01159328,0.00302197,0.00275689,0.14786994,0.06214935,0.03493292,0.99633342,-0.06099020,-0.05908880,0.01041278
1761621600967,0.01240069,0.00173509,0.00334912,0.03953314,0.01616368,0.00877531,0.99641775,-0.05996826,-0.05867097,0.01063962
1761621600974,-2.87844594,3.92647604,2.62739293,0.84947367,0.50308687,0.17360911,0.99669519,-0.05691016,-0.05685986,0.01126461
1761621601022,0.46145062,-0.65390201,-0.43719646,0.05853452,0.04233574,0.00213732,0.99683071,-0.05551118,-0.05584803,0.01131570
1761621601029,-5.02897256,6.62382002,4.49062486,0.72276435,0.39232431,0.06572668,0.99702986,-0.05312606,-0.05455336,0.01153259
1761621601051,1.29483418,-1.57638887,-1.05398770,0.18864551,0.09292606,0.00367927,0.99719174,-0.05106983,-0.05354047,0.01157270
1761621601067,0.03622712,-0.00597549,0.00384955,0.14899136,0.09630949,0.00386654,0.99729715,-0.04982575,-0.05273628,0.01160498
1761621601083,0.03818451,-0.11435917,-0.07912579,0.13352003,0.09160782,0.00368225,0.99738414,-0.04880432,-0.05203548,0.01163315
1761621601096,-0.02911517,-0.04793309,-0.03543470,0.13701997,0.10705429,0.01640623,0.99746213,-0.04791369,-0.05133963,0.01173979
1761621601108,-0.02981467,-0.01902964,-0.01368215,0.16109014,0.09518579,0.00972133,0.99753725,-0.04693909,-0.05076376,0.01179861
1761621601117,-0.03920881,0.13198859,0.10246941,0.20468889,0.11013626,-0.01186942,0.99760967,-0.04596682,-0.05024061,0.01174223
1761621601127,0.13838914,-0.18164257,-0.12547770,0.14235674,0.07729691,0.02035804,0.99766090,-0.04524792,-0.04985026,0.01184504
1761621601140,-0.06313107,0.08915343,0.06657075,0.14195454,0.08166848,0.02425199,0.99772330,-0.04437490,-0.04934800,0.01199419
1761621601154,-0.00424303,0.07372843,0.06033100,0.14811256,0.04386020,-0.00357225,0.99778733,-0.04328627,-0.04902563,0.01196793
1761621601165,0.19180721,-0.16203264,-0.10711932,0.20665738,0.06092672,0.02318098,0.99785086,-0.04214966,-0.04869053,0.01209542
1761621601175,-0.34721000,0.77894310,0.58620084,0.22713453,0.07485094,-0.00032352,0.99791315,-0.04107077,-0.04833499,0.01209389
1761621601186,0.22434730,-0.27466025,-0.19182590,0.24554349,0.06543608,0.01909719,0.99798454,-0.03970800,-0.04797182,0.01219988
1761621601198,0.00000331,0.06248608,0.05405239,0.27095365,0.08958555,0.02295186,0.99806975,-0.03812292,-0.04744774,0.01233415
1761621601209,-0.11626320,0.29988119,0.23556120,0.27841044,0.10391908,0.01465289,0.99815902,-0.03648030,-0.04683462,0.01242060
1761621601221,-0.00106658,-0.00047933,0.00775484,0.24861349,0.09695493,-0.00232776,0.99823707,-0.03503834,-0.04627228,0.01240710
1761621601232,-0.14630306,0.16118589,0.12768717,0.19187687,0.11678941,0.01964103,0.99830468,-0.03393505,-0.04560074,0.01252003
1761621601244,0.05721124,-0.24671333,-0.18478024,0.18905352,0.10903563,-0.01235149,0.99837093,-0.03283854,-0.04496833,0.01244839
1761621601256,-0.09739821,0.08736839,0.07203681,0.21265967,0.11784528,-0.01143138,0.99844151,-0.03161575,-0.04429072,0.01238266
1761621601276,0.25391790,-0.46849570,-0.35925296,0.16183462,0.07529376,-0.00168829,0.99852680,-0.02995694,-0.04351896,0.01236536
1761621601280,-5.14904100,9.93546646,7.80333287,0.91945107,0.39173840,0.01371996,0.99862225,-0.02793415,-0.04265714,0.01239554
1761621601288,1.61203932,-2.91729857,-2.25723985,0.48775315,0.19675307,-0.00221876,0.99870098,-0.02615385,-0.04193899,0.01238744
1761621601299,0.39509115,-0.71497852,-0.55007316,0.36600956,0.14728477,0.00608630,0.99878938,-0.02403100,-0.04108474,0.01242274
1761621601311,-0.02701575,0.06715040,0.06783168,0.31684811,0.13339224,0.01102078,0.99886325,-0.02217743,-0.04030439,0.01248722
1761621601322,-0.17939849,0.36789211,0.31470033,0.32591572,0.15722266,0.02683774,0.99893535,-0.02035231,-0.03942395,0.01263751
1761621601334,0.05249460,-0.26089809,-0.19950650,0.32535642,0.14628581,0.03731609,0.99900181,-0.01848151,-0.03858280,0.01285208
1761621601345,-0.08426621,0.00971815,0.02043628,0.32490902,0.16142539,0.05220477,0.99906614,-0.01661328,-0.03765461,0.01315225
1761621601356,-0.27813497,0.32797904,0.28479673,0.34742002,0.17415781,0.04313116,0.99912912,-0.01468510,-0.03668803,0.01339163
1761621601368,0.11832951,-0.28686685,-0.22137542,0.37796670,0.17541754,0.03817105,0.99919278,-0.01249289,-0.03567061,0.01361302
1761621601380,-0.18102248,0.21549368,0.19838331,0.38997672,0.18695536,0.04397021,0.99925508,-0.01015303,-0.03454888,0.01387684
1761621601390,-0.06466399,0.13120065,0.13686969,0.51634252,0.24070864,0.03653258,0.99931745,-0.00751968,-0.03332126,0.01406316
1761621601401,-0.15170114,0.25148728,0.24130838,0.45709967,0.25158039,0.04223362,0.99937509,-0.00500564,-0.03193757,0.01429544
1761621601412,-0.11127062,0.07983217,0.09671830,0.40116780,0.25769065,0.03316152,0.99942580,-0.00277916,-0.03050739,0.01447949
1761621601424,-0.15792925,0.05376098,0.07402077,0.32550458,0.27657081,-0.00374300,0.99947725,-0.00089123,-0.02890328,0.01445778
1761621601435,0.06686723,-0.36490015,-0.29770993,0.33178994,0.27771580,0.02611576,0.99951916,0.00098338,-0.02733418,0.01460534
1761621601446,-0.08436077,-0.14929143,-0.11277117,0.36350836,0.28666629,0.03328571,0.99955496,0.00301903,-0.02572885,0.01479174
1761621601458,-0.11457406,-0.01168608,0.01247307,0.41871659,0.33176897,0.04470386,0.99958749,0.00536384,-0.02387095,0.01504208
1761621601469,-0.26101027,0.20315675,0.21237261,0.49411972,0.36569908,0.06183951,0.99960989,0.00805680,-0.02187789,0.01537910
1761621601480,-0.03940364,-0.05112602,-0.01764924,0.42517484,0.37583541,0.04730587,0.99962815,0.01054407,-0.01967925,0.01565584
1761621601491,-0.31001543,0.22208713,0.24079832,0.41252298,0.37611617,0.04163993,0.99963665,0.01283357,-0.01759180,0.01588694
1761621601502,-0.13613688,-0.00287433,0.03521781,0.41304859,0.39988748,0.04240710,0.99963746,0.01510534,-0.01539242,0.01612018
1761621601514,-0.22924186,0.07630127,0.11346453,0.35392974,0.37889731,0.03949300,0.99963220,0.01712274,-0.01323271,0.01634529
1761621601525,0.17705553,-0.34412961,-0.29276703,0.34936732,0.40773839,0.03924854,0.99962077,0.01907920,-0.01094937,0.01656508
1761621601536,-0.03852305,-0.15541770,-0.11618010,0.32193803,0.41087100,0.06363489,0.99960111,0.02089815,-0.00862795,0.01692462
1761621601547,-0.15342952,-0.07111591,-0.03260317,0.33516818,0.41243186,0.04423091,0.99957373,0.02274157,-0.00635958,0.01716789
1761621601558,0.03427376,-0.14886600,-0.11408378,0.35392252,0.42949621,0.03339576,0.99953547,0.02474123,-0.00393292,0.01735658
1761621601570,-0.01676906,0.00164468,0.03708590,0.33245948,0.42308661,0.02533868,0.99949169,0.02660301,-0.00156364,0.01749847
1761621601581,0.04645476,-0.05654458,-0.02363944,0.30008042,0.37506756,0.03626157,0.99944305,0.02828346,0.00053674,0.01770154
1761621601592,0.11747702,-0.12495344,-0.09737162,0.23041679,0.34511094,0.02897693,0.99939991,0.02957379,0.00246936,0.01786381
1761621601603,-0.13288274,-0.02546585,0.00975572,0.26197797,0.34248720,0.01297473,0.99934754,0.03104087,0.00438729,0.01793647
1761621601614,0.39072635,-0.27898100,-0.27357601,0.30287674,0.33388713,0.05108403,0.99927828,0.03273698,0.00625706,0.01822254
1761621601626,0.26514606,-0.12732510,-0.12102851,0.25311672,0.29865405,0.04577854,0.99920950,0.03425568,0.00804898,0.01849721
1761621601637,-0.37568377,0.26844853,0.32540048,0.27301945,0.31063274,0.04623978,0.99914170,0.03566173,0.00964874,0.01873535
1761621601648,0.31619456,-0.23763779,-0.24251659,0.21239817,0.28514971,0.06293749,0.99907516,0.03685116,0.01124558,0.01908780
1761621601659,0.03014708,-0.11897466,-0.10675933,0.20302908,0.28410991,0.07996255,0.99900539,0.03797797,0.01282239,0.01953159
1761621601670,0.09452882,-0.19171081,-0.19157361,0.14259336,0.26382216,0.06828218,0.99894658,0.03878362,0.01431298,0.01991738
1761621601681,0.01191591,-0.20401078,-0.20295086,0.09178535,0.26117461,0.06990349,0.99889658,0.03929762,0.01577556,0.02030884
1761621601693,0.02198322,-0.24899208,-0.25587790,0.06007688,0.26147124,0.08235126,0.99885004,0.03963105,0.01722673,0.02076589
1761621601704,0.03731166,-0.25768508,-0.26957777,0.02855461,0.25032337,0.09215183,0.99880766,0.03979095,0.01862854,0.02128194
1761621601715,-0.01577871,-0.20069683,-0.20547800,0.04861782,0.26894873,0.11144872,0.99875356,0.04006564,0.02014810,0.02191163
1761621601726,-0.10238860,-0.11821624,-0.11001151,0.06171804,0.28210201,0.10476444,0.99869402,0.04040818,0.02171376,0.02249307
1761621601737,-0.28717893,0.01035449,0.04736904,0.10548121,0.28701212,0.09950628,0.99862100,0.04099887,0.02332103,0.02305030
1761621601748,0.15646714,0.02028595,0.02210269,0.09532622,0.27760598,0.08411711,0.99855173,0.04152317,0.02484787,0.02351295
1761621601760,0.02689290,0.03200363,0.04501136,0.08475913,0.27029037,0.07941534,0.99848375,0.04198934,0.02633446,0.02394973
1761621601771,0.15202459,0.02286635,0.02273231,0.08263810,0.23973383,0.06217477,0.99841946,0.04245211,0.02767697,0.02429791
1761621601782,0.12218119,-0.04871456,-0.05521584,0.03989661,0.23790677,0.05335030,0.99836430,0.04267753,0.02902114,0.02459934
1761621601793,0.09723397,-0.08152075,-0.09023350,0.02832202,0.21484317,0.05461172,0.99831423,0.04283613,0.03022427,0.02490517
1761621601804,0.11278477,-0.02487932,-0.03068524,0.09332122,0.22670525,0.05896871,0.99824413,0.04335873,0.03149382,0.02523539
1761621601816,0.05044779,0.06103750,0.07000239,0.11331419,0.21045780,0.06609513,0.99816973,0.04398763,0.03266186,0.02560222
1761621601827,0.14406868,0.08725728,0.08766276,0.12761048,0.18637253,0.03962644,0.99809692,0.04470863,0.03371486,0.02582611
1761621601838,0.08143967,0.17205113,0.18892334,0.18947231,0.18550641,0.01673099,0.99801232,0.04575072,0.03473515,0.02591813
1761621601849,0.24590629,0.13509875,0.12773188,0.16954413,0.12738242,0.03602741,0.99793599,0.04672560,0.03546760,0.02612529
1761621601860,0.08772301,0.14563146,0.15913885,0.14716387,0.10277365,0.03710546,0.99787332,0.04752029,0.03602257,0.02632566
1761621601872,0.21723603,0.04495513,0.02962897,0.14969285,0.07799634,0.02085174,0.99781143,0.04839599,0.03647885,0.02644764
1761621601883,0.29340051,-0.09104767,-0.13382173,0.14077576,0.06363884,0.03541222,0.99775656,0.04915618,0.03682250,0.02663886
1761621601894,-0.02685698,0.10033768,0.12202236,0.10721827,0.05693252,0.04606233,0.99770893,0.04974588,0.03713563,0.02689221
1761621601905,0.19928780,-0.16184457,-0.20471251,0.11870785,0.04399579,0.05695777,0.99765771,0.05041064,0.03738201,0.02721117
1761621601916,0.06090707,0.00957574,0.00692252,0.15500834,0.03180797,0.05130526,0.99759996,0.05126319,0.03755695,0.02749335
1761621601927,0.12058081,-0.01001663,-0.02449284,0.11127824,0.02533426,0.02601942,0.99755799,0.05189191,0.03770009,0.02764036
1761621601938,0.08642942,-0.07693677,-0.09631228,0.07085334,0.00736328,0.03762920,0.99752960,0.05229223,0.03774169,0.02785296
1761621601949,0.07068161,-0.01029972,-0.01874660,0.14497853,0.01124388,0.04087545,0.99747883,0.05308961,0.03780353,0.02807778
1761621601961,0.02538472,0.01490571,0.01598788,0.14763824,0.02373639,0.05845774,0.99741964,0.05392377,0.03793764,0.02840807
1761621601972,-0.01209283,0.05982593,0.07371664,0.16002542,0.03659055,0.04417309,0.99735533,0.05482791,0.03814438,0.02865764
1761621601983,-0.07433661,0.09636771,0.12544751,0.17406230,0.04847516,0.06090062,0.99728232,0.05578526,0.03841099,0.02899260
1761621601994,-0.05289296,0.04098974,0.05917362,0.15139201,0.03942502,0.05392674,0.99721835,0.05661791,0.03862783,0.02928919
1761621602005,-0.00289634,-0.03740220,-0.03877127,0.11562384,0.03982390,0.03312024,0.99716725,0.05726541,0.03885085,0.02947467
1761621602016,-0.00344494,-0.07443008,-0.08216635,0.08145349,0.04500684,0.04356928,0.99712386,0.05772155,0.03910288,0.02971866
1761621602027,0.00885462,-0.07814790,-0.08917812,0.11430110,0.03980655,0.04502356,0.99707077,0.05835592,0.03932381,0.02996854
1761621602039,-0.02589653,-0.03807757,-0.03771475,0.12289051,0.04307032,0.05895265,0.99701127,0.05903796,0.03956285,0.03029572
1761621602050,-0.05358065,0.00690936,0.01894331,0.16101015,0.06568191,0.07304100,0.99692956,0.05994767,0.03993395,0.03070840
1761621602061,-0.22120590,0.19164985,0.26403833,0.19850800,0.10408607,0.07865789,0.99682679,0.06103946,0.04050643,0.03114102
1761621602072,-0.03247264,0.00490281,0.01588114,0.18805498,0.12057286,0.07050128,0.99671977,0.06211137,0.04119369,0.03154288
1761621602083,-0.19112894,0.12703048,0.18725464,0.19266730,0.12474373,0.06346839,0.99661444,0.06316141,0.04187355,0.03188878
1761621602094,-0.05204673,-0.01845929,-0.00659264,0.14071556,0.12526602,0.05536948,0.99652450,0.06394942,0.04257503,0.03219885
1761621602106,-0.04273511,-0.08650223,-0.08912306,0.10005950,0.13859113,0.04068791,0.99644753,0.06450975,0.04335115,0.03242670
1761621602117,-0.04315022,-0.10385418,-0.11129449,0.10414536,0.14906509,0.05231164,0.99636411,0.06508776,0.04417846,0.03271703
1761621602128,-0.03136073,-0.10755986,-0.11808261,0.08357336,0.16263053,0.04275459,0.99628474,0.06555577,0.04508919,0.03295646
1761621602139,-0.03404858,-0.14257504,-0.16112750,0.02946120,0.16780056,0.02994957,0.99622480,0.06572222,0.04603726,0.03312568
1761621602150,-0.03404561,-0.15937905,-0.18260511,0.01945694,0.16138864,0.02914361,0.99617048,0.06583021,0.04693297,0.03328742
1761621602161,0.03569393,-0.12674614,-0.15584970,0.03092658,0.15042724,0.01460315,0.99611624,0.06600340,0.04777536,0.03336920
1761621602173,0.01764592,-0.04254781,-0.05123814,0.05777323,0.16119270,0.03418804,0.99604590,0.06632115,0.04866192,0.03355723
1761621602184,0.01990884,-0.01690366,-0.02060143,0.05033016,0.14296996,0.02873195,0.99598279,0.06660048,0.04945540,0.03371670
1761621602195,-0.08019883,0.02051499,0.04300425,0.05617060,0.15476721,0.03164049,0.99591165,0.06691785,0.05032984,0.03389547
1761621602206,0.21770266,-0.04044686,-0.08592709,0.03963905,0.14141282,0.03269828,0.99585067,0.06713785,0.05111468,0.03407694
1761621602217,-0.17602987,0.00809550,0.04577623,0.01538845,0.12949346,0.00813926,0.99580622,0.06722325,0.05183337,0.03412211
1761621602228,0.22366714,-0.06912136,-0.12342587,0.00271844,0.11081596,0.00903597,0.99577096,0.06723847,0.05245394,0.03417271
1761621602239,0.09008823,-0.06282938,-0.09206314,-0.00792832,0.09756528,0.01107870,0.99574289,0.06719408,0.05300030,0.03423476
1761621602251,0.08887327,-0.06977333,-0.10037280,-0.01447362,0.08405917,0.01414905,0.99572066,0.06711375,0.05346683,0.03431328
1761621602262,0.11829016,-0.05846103,-0.09348475,-0.01312923,0.06986497,0.00617055,0.99570334,0.06704022,0.05385807,0.03434784
1761621602273,0.20181131,0.01623726,-0.01824929,0.00205374,0.06395220,-0.01135840,0.99568532,0.06705172,0.05421621,0.03428423
1761621602284,-0.00339823,-0.02128679,-0.02506425,0.01209171,0.04610951,0.00009880,0.99566681,0.06711883,0.05447211,0.03428478
1761621602295,0.10287558,0.05113544,0.04304750,0.03780677,0.03207975,0.00272355,0.99564237,0.06732866,0.05465016,0.03429989
1761621602306,0.10642951,0.06509440,0.05953262,0.02630751,0.02866370,-0.00491988,0.99562452,0.06747598,0.05481067,0.03427234
1761621602318,0.07863974,0.02876231,0.01996434,0.00668128,0.02461437,-0.00016977,0.99561442,0.06751340,0.05494851,0.03427139
1761621602329,0.12895014,0.00301064,-0.02191951,-0.01312545,0.02271392,-0.00765347,0.99561385,0.06744055,0.05507458,0.03422892
1761621602340,-0.04879976,-0.08746692,-0.09750126,-0.02177981,0.02365396,0.00728481,0.99561337,0.06731967,0.05520586,0.03426935
1761621602351,0.00590665,-0.05795709,-0.07241561,-0.03062880,0.02369864,0.01651012,0.99561441,0.06714662,0.05533975,0.03436263
1761621602362,-0.02566602,-0.05340967,-0.06014636,-0.01963619,0.02776162,0.01119858,0.99561103,0.06703764,0.05549383,0.03442478
1761621602373,0.06183333,-0.00444470,-0.01773894,-0.02178312,0.01836611,0.00004750,0.99561349,0.06691566,0.05559668,0.03442505
1761621602384,-0.08490056,-0.07794422,-0.07858962,-0.03640198,0.01965864,0.01361567,0.99561833,0.06671362,0.05570579,0.03450061
1761621602396,0.02281993,-0.00459185,-0.01005012,-0.03127495,0.01577346,0.00483333,0.99562407,0.06654161,0.05579254,0.03452720
1761621602407,0.01801495,-0.00472924,-0.00930864,-0.02407929,0.01539138,0.01042321,0.99562621,0.06640677,0.05587873,0.03458557
1761621602418,0.02141210,0.01577695,0.01561361,-0.01608297,0.01725844,0.00432448,0.99562594,0.06631670,0.05597538,0.03460978
1761621602429,0.05804361,0.03342289,0.02890177,-0.02405767,0.01366190,0.01363514,0.99562798,0.06617957,0.05605325,0.03468750
1761621602440,-0.06626258,-0.03858635,-0.03332439,-0.02658803,0.01681910,0.00902317,0.99563075,0.06603334,0.05614576,0.03473713
1761621602451,-0.00654580,0.00353667,0.00566919,-0.03024487,0.00867797,0.02261913,0.99563476,0.06586548,0.05619392,0.03486267
1761621602463,-0.00475298,-0.00770530,-0.00808335,-0.02667502,0.01948275,0.00768841,0.99563696,0.06571610,0.05630302,0.03490572
1761621602474,0.17674391,0.06285586,0.04071958,-0.02708328,0.01322629,-0.01182933,0.99564501,0.06556579,0.05637643,0.03484007
1761621602485,-0.15590374,-0.07264712,-0.05683300,-0.02593950,0.01282570,0.01346414,0.99564791,0.06541793,0.05644954,0.03491682
1761621602496,0.00783835,0.00386706,0.00326528,-0.01214994,0.00805217,0.00753476,0.99564832,0.06535232,0.05649302,0.03495750
1761621602507,0.03336380,0.03766855,0.03967374,-0.00259080,-0.00278261,0.00817887,0.99564855,0.06533795,0.05647757,0.03500290
1761621602518,0.01872805,0.04842699,0.05496381,-0.00548062,0.00798698,0.01044792,0.99564594,0.06530698,0.05652270,0.03506193
1761621602529,0.05744491,0.05385571,0.05415522,0.00043994,-0.00244895,0.00143353,0.99564627,0.06530942,0.05650911,0.03506988
1761621602540,0.00705994,-0.01444113,-0.01917673,-0.01477094,-0.01095320,0.00151635,0.99565480,0.06522744,0.05644832,0.03507830
1761621602552,0.01225269,-0.03269948,-0.04211823,-0.03629288,-0.00684992,0.01721307,0.99566708,0.06502057,0.05640927,0.03517641
1761621602563,0.02696168,-0.02705260,-0.03863851,-0.02602128,-0.02524277,0.00075557,0.99568444,0.06487485,0.05626791,0.03518065
1761621602574,0.07904979,0.00359267,-0.01138768,-0.03040379,-0.03277705,0.00063708,0.99570518,0.06470915,0.05608928,0.03518412
1761621602585,0.05733130,-0.08674676,-0.11712269,-0.06426494,-0.05324478,-0.00187246,0.99574562,0.06434927,0.05579111,0.03517363
1761621602596,0.07415537,-0.04259405,-0.06653789,-0.05764585,-0.05802907,0.00609238,0.99578338,0.06402645,0.05546615,0.03520775
1761621602607,0.08185301,-0.00914793,-0.02737637,-0.01739715,-0.06429280,-0.00155342,0.99580970,0.06392990,0.05510932,0.03519913
1761621602619,0.07852105,0.05394732,0.05025861,0.00049131,-0.08084755,-0.01157728,0.99583652,0.06393263,0.05466062,0.03513487
1761621602630,0.12698813,0.09166844,0.08601596,-0.00031688,-0.08185434,-0.02905932,0.99586742,0.06393085,0.05420223,0.03497214
1761621602641,0.06371252,0.04200083,0.03877454,-0.01637475,-0.09519288,-0.00306640,0.99590403,0.06383588,0.05365011,0.03495436
1761621602652,0.09372422,-0.00649367,-0.02594303,-0.03315371,-0.10045591,0.00001380,0.99594456,0.06365685,0.05310765,0.03495443
1761621602663,0.03068433,-0.03264532,-0.04514449,-0.04209761,-0.10970004,-0.00469142,0.99599223,0.06342531,0.05250430,0.03492863
1761621602674,0.02540562,-0.03554255,-0.04652325,-0.04007795,-0.10779783,0.00138719,0.99603746,0.06320288,0.05190602,0.03493633
1761621602686,0.01462772,-0.03375511,-0.04255651,-0.04627885,-0.12100868,-0.00051608,0.99608951,0.06294140,0.05122232,0.03493341
1761621602698,0.00268289,-0.02133857,-0.02516415,-0.03630262,-0.10745815,0.00950989,0.99613641,0.06271270,0.05054534,0.03499332
1761621602707,0.16254691,-0.06003998,-0.10248789,-0.05828100,-0.15004340,-0.00646374,0.99618908,0.06244460,0.04985514,0.03496359
1761621602719,-0.05663300,0.02173556,0.03877167,-0.03039503,-0.11073470,-0.00060872,0.99623033,0.06227591,0.04924056,0.03496021
1761621602730,-0.01011174,0.02491977,0.03327278,-0.02228689,-0.12349653,0.00502727,0.99627180,0.06214888,0.04853663,0.03498887
1761621602741,0.02850557,0.04214270,0.04681284,-0.00167383,-0.12170819,0.00567620,0.99630337,0.06213975,0.04787332,0.03501980
1761621602752,-0.03239198,0.05813321,0.07703675,-0.00083643,-0.11027941,0.01067643,0.99633080,0.06213511,0.04726127,0.03507906
1761621602763,-0.01697269,0.05149486,0.06652304,0.00246485,-0.12572943,0.00873714,0.99636136,0.06214891,0.04655719,0.03512798
1761621602774,-0.00908840,0.02560231,0.03298670,-0.00562615,-0.11886459,0.01317355,0.99639134,0.06211769,0.04589749,0.03520110
1761621602785,-0.00083756,0.01941797,0.02477304,-0.00957797,-0.11759144,0.00221789,0.99642436,0.06206405,0.04523898,0.03521352
1761621602797,-0.01005856,-0.02008610,-0.02140705,-0.02588041,-0.12855836,0.01903450,0.99646269,0.06191653,0.04450619,0.03532201
1761621602808,0.02835504,-0.03120761,-0.04165079,-0.01599885,-0.12357602,0.01175688,0.99649599,0.06182854,0.04382652,0.03538668
1761621602819,-0.02311946,0.01849808,0.02754159,0.01536702,-0.12150913,0.01520252,0.99651731,0.06191460,0.04314607,0.03547181
1761621602830,0.00107086,0.05436490,0.06580429,0.02175364,-0.12905729,0.00439316,0.99654009,0.06203750,0.04241690,0.03549663
1761621602841,0.12348816,0.04927904,0.03884740,0.01120568,-0.13697773,-0.00258137,0.99656879,0.06209970,0.04165667,0.03548231
1761621602852,-0.03477059,0.02588897,0.03802844,0.01590591,-0.12853622,0.00649779,0.99659157,0.06218797,0.04094330,0.03551837
1761621602864,0.02385565,0.00859060,0.00743032,0.01249388,-0.14025861,0.00795356,0.99661734,0.06225731,0.04016486,0.03556251
1761621602875,0.00100491,0.00880145,0.01161812,0.01029327,-0.13166316,0.00349112,0.99664248,0.06231496,0.03942755,0.03558206
1761621602887,-0.06108040,-0.01694378,-0.00861607,-0.00186448,-0.12535206,0.00237730,0.99667312,0.06230340,0.03865037,0.03559680
1761621602897,0.25654548,0.00957181,-0.02990608,0.01182343,-0.16578077,0.01978247,0.99669696,0.06236074,0.03784633,0.03569275
1761621602908,-0.10934780,-0.01796627,-0.00230599,-0.00123989,-0.15733487,0.00835464,0.99672850,0.06235386,0.03697312,0.03573911
1761621602919,-0.00081422,0.00032077,0.00236597,0.02642924,-0.15734604,0.00984953,0.99675010,0.06250583,0.03606838,0.03579575
1761621602930,0.07933134,0.03561580,0.03115176,0.03240446,-0.16924405,0.01630959,0.99676876,0.06268243,0.03514600,0.03588464
1761621602942,-0.04297588,0.01184397,0.02264605,0.01208894,-0.15977578,0.01512724,0.99679385,0.06275376,0.03420332,0.03597389
1761621602953,0.15205567,0.02449390,0.00707718,0.01037316,-0.17582851,0.00642118,0.99682045,0.06280822,0.03328022,0.03600760
1761621602964,-0.05480429,-0.01805774,-0.01138663,0.00936665,-0.17061287,0.01804250,0.99684493,0.06286067,0.03232479,0.03610864
1761621602975,0.04202949,-0.01109561,-0.01755071,0.00655924,-0.18107997,0.00141899,0.99687443,0.06289707,0.03131980,0.03611651
1761621602986,0.01328293,-0.00565436,-0.00684796,0.00941640,-0.17257408,0.00089717,0.99690104,0.06295028,0.03034475,0.03612158
1761621602997,0.16017949,0.02420355,0.00673324,0.03067417,-0.17584953,-0.00157367,0.99691982,0.06312052,0.02936879,0.03611285
1761621603009,-0.07180882,0.03076819,0.05037578,0.03628351,-0.17685404,-0.00339647,0.99693617,0.06332189,0.02838725,0.03609400
1761621603020,0.00677217,0.03610485,0.04478831,0.03587061,-0.17148041,0.00078767,0.99695011,0.06352277,0.02742696,0.03609841
1761621603031,0.03027953,0.01832167,0.02037467,0.02521765,-0.17582253,-0.00801162,0.99696899,0.06366146,0.02645994,0.03605434
1761621603042,-0.13304508,-0.02835230,-0.01284513,0.01008591,-0.16147141,-0.00815922,0.99699081,0.06371845,0.02554762,0.03600824
1761621603053,0.24706224,0.01770722,-0.01115748,0.01681973,-0.16777013,-0.00305646,0.99700872,0.06381096,0.02462489,0.03599143
1761621603064,-0.11314415,-0.02274428,-0.00854739,0.03461954,-0.17518887,-0.00576671,0.99702100,0.06400136,0.02366135,0.03595972
1761621603075,-0.06740577,0.00203905,0.01392691,0.02294067,-0.14345396,-0.00055716,0.99703178,0.06413213,0.02284366,0.03595654
1761621603087,-0.03239827,-0.00349556,0.00247305,0.02180163,-0.15168071,0.00872827,0.99704133,0.06425531,0.02198666,0.03600586
1761621603098,-0.02857028,0.01551681,0.02503959,0.03490345,-0.15442451,0.01125831,0.99704507,0.06444727,0.02113733,0.03606778
1761621603109,-0.06929583,-0.02123919,-0.01483109,0.00708148,-0.15118683,0.01262584,0.99705775,0.06448764,0.02027556,0.03613974
1761621603120,0.00888598,0.00497063,0.00671526,0.02703990,-0.15699290,0.01323148,0.99706267,0.06463636,0.01941210,0.03621252
1761621603131,-0.04556949,-0.01773142,-0.01380878,0.01180902,-0.15397022,0.01203765,0.99707243,0.06470308,0.01854217,0.03628053
1761621603142,0.00896971,-0.01165296,-0.01324807,0.01041778,-0.16369788,0.02125049,0.99708086,0.06476090,0.01763365,0.03639847
1761621603154,0.00451262,-0.04224626,-0.04998272,-0.00511875,-0.16889058,0.01224781,0.99709635,0.06473249,0.01669631,0.03646644
1761621603165,0.01449700,-0.04498057,-0.05435665,-0.01730033,-0.18166621,0.01743625,0.99711558,0.06463561,0.01567897,0.03656409
1761621603176,0.08685894,-0.03741664,-0.05405368,-0.00572538,-0.19106070,0.01852525,0.99712960,0.06460469,0.01464725,0.03666412
1761621603187,0.00837313,-0.04147915,-0.04878246,-0.03188163,-0.19824396,0.01830726,0.99715306,0.06442615,0.01353708,0.03676664
1761621603198,0.06113289,-0.03919365,-0.05207136,-0.01887680,-0.21131982,0.01093626,0.99717299,0.06432044,0.01235369,0.03682789
1761621603209,0.07787963,-0.00922976,-0.01772568,-0.01554554,-0.22869928,0.02628310,0.99718807,0.06423416,0.01108441,0.03697376
1761621603220,0.02781840,0.00268126,0.00274105,-0.01787584,-0.22360179,0.03197700,0.99720110,0.06413317,0.00982106,0.03715443
1761621603231,0.19243087,-0.00587207,-0.02544201,-0.01215569,-0.22923954,0.02886670,0.99721109,0.06406631,0.00856024,0.03731320
1761621603243,-0.13491704,-0.00103585,0.01717099,-0.01570042,-0.22594415,0.03941777,0.99721851,0.06397839,0.00729495,0.03753394
1761621603254,0.02359479,-0.00210874,-0.00219334,-0.02632928,-0.23164537,0.02701022,0.99723069,0.06383358,0.00602090,0.03768249
1761621603265,-0.04168260,-0.02367319,-0.02082449,-0.03060340,-0.21226707,0.04243231,0.99723911,0.06366220,0.00483221,0.03792011
1761621603276,-0.03073046,-0.02546905,-0.02479571,-0.03279184,-0.20133483,0.03890821,0.99724726,0.06348020,0.00371480,0.03813605
1761621603287,-0.03981630,0.01386739,0.02364997,0.00674140,-0.20016519,0.01808958,0.99724453,0.06351795,0.00259388,0.03823735
1761621603299,-0.05780148,0.03237534,0.04704452,-0.00824469,-0.18176826,0.01845099,0.99724564,0.06347055,0.00154871,0.03834345
1761621603309,0.03206820,0.01270720,0.01462211,-0.01400357,-0.17303562,0.02230239,0.99724683,0.06339493,0.00061432,0.03846388
1761621603321,-0.10101839,0.03775070,0.05669472,0.01946308,-0.15764897,0.02530722,0.99723457,0.06350392,-0.00026852,0.03860560
1761621603332,-0.05986331,0.04227851,0.05846752,0.00491593,-0.13985804,0.00651320,0.99723089,0.06353145,-0.00105172,0.03864207
1761621603343,-0.06513088,0.00515756,0.01359851,-0.01366166,-0.13641242,-0.01189660,0.99723745,0.06345221,-0.00184292,0.03857307
1761621603354,0.15484198,-0.05269384,-0.07478957,-0.05243488,-0.13374957,-0.01118427,0.99725634,0.06316644,-0.00257185,0.03851212
1761621603365,-0.19540450,-0.05774419,-0.05084609,-0.03850990,-0.13587130,-0.00479459,0.99726843,0.06295656,-0.00331235,0.03848599
1761621603376,0.01194040,-0.05789677,-0.06854425,-0.04537518,-0.11333320,0.00795205,0.99728052,0.06270019,-0.00395268,0.03853092
1761621603388,0.03909744,-0.07563733,-0.09227370,-0.05676021,-0.10531227,0.00427892,0.99729687,0.06238518,-0.00453717,0.03855467
1761621603399,-0.22779164,-0.01166401,0.00588500,-0.05802226,-0.10970942,0.00559805,0.99731308,0.06205735,-0.00515702,0.03858630
1761621603410,0.13873839,-0.09037405,-0.11693973,-0.05568851,-0.12027680,0.00074877,0.99732830,0.06175106,-0.00581855,0.03859041
1761621603421,-0.07039567,-0.00420250,0.00160095,-0.05925409,-0.12759184,0.00402110,0.99734322,0.06142517,-0.00652030,0.03861253
1761621603432,0.01280355,-0.02698307,-0.03125367,-0.07025814,-0.11474173,-0.00536590,0.99736395,0.06103523,-0.00715712,0.03858275
1761621603443,0.00756250,-0.00433651,-0.00426147,-0.04999391,-0.13637741,0.00607613,0.99737395,0.06075527,-0.00792083,0.03861678
1761621603454,0.00227196,0.02518217,0.03191432,-0.04392780,-0.12375108,0.00991954,0.99738107,0.06050707,-0.00862002,0.03867282
1761621603466,0.01342079,0.03361673,0.04042194,-0.03393353,-0.13441099,0.01098919,0.99738339,0.06031874,-0.00936601,0.03873381
1761621603477,-0.00168722,0.03878538,0.04787467,-0.03761630,-0.12741566,0.00340629,0.99738841,0.06010809,-0.01007953,0.03875289
1761621603488,0.00653351,0.03152420,0.03826931,-0.01296285,-0.14102883,0.00928917,0.99738246,0.06003550,-0.01086930,0.03880491
1761621603499,0.01056028,0.06106051,0.07320227,-0.00793247,-0.12344070,0.01800762,0.99737352,0.05999148,-0.01155439,0.03890485
1761621603511,-0.04147094,0.03114470,0.04063763,-0.03475105,-0.12903361,0.01127654,0.99737411,0.05979339,-0.01228988,0.03896912
1761621603521,0.00633156,-0.00894553,-0.00945677,-0.02205377,-0.12383136,0.01000542,0.99737060,0.05967210,-0.01297095,0.03902415
1761621603533,-0.02609594,0.02279834,0.02979561,0.00047853,-0.11865067,0.01805275,0.99735773,0.05967475,-0.01362947,0.03912435
1761621603544,-0.03514940,0.05680407,0.07021908,0.01513109,-0.10825156,0.00011426,0.99734417,0.05975949,-0.01423567,0.03912499
1761621603555,-0.00420119,0.04933507,0.05983232,-0.00339470,-0.10883953,-0.01578431,0.99733984,0.05974031,-0.01485062,0.03903581
1761621603566,0.03039294,0.01109247,0.01196606,-0.01184142,-0.10872420,-0.00626960,0.99733601,0.05967518,-0.01544860,0.03900132
1761621603577,0.05434938,-0.01202097,-0.01615211,0.00167444,-0.09838519,-0.00333951,0.99732757,0.05968447,-0.01599464,0.03898279
1761621603588,-0.07463145,0.01568528,0.02389023,0.00351262,-0.08845018,-0.00250546,0.99731911,0.05970362,-0.01647669,0.03896913
1761621603599,-0.08700652,0.03409499,0.04597620,0.02161272,-0.08028818,0.00579240,0.99730277,0.05982681,-0.01693434,0.03900215
1761621603610,-0.05456359,0.04038439,0.05133333,0.03052690,-0.05873762,0.00128004,0.99728687,0.05999471,-0.01725739,0.03900919
1761621603622,-0.09722745,0.03322386,0.04498884,0.01401165,-0.04974324,0.00382967,0.99727645,0.06007317,-0.01753595,0.03903064
1761621603633,-0.05263333,0.00378673,0.00784814,0.01652532,-0.04255769,-0.01539836,0.99727014,0.06016406,-0.01777002,0.03894595
1761621603644,-0.10038649,-0.00396876,0.00055770,0.01158145,-0.02549288,0.00152116,0.99726327,0.06022950,-0.01791406,0.03895454
1761621603655,-0.06939152,-0.00768018,-0.00520035,0.02183812,-0.00900400,-0.00607518,0.99725624,0.06035288,-0.01796493,0.03892022
1761621603666,-0.08844271,0.02222414,0.03065802,0.04299131,-0.00093458,-0.00277164,0.99724228,0.06059148,-0.01797012,0.03890483
1761621603678,-0.09804549,0.04797585,0.06192566,0.04205168,0.01908437,0.00022791,0.99722992,0.06082487,-0.01786420,0.03890610
1761621603689,-0.07578828,0.02153277,0.02937439,0.03089749,0.02354910,0.00231646,0.99722120,0.06099790,-0.01773232,0.03891907
1761621603700,-0.09846936,-0.00892618,-0.00550121,0.01086447,0.02351689,-0.00102309,0.99722006,0.06105765,-0.01760298,0.03891344
1761621603711,-0.05449392,-0.05240421,-0.05922365,-0.01445705,0.02239496,0.00629807,0.99722574,0.06097814,-0.01747981,0.03894808
1761621603722,-0.03044212,-0.08279304,-0.09692892,-0.01809524,0.02703486,0.00402221,0.99723369,0.06087681,-0.01732841,0.03897061
1761621603733,-0.00882024,-0.08427860,-0.09942076,-0.02605741,0.03102112,0.00412289,0.99724469,0.06073088,-0.01715469,0.03899369
1761621603744,-0.03733370,-0.06008292,-0.06944436,-0.02721161,0.02375581,0.00459684,0.99725514,0.06057986,-0.01702285,0.03901921
1761621603755,-0.04736358,-0.04480492,-0.05049672,-0.01195394,0.03531713,0.01869417,0.99725842,0.06051351,-0.01682684,0.03912296
1761621603767,-0.03769291,0.02233636,0.02851287,0.01334909,0.05621825,0.01538514,0.99725574,0.06058894,-0.01650921,0.03920989
1761621603778,-0.09538758,0.07304079,0.09171383,0.03077252,0.08405312,0.00633851,0.99725154,0.06076126,-0.01603851,0.03924538
1761621603789,-0.08548898,0.08592358,0.10667870,0.04297054,0.10059648,-0.00216902,0.99724633,0.06099760,-0.01548523,0.03923345
1761621603800,-0.08464875,0.04391606,0.05686054,0.01509712,0.10767530,-0.00979497,0.99725260,0.06108365,-0.01487148,0.03917762
1761621603811,-0.03992229,0.00484380,0.00902214,0.01131351,0.11678239,-0.03617751,0.99726619,0.06114701,-0.01421750,0.03897503
1761621603822,-0.01212844,-0.01346037,-0.01521824,0.00022949,0.11872828,-0.03797664,0.99728320,0.06114826,-0.01357043,0.03876805
1761621603833,0.03876174,-0.02331338,-0.02903817,0.01025852,0.11819800,-0.04164965,0.99729750,0.06120571,-0.01290852,0.03853482
1761621603845,0.02808392,-0.02174241,-0.02677345,0.00540614,0.12402440,-0.04496742,0.99731452,0.06123679,-0.01219538,0.03827625
1761621603856,-0.02240379,-0.00260693,-0.00144257,0.01457221,0.13231691,-0.04839188,0.99732816,0.06131548,-0.01148087,0.03801494
1761621603867,0.03135316,0.02158527,0.02457604,0.02387362,0.10813663,-0.04993110,0.99733726,0.06144798,-0.01088071,0.03773782
1761621603878,0.02915065,0.02861803,0.03273125,0.03333048,0.11260057,-0.03583886,0.99734004,0.06163797,-0.01023889,0.03753354
1761621603889,0.00393397,0.03901029,0.04644504,0.03258129,0.09942835,-0.04776311,0.99734416,0.06181228,-0.00970694,0.03727801
1761621603900,0.06933576,0.01808324,0.01776222,0.02602421,0.09515118,-0.04270968,0.99734911,0.06195931,-0.00916934,0.03703670
1761621603912,0.02580541,0.00713220,0.00742073,0.02215379,0.09047149,-0.04459168,0.99735517,0.06208337,-0.00866270,0.03678698
