UnixTime(ms),Ax,Ay,Az,Gx,Gy,Gz,QuatW,QuatX,QuatY,QuatZ
1755639082533,0.00000000,0.00000000,0.00000000,0.00000000,0.00000000,0.00000000,0.98927303,0.08346094,-0.10929504,0.04927200
1755639082565,0.25069317,0.06472335,-0.50536932,0.04633173,0.05933703,0.02198992,0.98929699,0.08419993,-0.10834862,0.04962273
1755639082587,0.27350144,0.39088223,0.18678624,0.10339939,0.03393695,-0.03621246,0.98925990,0.08534766,-0.10797192,0.04922078
1755639082631,-0.18897254,-0.16356435,0.19975517,0.03027690,0.00700471,0.00799821,0.98920945,0.08602435,-0.10781536,0.04939954
1755639082642,2.10603900,0.91079332,-1.14709539,0.18508979,-0.04191422,0.02276550,0.98909668,0.08697756,-0.10803122,0.04951678
1755639082674,-0.64354842,-0.25695461,0.39873717,0.05675040,-0.00551933,0.01619818,0.98899376,0.08788557,-0.10811953,0.04977595
1755639082698,0.00552967,0.21565172,0.08491273,0.10579980,0.00362677,0.01973258,0.98887394,0.08914459,-0.10807637,0.05001077
1755639082719,0.04253009,0.08020876,-0.10666875,0.12776137,-0.00438177,0.02063591,0.98873211,0.09052441,-0.10812370,0.05023363
1755639082730,0.31514395,0.23443743,-0.14853418,0.11095613,-0.00208630,0.01383776,0.98867315,0.09111248,-0.10813475,0.05030697
1755639082753,-0.19521075,-0.28881016,0.06843420,0.09207157,0.00115257,0.00991590,0.98857199,0.09215749,-0.10812167,0.05041952
1755639082763,0.29821472,0.65907982,-0.05827448,0.19298601,-0.00807619,-0.00873314,0.98847098,0.09320926,-0.10816569,0.05037192
1755639082776,0.08409660,-0.01354181,0.29872825,0.19760173,-0.02169289,-0.00213777,0.98833535,0.09448379,-0.10830561,0.05035814
1755639082786,0.64278103,0.66929786,0.18951331,0.30401557,-0.04666641,0.02596184,0.98816382,0.09594307,-0.10852960,0.05048275
1755639082797,-0.26961475,-0.19159849,0.09553162,0.21442413,-0.04868968,0.03045820,0.98800218,0.09718673,-0.10881200,0.05065941
1755639082819,-0.31645910,-0.20777951,-0.10659940,0.11224409,-0.02829631,0.01807431,0.98783997,0.09838774,-0.10911477,0.05085281
1755639082830,0.95359758,1.88559960,-0.05238356,0.41983989,-0.13850592,0.07813446,0.98749435,0.10073884,-0.10989041,0.05129036
1755639082840,-0.21098432,-0.74265693,0.15414451,0.34907559,-0.09176834,0.04995978,0.98724072,0.10255404,-0.11036760,0.05155015
1755639082852,-0.39799990,0.40277555,0.09839057,0.32093954,-0.09032394,0.04623292,0.98697515,0.10439944,-0.11088697,0.05181599
1755639082863,0.17739335,0.33846715,-0.01556978,0.40259902,-0.07386239,0.04145122,0.98666987,0.10669425,-0.11130798,0.05205226
1755639082875,0.03736987,0.12421577,0.12028052,0.43309916,-0.07397108,0.04253999,0.98632758,0.10924954,-0.11174441,0.05230325
1755639082888,-0.00065933,-0.55256062,0.04384551,0.39987794,-0.06824973,0.04312983,0.98596816,0.11186874,-0.11219145,0.05258575
1755639082908,-0.27140158,-0.16108336,0.04936683,0.32852806,-0.07836780,0.02570463,0.98548171,0.11518687,-0.11298296,0.05284536
1755639082910,66.98801442,200.45531640,62.66028443,5.15809212,-1.02659583,0.49859945,0.98479741,0.11982916,-0.11390690,0.05329410
1755639082930,-6.07480224,-18.13647729,-5.44926403,0.26058177,-0.04968808,0.01767221,0.98440767,0.12244800,-0.11440626,0.05347171
1755639082941,0.55874097,1.04629633,0.58317470,0.46195023,-0.09120658,0.04078993,0.98401407,0.12501183,-0.11491246,0.05369809
1755639082952,-0.16753325,0.75654959,0.39587001,0.48551854,-0.09283812,0.03652094,0.98361175,0.12760935,-0.11540914,0.05389348
1755639082964,-0.00338533,-0.06244976,-0.15555073,0.48037889,-0.10768899,0.04510226,0.98317021,0.13032349,-0.11601759,0.05414831
1755639082975,0.05439583,-0.32551297,0.07947443,0.50439423,-0.08945002,0.03417577,0.98272184,0.13314810,-0.11651851,0.05433969
1755639083000,-0.30238391,-0.80348483,-0.35278123,0.20995428,-0.05371158,0.02329361,0.98225933,0.13581452,-0.11720064,0.05463552
1755639083031,0.11262965,0.38794550,0.25479599,0.36479966,-0.06288463,0.04893163,0.98130465,0.14145067,-0.11817221,0.05539152
1755639083032,123.15222676,664.53608584,428.75938488,10.42187749,-1.83423412,1.07983807,0.98002669,0.14874599,-0.11945617,0.05614740
1755639083064,-5.60780796,-29.74165591,-19.14291729,0.34646552,-0.03114538,0.03626673,0.97909607,0.15416817,-0.11994360,0.05671498
1755639083075,-0.15304437,0.78707401,1.11770642,0.61829669,0.02118027,0.05919404,0.97850970,0.15781612,-0.11981864,0.05706422
1755639083097,-0.23072611,-0.44829778,-0.23600473,0.35612604,0.04423056,0.03374606,0.97791038,0.16171570,-0.11933431,0.05743374
1755639083131,-0.06448488,-0.43235109,-0.48220376,0.15032062,0.03896754,0.00587656,0.97756852,0.16420351,-0.11868940,0.05753100
1755639083132,-145.08193870,346.72607390,267.82193377,7.36544958,3.39127304,0.78914540,0.97680260,0.17046414,-0.11580682,0.05820177
1755639083164,7.50576280,-18.49905069,-14.30598272,0.27576927,0.17637650,0.03280447,0.97632778,0.17482130,-0.11302007,0.05872008
1755639083176,-1.26449971,0.73342384,1.30843633,0.37120132,0.36672576,-0.00960698,0.97617584,0.17714130,-0.11072803,0.05866004
1755639083197,0.39543935,-0.66250299,-0.77323793,0.27107499,0.24445443,0.01366593,0.97594141,0.17990627,-0.10823460,0.05879943
1755639083207,-1.69654362,1.20496004,0.71108569,0.34980266,0.34762252,0.03985702,0.97579068,0.18172524,-0.10642696,0.05900669
1755639083231,1.06996573,-0.75021798,-0.51877151,0.12648342,0.16889944,0.02468906,0.97570890,0.18322407,-0.10442550,0.05929925
1755639083241,-4.18538750,1.73814237,2.79016923,0.36266994,0.58675107,0.10018554,0.97564777,0.18498302,-0.10157976,0.05978515
1755639083252,2.21718651,-1.23072035,-1.91071025,0.19034235,0.33899005,0.03560224,0.97562865,0.18604894,-0.09968141,0.05998452
1755639083265,0.49531193,0.00467960,-0.23723618,0.16377979,0.26183334,0.02538509,0.97558697,0.18712170,-0.09796641,0.06015080
1755639083298,0.45813589,-0.21490830,-0.22794988,0.06952893,0.09863660,0.00902608,0.97551913,0.18826892,-0.09633890,0.06029973
1755639083309,-4.76394656,2.74169757,2.66886225,0.51258375,0.68652668,0.05232618,0.97530905,0.19121628,-0.09239137,0.06060060
1755639083331,1.92827265,-1.38745901,-1.26287941,0.13087995,0.23932051,0.02973500,0.97525231,0.19262978,-0.08980671,0.06092174
1755639083342,-0.30061392,0.07421341,0.17037901,0.10266144,0.24024414,0.03299059,0.97524996,0.19320982,-0.08844933,0.06110814
1755639083364,0.48071787,-0.10524199,-0.30676481,0.05991815,0.13547442,0.01967537,0.97523964,0.19386592,-0.08696589,0.06132358
1755639083397,0.25731178,-0.19985204,-0.12095256,0.02486769,0.04945900,0.00206106,0.97522842,0.19427127,-0.08615971,0.06135718
1755639083399,-119.71616656,-18.53742640,1.93958455,0.09018374,1.20128071,0.08339433,0.97530652,0.19435694,-0.08501849,0.06143640
1755639083421,10.15101105,1.52720500,-0.19690679,-0.01374397,0.01426232,0.02418190,0.97533412,0.19420232,-0.08485804,0.06170845
1755639083442,0.19416576,-0.04061326,-0.11454349,-0.01243497,-0.02812256,0.00779122,0.97532924,0.19407300,-0.08515051,0.06178948
1755639083454,0.13338438,-0.13926808,-0.21373846,-0.02109437,-0.04654132,0.02710483,0.97531952,0.19394432,-0.08543442,0.06195482
1755639083486,0.00260026,0.06927766,0.09230556,-0.00583564,-0.01717307,0.01125983,0.97530256,0.19385124,-0.08570833,0.06213441
1755639083488,18.15933045,-38.51427577,-105.29959277,-0.76671139,-0.84389452,0.14787856,0.97535718,0.19323788,-0.08638344,0.06225271
1755639083510,-1.15274927,2.46871757,7.12081638,-0.09175841,-0.05021602,-0.01301054,0.97551955,0.19221018,-0.08694586,0.06210700
1755639083530,-0.05917101,0.08221703,0.18250046,-0.07457566,-0.03613872,-0.00775072,0.97564004,0.19145697,-0.08731086,0.06202871
1755639083542,0.10806901,-0.25987949,-0.53206623,-0.09367839,-0.04181052,-0.01859395,0.97573635,0.19088553,-0.08756591,0.06191529
1755639083564,-0.07305876,0.22161396,0.27012185,-0.04906611,-0.01793594,-0.00256714,0.97582544,0.19034825,-0.08776230,0.06188718
1755639083574,0.60840738,-1.11570885,-3.19452857,-0.18509549,-0.08294915,-0.03768021,0.97597390,0.18945980,-0.08816046,0.06170632
1755639083585,-0.47683716,0.75163072,1.53907305,-0.08115506,-0.03740090,-0.01708561,0.97605113,0.18899316,-0.08837552,0.06160807
1755639083597,-0.04182782,-0.05639258,0.25136574,-0.12226541,-0.04248135,-0.01304508,0.97616855,0.18829624,-0.08861766,0.06153372
1755639083620,-0.02637322,0.08559325,0.42161038,-0.05890230,-0.01610832,-0.00256189,0.97628249,0.18762770,-0.08880049,0.06150464
1755639083630,0.49868150,-1.73870730,-2.54325750,-0.23058051,-0.07192970,-0.01123222,0.97647794,0.18645174,-0.08916733,0.06144735
1755639083652,-0.20784413,0.72862801,1.02896871,-0.06387931,-0.02141303,-0.00189154,0.97659574,0.18572352,-0.08941144,0.06142579
1755639083664,0.38427283,-1.18120637,-1.83346683,-0.19533844,-0.05284772,-0.00842058,0.97678874,0.18457102,-0.08972324,0.06137611
1755639083675,-0.32369788,0.52981055,0.80603162,-0.12890904,-0.04895474,-0.01700253,0.97689731,0.18390069,-0.08997781,0.06128770
1755639083685,-0.16768493,0.46980412,0.39920249,-0.13389307,-0.04974252,-0.02477732,0.97701123,0.18321114,-0.09023398,0.06116009
1755639083696,-0.27313973,0.23189521,0.24331589,-0.14715619,-0.06563132,-0.03234827,0.97714038,0.18240178,-0.09059495,0.06098218
1755639083707,0.09554771,0.00180279,0.18855513,-0.12555478,-0.06027385,-0.00765233,0.97724542,0.18167984,-0.09094153,0.06093818
1755639083718,0.41748253,-0.30995209,0.09447143,-0.11892303,-0.02619204,0.02166555,0.97734229,0.18104955,-0.09108034,0.06105300
1755639083729,-0.23333887,0.07081676,-0.33680974,-0.09624645,-0.04055744,-0.00005810,0.97742012,0.18051538,-0.09130544,0.06105268
1755639083740,0.07482772,0.21551496,0.19530548,-0.10513167,-0.03201550,0.01058069,0.97750820,0.17992665,-0.09148472,0.06111193
1755639083752,0.12689256,-0.09971768,0.03944371,-0.08266476,-0.02697940,0.02207377,0.97757479,0.17943892,-0.09164390,0.06124217
1755639083764,0.06279199,-0.28639487,-0.42353272,-0.09421367,-0.03691749,0.00069444,0.97765390,0.17889720,-0.09185618,0.06124616
1755639083765,1.27692213,-50.89808034,-66.18976091,-0.86540522,-0.41559508,-0.41048069,0.97777676,0.17816160,-0.09220943,0.06089725
1755639083776,-0.92068356,8.13811507,10.65462157,-0.14500347,-0.06659018,-0.05872584,0.97790365,0.17738583,-0.09256569,0.06058307
1755639083787,0.28831638,-0.29646900,-0.02667818,-0.10938222,-0.06164384,-0.00758843,0.97798590,0.17676235,-0.09291706,0.06053982
1755639083807,0.01976661,0.34565964,0.49332449,-0.07081800,-0.03586240,0.00082093,0.97807760,0.17606480,-0.09327031,0.06054790
1755639083818,0.14416059,-0.50227067,-0.65938372,-0.13637575,-0.05586441,0.00122135,0.97818446,0.17530109,-0.09358315,0.06055474
1755639083821,7.34729275,-15.41287689,-19.16619347,-0.63660430,-0.16292492,-0.02120398,0.97831384,0.17447351,-0.09379495,0.06052718
1755639083863,-0.46849309,1.18246780,1.50342301,-0.04329471,-0.01660892,0.00020419,0.97844087,0.17357081,-0.09414125,0.06053143
1755639083865,47.88754369,-139.46790061,-141.06018080,-2.99155033,-1.43537326,-0.51155064,0.97885925,0.17057926,-0.09557662,0.06001988
1755639083898,-2.81558187,8.31503829,8.28698370,-0.12972818,-0.05983977,-0.01039584,0.97914519,0.16842577,-0.09656996,0.05984731
1755639083920,0.08524167,-0.02164045,0.00443548,-0.09051783,-0.05830745,-0.00769246,0.97925867,0.16742103,-0.09721717,0.05976193
1755639083930,1.37629962,-2.45205483,-1.87471447,-0.32524330,-0.18283304,-0.03703220,0.97945737,0.16577855,-0.09814048,0.05957491
1755639083941,-0.67907151,1.23419436,1.24804738,-0.29066182,-0.13579870,-0.04442786,0.97966257,0.16420897,-0.09887379,0.05933500
1755639083954,0.18571700,-0.27344450,-0.31236498,-0.28203867,-0.13416728,-0.03567937,0.97988668,0.16243213,-0.09971905,0.05911022
1755639083977,-0.38288598,0.63825767,0.55203528,-0.10375123,-0.05329312,-0.02394762,0.98004165,0.16120787,-0.10034790,0.05882764
1755639084008,-0.07898280,0.11099507,0.03697103,-0.07105343,-0.04112381,-0.01877305,0.98017455,0.16010299,-0.10098738,0.05853572
1755639084019,2.81237906,-4.67676277,-2.98417245,-0.62167249,-0.31892502,-0.08191517,0.98055735,0.15680812,-0.10267768,0.05810157
1755639084040,-1.07964702,1.51171653,1.29420712,-0.24004227,-0.10795693,-0.02078985,0.98085620,0.15423967,-0.10383282,0.05787912
1755639084051,0.26079276,-0.28835997,-0.11218398,-0.31192891,-0.12443718,-0.01597464,0.98105695,0.15252406,-0.10451723,0.05779126
1755639084065,-0.16804630,0.53025757,-0.00055430,-0.25992412,-0.12965533,-0.03471155,0.98125108,0.15074358,-0.10540536,0.05755348
1755639084097,-0.24319138,0.47545523,0.20862562,-0.03691807,-0.02824294,-0.01168246,0.98130444,0.15014735,-0.10586149,0.05736481
1755639084120,0.25134500,-0.44316010,-0.24125843,-0.07081135,-0.05824058,-0.01153711,0.98136370,0.14933656,-0.10652834,0.05723271
1755639084130,0.31296947,-0.59373907,-0.00613015,-0.25766827,-0.07704509,-0.05207723,0.98152713,0.14808687,-0.10690201,0.05698014
1755639084141,-0.65266466,0.17292284,0.62202491,-0.21776412,-0.03596685,-0.01899837,0.98168860,0.14691095,-0.10709623,0.05687755
1755639084156,-0.06428398,0.15346927,0.04364621,-0.16942255,-0.02540610,-0.01983198,0.98187160,0.14559792,-0.10729313,0.05672385
1755639084169,-0.15621964,0.30456033,0.09896147,-0.11876912,-0.01789938,-0.00531253,0.98197663,0.14481404,-0.10741127,0.05668879
1755639084180,-0.20065935,0.20718880,0.09525307,-0.12768882,-0.01448837,-0.01380300,0.98207021,0.14415006,-0.10748661,0.05661701
1755639084191,-0.00908327,0.09287387,0.14169212,-0.14014009,-0.00638090,-0.02360052,0.98219195,0.14334426,-0.10752330,0.05648131
1755639084202,0.12025969,-0.33800756,-0.15006585,-0.14043217,-0.03426107,-0.01520069,0.98228327,0.14261401,-0.10770145,0.05640226
1755639084213,0.15967955,-0.30540436,0.06015428,-0.14644992,-0.02000270,0.00990806,0.98238560,0.14180121,-0.10781247,0.05645725
1755639084224,-0.02597213,0.01967254,0.01500462,-0.14492480,-0.01461224,-0.00639698,0.98249646,0.14098239,-0.10789503,0.05642111
1755639084234,-0.11690176,-0.34145987,-0.07563867,-0.17986008,-0.01694415,-0.01858088,0.98262235,0.14007409,-0.10798059,0.05632728
1755639084246,0.01921250,0.16317509,0.06304716,-0.18941109,-0.00316211,0.00222796,0.98278083,0.13893763,-0.10799957,0.05634064
1755639084258,0.03440213,-0.21811402,-0.14807509,-0.17960754,0.00276462,0.01716401,0.98292727,0.13786896,-0.10798312,0.05644277
1755639084270,-0.00741492,-0.08711415,-0.04087140,-0.21734052,0.00072092,-0.01311128,0.98310808,0.13660839,-0.10797894,0.05636673
1755639084281,0.25499713,-0.13078540,-0.21541924,-0.20630773,0.01711721,-0.03984901,0.98328795,0.13547370,-0.10788479,0.05614756
1755639084291,0.09487792,0.08391201,-0.00713015,-0.20155002,0.00482349,-0.02455437,0.98344034,0.13443571,-0.10785995,0.05602110
1755639084303,-0.15949986,0.47962634,0.05291432,-0.12170798,0.00695335,0.00408756,0.98353965,0.13372981,-0.10781962,0.05604481
1755639084313,-0.34677053,-0.00544188,0.03372079,-0.08393040,-0.00440777,0.00266599,0.98359291,0.13331435,-0.10784144,0.05605800
1755639084323,0.09593755,0.21831691,0.16022358,-0.11581237,0.04071325,-0.01360641,0.98370260,0.13270634,-0.10762770,0.05598657
1755639084333,-0.12264382,-0.00778333,-0.08554837,-0.13623275,0.01735892,0.04209986,0.98379530,0.13199793,-0.10753743,0.05620549
1755639084346,-0.01634082,0.16366170,0.06148682,-0.12158739,0.04004460,0.00401127,0.98392183,0.13124408,-0.10728915,0.05623036
1755639084381,0.00170076,0.16913430,0.03208482,-0.03764601,0.01009914,-0.00627723,0.98403566,0.13058151,-0.10711141,0.05611988
1755639084391,-0.39842755,-1.14785294,-0.48307830,-0.27631977,0.09095487,-0.05225825,0.98428471,0.12918610,-0.10665209,0.05585598
1755639084401,0.20639778,1.02794481,0.51434788,-0.10886669,0.03889802,0.01400920,0.98437572,0.12862544,-0.10645176,0.05592812
1755639084413,-0.02732683,-0.28750641,0.08217339,-0.08477512,0.03628139,-0.00344449,0.98446674,0.12811679,-0.10623407,0.05590746
1755639084424,0.04905732,-0.17481781,0.21339935,-0.10763192,0.03962490,0.01710798,0.98456002,0.12753557,-0.10602010,0.05599984
1755639084436,0.07096471,0.02572391,-0.07819435,-0.06187579,0.03225774,0.00181501,0.98462711,0.12717051,-0.10582978,0.05601055
1755639084447,0.03005697,0.10147568,0.08716522,-0.08753652,0.01261906,0.00517185,0.98469501,0.12668905,-0.10576037,0.05603899
1755639084458,-0.00492559,0.05863275,-0.05381662,-0.05487739,0.02064298,-0.00166583,0.98474603,0.12638997,-0.10564787,0.05602992
1755639084467,-0.01391215,-0.27443074,0.09723651,-0.08433641,0.04032376,-0.00412418,0.98481824,0.12599359,-0.10545835,0.05601053
1755639084479,-0.17904942,0.14576815,-0.19990607,-0.07552260,0.02600346,-0.01799951,0.98489424,0.12556689,-0.10531143,0.05590883
1755639084480,-13.96159683,-29.17574010,0.56373862,-0.61924829,0.08180164,-0.03459089,0.98496584,0.12507149,-0.10524599,0.05588116
1755639084501,1.16015805,2.38327735,-0.05092600,-0.03472928,0.01630168,0.00098279,0.98503037,0.12470336,-0.10507319,0.05589158
1755639084503,-1.92711966,-26.28755047,14.10282272,-0.54859243,0.04837021,-0.14746705,0.98510491,0.12420963,-0.10502965,0.05575886
1755639084514,0.48192248,4.07321636,-1.91924253,-0.06832574,0.01009129,-0.01050523,0.98516243,0.12382700,-0.10497314,0.05570003
1755639084524,0.02587007,0.00304897,0.10828473,-0.05440721,0.00725755,-0.00420772,0.98520008,0.12356585,-0.10493831,0.05567983
1755639084535,0.02453715,0.13182987,-0.11844336,-0.04690983,-0.00261318,0.01449146,0.98522732,0.12329846,-0.10495320,0.05576243
1755639084546,0.07949807,-0.03442876,0.20322059,-0.04479166,0.00784128,-0.01586795,0.98526655,0.12305883,-0.10491125,0.05567754
1755639084557,0.01899810,-0.07324084,0.02697016,-0.06586696,-0.01973371,-0.03737206,0.98531012,0.12270973,-0.10501584,0.05547947
1755639084570,-0.02530323,0.08740263,-0.11186033,-0.05694733,-0.01407537,-0.03086404,0.98535912,0.12232818,-0.10511015,0.05527268
1755639084580,0.26464753,0.02051102,0.09494104,-0.07644247,-0.02610369,-0.00719134,0.98539565,0.12193451,-0.10524458,0.05523564
1755639084590,-0.00448731,0.11238940,0.12514872,-0.07325759,-0.02651542,-0.01382476,0.98543026,0.12157188,-0.10537583,0.05516721
1755639084600,0.07173276,0.04198409,-0.04612689,-0.04633981,-0.02646322,0.00655936,0.98544320,0.12133323,-0.10551212,0.05520099
1755639084612,-0.08085015,0.07821708,0.18425133,-0.01928054,-0.02546235,-0.00349985,0.98544230,0.12122430,-0.10565598,0.05518122
1755639084622,-0.00956870,0.08445337,0.05069499,-0.00440856,-0.03946338,0.00044673,0.98542278,0.12120115,-0.10586316,0.05518356
1755639084642,-0.09556621,0.03043349,-0.20108868,-0.00480758,-0.01347118,-0.00499569,0.98541706,0.12115356,-0.10599653,0.05513411
1755639084676,-0.04166000,-0.00220482,-0.05895825,-0.00689273,-0.01396184,-0.00227748,0.98540815,0.12103741,-0.10623178,0.05509573
1755639084687,1.03346695,-0.60670829,2.56176504,-0.10774261,-0.06224366,-0.05740485,0.98546043,0.12045560,-0.10656790,0.05478574
1755639084708,-0.44768428,0.29105974,-1.23188298,-0.02058625,-0.01864343,-0.01031393,0.98547170,0.12023842,-0.10676459,0.05467693
1755639084731,0.02122847,-0.02978116,0.15779229,-0.02024682,-0.02478743,-0.01315053,0.98547759,0.12000356,-0.10705212,0.05452439
1755639084764,-0.01551557,0.00605284,-0.01905905,-0.01420262,-0.02073988,-0.01174917,0.98547956,0.11977134,-0.10739122,0.05433229
1755639084777,0.81467755,-0.11641161,2.33003300,-0.09421914,-0.06013148,-0.03044049,0.98552169,0.11916363,-0.10777907,0.05413595
1755639084798,-0.37734054,0.08084908,-1.22817770,-0.03062707,-0.02075471,-0.01052730,0.98554303,0.11883745,-0.10800010,0.05402383
1755639084819,-0.10789022,-0.00772308,-0.18204275,-0.00073114,-0.01713720,-0.01714552,0.98553377,0.11882952,-0.10818604,0.05383780
1755639084842,-0.03309786,0.04126694,-0.02036086,-0.00302831,-0.02238808,-0.01553654,0.98552011,0.11879636,-0.10843119,0.05366768
1755639084853,0.30702141,-0.18375634,1.20552942,-0.01523519,-0.06623804,-0.04785083,0.98550406,0.11871104,-0.10880212,0.05339971
1755639084864,-0.16002031,0.01182632,-0.44801306,-0.04653455,-0.03763782,0.01531300,0.98550736,0.11845975,-0.10900537,0.05348240
1755639084874,-0.12008478,0.07824568,-0.08519103,0.00311411,-0.01763298,0.00297200,0.98549418,0.11847626,-0.10909882,0.05349815
1755639084886,-0.09830291,0.10826926,-0.30092937,-0.03423851,-0.03476689,0.01095392,0.98549225,0.11827939,-0.10929873,0.05356114
1755639084907,-0.02591288,0.03019680,-0.29892734,-0.01594453,-0.01169709,0.00864251,0.98549382,0.11810559,-0.10942623,0.05365534
1755639084909,20.62782726,-6.28549449,94.38536672,-0.26155421,-0.43703329,-0.23410083,0.98549064,0.11792250,-0.10973216,0.05349147
1755639084930,-1.32805577,0.35519634,-6.06035971,-0.02972548,-0.01855221,-0.02708516,0.98552236,0.11760296,-0.10993159,0.05320031
1755639084941,0.09164658,-0.16266122,0.68996128,-0.08042845,-0.04492141,-0.04565929,0.98556098,0.11716060,-0.11017866,0.05294918
1755639084965,-0.05320537,0.03851474,-0.32836959,-0.03568968,-0.01934613,0.00475158,0.98558239,0.11673946,-0.11040694,0.05300525
1755639084996,0.01240394,-0.01003668,0.08740042,-0.03256222,-0.01852490,-0.00237120,0.98561200,0.11623149,-0.11069593,0.05296826
1755639084998,52.85613812,-29.12950153,141.43207899,-0.55586198,-0.88144795,-0.23598447,0.98559502,0.11578680,-0.11140109,0.05277947
1755639085029,-2.61528392,1.45207829,-7.13744371,-0.04329627,-0.04265514,-0.02065811,0.98561616,0.11510272,-0.11207504,0.05245307
1755639085041,0.37113451,-0.11229195,0.66448675,-0.05146930,-0.07054014,-0.02686193,0.98561268,0.11480677,-0.11248065,0.05229862
1755639085074,-0.12939902,0.10144970,-0.31454334,-0.01093485,-0.03823410,-0.00897985,0.98556854,0.11462307,-0.11312298,0.05214775
1755639085076,35.35731309,-0.96891337,70.16047869,-0.28515597,-0.86528474,-0.25805828,0.98551292,0.11432365,-0.11403153,0.05187679
1755639085109,-2.22464890,0.07008122,-4.46769949,-0.01612809,-0.04871489,-0.01322560,0.98546266,0.11406157,-0.11482315,0.05166188
1755639085119,0.41911692,-0.22018798,1.07070129,-0.04287325,-0.11451514,-0.04598257,0.98543199,0.11384292,-0.11540717,0.05142737
1755639085141,-0.18455671,0.03136422,-0.35242985,-0.04683588,-0.07467862,-0.02578427,0.98540990,0.11333475,-0.11621744,0.05114761
1755639085179,-0.09291516,0.04287773,-0.20838276,-0.00127220,-0.02867759,-0.00491719,0.98535266,0.11331038,-0.11676661,0.05105344
1755639085191,1.41203248,0.97993491,4.47242402,0.08261561,-0.23276757,0.01094888,0.98512371,0.11381021,-0.11817486,0.05111968
1755639085218,-0.60111181,-0.36953944,-1.72375837,-0.00404688,-0.04810442,-0.00532506,0.98505613,0.11375598,-0.11881946,0.05104833
1755639085238,0.01568480,-0.15313572,0.16094780,-0.01827993,-0.04825783,-0.00139095,0.98501980,0.11357410,-0.11929962,0.05103449
1755639085252,-0.08768407,0.01800728,-0.11247887,-0.01751716,-0.02873170,0.00836210,0.98500623,0.11344885,-0.11950505,0.05109428
1755639085272,-0.02120416,0.08644116,-0.10465280,0.01404425,-0.01326941,0.00465091,0.98497239,0.11358578,-0.11963443,0.05113962
1755639085282,0.01723950,-0.00325533,-0.11774210,0.03529098,-0.00416539,0.00141369,0.98494913,0.11376223,-0.11965526,0.05114669
1755639085290,-0.04409134,0.09535532,0.32746648,-0.00834364,-0.00931518,-0.00278139,0.98494903,0.11372761,-0.11969391,0.05113515
1755639085302,-0.10603790,-0.12286677,-0.44861870,0.00889507,0.00797103,-0.01245833,0.98495250,0.11378009,-0.11964688,0.05106164
1755639085313,-0.02544949,0.04901443,0.25217548,-0.00744740,0.01382561,-0.02096450,0.98497280,0.11373838,-0.11956946,0.05094424
1755639085325,0.03615232,-0.11620733,-0.09896013,-0.00776815,0.00621591,-0.00982310,0.98498521,0.11369372,-0.11953372,0.05088776
1755639085335,-0.04369304,0.05375830,0.19602822,-0.02635473,0.00153442,-0.01515672,0.98500646,0.11355404,-0.11952559,0.05080743
1755639085347,0.10505458,-0.10345163,0.04946232,-0.01934877,0.01869476,-0.00851720,0.98503435,0.11344472,-0.11941996,0.05075931
1755639085358,-0.05545633,0.04275979,-0.16436527,-0.00135729,-0.00753503,0.00375921,0.98502878,0.11343678,-0.11946404,0.05078130
1755639085369,-0.02106200,0.15918704,0.08486545,0.02543547,-0.00176584,0.00022675,0.98501158,0.11357540,-0.11947367,0.05078254
1755639085380,-0.15781289,0.29878698,-0.10083394,0.04218744,-0.00172948,-0.01070472,0.98498667,0.11380743,-0.11948318,0.05072366
1755639085390,-0.06444000,0.17494048,0.12916221,0.03195288,-0.00900195,-0.00990886,0.98496615,0.11396080,-0.11952639,0.05067610
1755639085402,0.14394651,-0.15125325,-0.23242460,0.02716018,-0.00673453,0.01653936,0.98493702,0.11412512,-0.11956713,0.05077616
1755639085413,0.14317006,-0.10470796,0.08289605,0.04452534,0.00251091,0.03251679,0.98490007,0.11437669,-0.11955294,0.05095988
1755639085424,-0.09286884,0.11121107,-0.00774208,0.00452470,0.00126879,0.01168386,0.98489480,0.11440112,-0.11954609,0.05102297
1755639085434,0.04201848,0.00397659,-0.11401077,0.03597177,0.01266225,0.02885838,0.98487451,0.11457739,-0.11948405,0.05116438
1755639085445,0.04495732,-0.22249452,-0.14830287,0.03964297,0.02402160,0.00751181,0.98486299,0.11479542,-0.11935193,0.05120569
1755639085456,-0.10063122,-0.03820323,-0.07319262,0.02888492,-0.00441777,-0.05694677,0.98485765,0.11495718,-0.11937667,0.05088679
1755639085468,0.05493164,-0.09680476,-0.07299696,-0.00275671,0.00196041,-0.04125026,0.98487443,0.11493995,-0.11936442,0.05062898
1755639085481,-0.00707805,0.02406305,-0.09543728,-0.00361424,-0.00383286,-0.01017799,0.98487751,0.11491682,-0.11938895,0.05056384
1755639085492,-0.01140395,-0.01924417,0.00807780,0.03239884,0.01167807,0.01902541,0.98485877,0.11509825,-0.11932355,0.05067038
1755639085503,-0.01865179,0.08204086,0.04838654,0.00518810,0.02178012,0.01054129,0.98486658,0.11512549,-0.11920920,0.05072572
1755639085512,-0.08680059,0.00496902,-0.01937289,0.00132408,0.03516023,0.03860745,0.98487659,0.11513178,-0.11904219,0.05090911
1755639085523,-0.02655120,-0.06756140,-0.05204810,-0.03279866,0.03414527,0.03901434,0.98490863,0.11495467,-0.11885781,0.05111979
1755639085534,0.07626184,-0.28167619,-0.16927208,0.00577131,0.00919486,-0.00341824,0.98491200,0.11498641,-0.11880724,0.05110099
1755639085547,0.07662672,-0.03167694,-0.03530303,-0.02767699,0.00544604,-0.00715948,0.98494010,0.11480374,-0.11877129,0.05105373
1755639085559,0.01300192,-0.05740579,-0.05297735,-0.03376909,0.00559430,-0.00743130,0.98496880,0.11460957,-0.11873913,0.05101100
1755639085570,0.06359768,0.01815129,-0.10042087,-0.01368230,0.01864087,-0.00043771,0.98499042,0.11453295,-0.11863474,0.05100855
1755639085580,0.04912471,0.25345672,-0.06612941,-0.00428937,0.03751184,0.00675450,0.98501467,0.11451064,-0.11843968,0.05104367
1755639085592,0.02935286,0.07721883,-0.01763994,0.00449739,0.03091506,0.02378345,0.98502583,0.11453628,-0.11826346,0.05117924
1755639085603,0.07628205,-0.09679113,-0.09746585,0.02259140,0.01833710,0.00388268,0.98502233,0.11466166,-0.11816169,0.05120079
1755639085614,-0.04257129,-0.02999341,0.03676611,-0.02633342,0.01648523,-0.01503003,0.98505464,0.11451551,-0.11807020,0.05111737
1755639085624,0.14737953,0.04872131,0.03883095,-0.08168827,0.01448723,-0.01998004,0.98511406,0.11411932,-0.11799993,0.05102047
1755639085635,-0.03950196,-0.08263209,-0.19684427,-0.01337996,-0.00171206,-0.03162583,0.98513000,0.11404774,-0.11800909,0.05085127
1755639085647,0.03530126,0.05620523,0.03756193,-0.02117373,0.00720864,-0.00947655,0.98515357,0.11391646,-0.11796440,0.05079252
1755639085658,0.09510506,0.09771759,-0.07709594,-0.03533589,-0.00602867,-0.01982530,0.98517833,0.11371681,-0.11799846,0.05068050
1755639085670,-0.00896895,-0.14034372,-0.12951669,-0.00657891,-0.01452034,-0.01778274,0.98517794,0.11367865,-0.11808268,0.05057736
1755639085681,0.13540552,0.11761143,0.10506053,-0.00975244,-0.00543876,-0.02651283,0.98518820,0.11362404,-0.11811314,0.05042889
1755639085691,0.12704021,-0.11457442,-0.08040848,-0.02076590,-0.03215682,-0.01212646,0.98518419,0.11352540,-0.11826588,0.05037129
1755639085701,-0.11791462,0.04615287,0.00341452,-0.02185392,-0.02012187,-0.02102632,0.98519036,0.11341067,-0.11837152,0.05026090
1755639085712,-0.08084133,-0.17321333,-0.13836793,0.03054573,-0.02150130,0.00238531,0.98515550,0.11358173,-0.11849193,0.05027426
1755639085723,0.03251080,0.13947814,0.17960511,-0.02078743,-0.00246675,-0.01319182,0.98517019,0.11347155,-0.11850500,0.05020434
1755639085734,-0.10453883,-0.07119128,-0.22719495,-0.00635920,-0.02978639,-0.00676000,0.98515651,0.11343690,-0.11866734,0.05016750
1755639085764,-0.12059616,0.05197257,0.13698162,-0.00582286,0.00030497,-0.00899838,0.98517404,0.11334926,-0.11866275,0.05003208
1755639085774,0.55521618,-0.71340753,-1.19829130,-0.07261823,0.01825595,-0.02208348,0.98523525,0.11296802,-0.11856690,0.04991614
1755639085786,-0.63161058,0.34282564,0.88540796,-0.03826951,0.00810379,-0.01616303,0.98527046,0.11274988,-0.11852071,0.04982401
1755639085787,2.71027207,-27.05310350,-24.53969962,-0.32284211,0.16093023,-0.04393082,0.98531139,0.11252389,-0.11840806,0.04979326
1755639085807,-0.19691434,1.96282102,1.77992230,-0.03817112,0.00892398,-0.00510838,0.98536934,0.11213454,-0.11831704,0.04974115
1755639085809,5.02479811,-21.55818883,-48.86073294,-0.25148929,0.17264963,-0.10206989,0.98540475,0.11197108,-0.11820481,0.04967481
1755639085831,-0.29750078,1.34921193,2.84717425,-0.01021172,0.01067440,-0.00343781,0.98543336,0.11185926,-0.11808793,0.04963716
1755639085854,-0.01320400,0.03250237,-0.14900330,0.01364693,0.01880850,0.00039478,0.98544137,0.11201961,-0.11786693,0.04964180
1755639085856,-6.46852792,-0.15358629,-27.10490833,-0.07796951,0.11593157,0.06152283,0.98545804,0.11195334,-0.11776839,0.04969410
1755639085876,0.51443565,-0.01667153,2.52436827,-0.00145357,0.01571900,0.00056004,0.98547808,0.11193887,-0.11761198,0.04969967
1755639085886,-0.26704320,0.00638863,-0.37575242,-0.01901723,0.01550978,-0.00115532,0.98549924,0.11183998,-0.11753133,0.04969366
1755639085897,0.05637409,0.01969053,0.10050386,-0.00202134,0.02777133,0.00369637,0.98551818,0.11182856,-0.11737442,0.04971454
1755639085909,0.02669966,-0.00061087,-0.02857698,-0.00073178,0.01442954,0.00764314,0.98552660,0.11182421,-0.11728857,0.04976002
1755639085920,-0.02086307,-0.05809373,-0.13363958,0.00108109,0.00897055,0.00790454,0.98552960,0.11183015,-0.11723923,0.04980350
1755639085932,0.04686703,-0.03894238,0.13732355,-0.00053711,0.02131199,0.00471684,0.98554338,0.11182701,-0.11711456,0.04983109
1755639085934,-10.91227022,-7.28765630,-23.42725369,0.03289526,0.12959799,0.00404067,0.98555312,0.11185497,-0.11700440,0.04983452
1755639085953,0.97325653,0.71287644,2.14953383,0.00197889,0.01687373,0.01038889,0.98556545,0.11187446,-0.11683819,0.04993686
1755639085964,-0.28810493,0.19769170,-0.42227715,0.04238808,0.01589266,0.01743221,0.98554560,0.11209488,-0.11675555,0.05002750
1755639085974,0.12344157,0.08762147,0.14328040,0.03937651,0.05981077,0.01182932,0.98555596,0.11229964,-0.11644453,0.05008902
1755639085977,-8.45056400,9.11469166,-9.85899134,0.12469020,0.11008733,0.10439878,0.98554845,0.11244303,-0.11631793,0.05020907
1755639085988,1.68614965,-1.86140829,1.94812738,0.07352548,0.04617147,0.02405135,0.98552542,0.11284742,-0.11606399,0.05034136
1755639086008,0.09729267,-0.10137809,0.17262111,0.00828510,0.02325841,-0.00482968,0.98554607,0.11293152,-0.11582792,0.05029233
1755639086010,-15.39433227,3.14117892,-31.53503663,-0.16414206,0.23678494,-0.38790959,0.98560576,0.11278379,-0.11561481,0.04994322
1755639086029,1.41577686,-0.37918116,2.87115953,-0.01884081,0.02039436,-0.01271316,0.98565634,0.11260009,-0.11541597,0.04981926
1755639086041,-0.12279279,-0.08370001,-0.29086895,-0.02188071,0.01600867,0.01948017,0.98567632,0.11247100,-0.11532151,0.04993420
1755639086042,-28.77473855,2.97933557,-57.22308922,-0.01594905,0.15354391,0.11097655,0.98568551,0.11246063,-0.11522171,0.05000633
1755639086064,1.80442889,-0.10541624,3.60885778,0.00523373,0.01940147,0.00228468,0.98570228,0.11251715,-0.11501217,0.05003101
1755639086085,0.00312365,0.00185091,-0.03862513,0.00389509,0.01124876,0.01952349,0.98570096,0.11255805,-0.11489406,0.05023600
1755639086086,-29.33683850,7.35880837,-90.78828115,-0.04784616,0.16822733,0.03943098,0.98571825,0.11252217,-0.11476789,0.05026558
1755639086108,2.03378273,-0.50815833,6.21185487,-0.00634188,0.00721564,0.00395354,0.98573323,0.11245241,-0.11468852,0.05030906
1755639086120,-0.10219623,-0.03261838,-0.44881699,0.01206086,0.00138275,0.01869768,0.98572031,0.11252417,-0.11468029,0.05042032
1755639086130,-0.05958461,0.04791913,-0.28996908,0.00658389,0.01198149,0.00701206,0.98572173,0.11255709,-0.11462039,0.05045538
1755639086134,-1.69131221,-0.66927501,-7.38708340,0.03308655,0.03463273,0.01657709,0.98572067,0.11261499,-0.11455978,0.05048439
1755639086165,0.26835529,0.05187113,1.11657576,0.00119292,0.00601528,0.00042906,0.98572921,0.11263384,-0.11446474,0.05049116
1755639086208,-0.01779959,-0.01356840,-0.05022569,-0.00796582,0.00680333,-0.00212565,0.98576790,0.11246337,-0.11431915,0.05044568
1755639086221,-1.60212771,-0.46194712,-3.05628350,-0.04828929,0.06265763,-0.04057316,0.98586575,0.11214466,-0.11390561,0.05017789
1755639086243,0.74376401,0.27828457,1.24186792,-0.00881557,0.02970529,0.00796680,0.98590840,0.11205122,-0.11359073,0.05026234
1755639086266,0.00600362,0.18084420,0.14869166,0.04732077,0.03581217,-0.00038555,0.98589399,0.11259540,-0.11317889,0.05025791
1755639086288,0.18395637,0.07228455,0.31731998,0.04122482,0.03296800,0.00628146,0.98588020,0.11304682,-0.11281789,0.05032669
1755639086300,-0.21613913,0.20375007,-0.45008609,0.03516689,0.06726463,0.04904410,0.98588746,0.11327188,-0.11238740,0.05064057
1755639086312,-0.43215436,-0.14064747,-0.25112849,0.04374966,0.09362631,0.01743446,0.98591506,0.11352782,-0.11183968,0.05074256
1755639086323,-0.47262493,-0.25565958,-0.18314795,0.05652619,0.11720746,0.01011701,0.98594834,0.11383023,-0.11121262,0.05079669
1755639086333,0.41458774,0.10742701,0.24500898,0.05080259,0.11403344,0.00543673,0.98598239,0.11408933,-0.11063105,0.05082442
1755639086344,-0.17277478,0.15221573,0.30698904,0.06554830,0.11618439,-0.01129574,0.98601500,0.11444657,-0.10999785,0.05076285
1755639086354,0.05150696,0.13715448,-0.04233658,0.07695292,0.09909098,-0.02566665,0.98603319,0.11485826,-0.10946771,0.05062554
1755639086365,0.22619237,-0.31924933,0.12656143,0.07430736,0.12438703,-0.01025808,0.98606300,0.11525209,-0.10880846,0.05057117
1755639086379,-0.13929304,-0.17336472,-0.09003942,0.04036020,0.10127869,-0.00351776,0.98610720,0.11552251,-0.10812989,0.05054760
1755639086380,-63.80810667,16.02361340,-73.50220164,0.35230132,1.03533214,0.03826366,0.98616305,0.11580435,-0.10730163,0.05057821
1755639086391,9.46799306,-1.95123518,10.82018458,0.05870728,0.14380509,-0.00369809,0.98621010,0.11611550,-0.10653946,0.05055861
1755639086401,-0.14853418,-0.20211258,0.14641226,0.07465928,0.12505578,-0.00001754,0.98623482,0.11651119,-0.10587666,0.05055852
1755639086412,0.11458351,-0.30979986,-0.50713813,0.08026704,0.16089847,0.02570186,0.98626865,0.11693661,-0.10502390,0.05069474
1755639086422,-0.21958349,-0.12315271,-0.13400776,0.03119295,0.18472163,0.00831936,0.98634439,0.11708945,-0.10411877,0.05073550
1755639086433,0.02518640,0.26902354,0.29781385,-0.03570747,0.15339117,0.00345899,0.98645439,0.11689485,-0.10328278,0.05075436
1755639086444,0.50278515,0.47699549,0.25456615,0.01505440,0.14407924,0.01779576,0.98652341,0.11697915,-0.10247594,0.05085401
1755639086455,-0.09362775,0.14522457,-0.29310269,0.06791437,0.06288666,0.01796906,0.98650931,0.11736626,-0.10211749,0.05095644
1755639086466,0.56057941,-0.10872382,-0.40453041,0.16598015,0.06447662,0.00337137,0.98643664,0.11827085,-0.10176609,0.05097481
1755639086477,-0.25013740,-0.68159335,0.44261360,0.14575633,0.05257126,-0.00157052,0.98636982,0.11907980,-0.10147432,0.05096609
1755639086488,0.23724798,-0.59681644,0.39138179,0.07613561,0.07676460,0.00019323,0.98636226,0.11950997,-0.10104060,0.05096718
1755639086524,0.08491430,0.11141320,0.31670110,-0.02140083,0.02094922,0.00074148,0.98644485,0.11913331,-0.10067189,0.05098023
1755639086534,-2.36270589,-0.18026419,-3.59015649,-0.10715621,0.24749750,-0.06519274,0.98666610,0.11856003,-0.09934778,0.05063145
1755639086545,1.81588786,0.73249834,1.82838250,0.00010341,0.11609068,0.00562856,0.98672683,0.11856058,-0.09872669,0.05066157
1755639086555,0.03049639,-0.37484625,0.27028794,0.02523756,0.12295950,-0.02593542,0.98678121,0.11869055,-0.09809345,0.05052800
1755639086567,0.01003843,0.00319237,0.07152380,0.03767673,0.09471223,-0.07312380,0.98682927,0.11890154,-0.09756306,0.05011851
1755639086578,-0.31695315,-0.27779142,0.80124969,0.00679070,0.07878552,-0.09791706,0.98689472,0.11893889,-0.09712974,0.04957996
1755639086589,0.32436416,-0.40836459,0.18178389,-0.00490995,0.08231063,-0.06331857,0.98696399,0.11891017,-0.09664823,0.04920955
1755639086601,-0.17401360,0.07121966,-0.30315135,-0.02324506,0.06951744,-0.02719608,0.98702583,0.11877883,-0.09625545,0.04905589
1755639086612,0.08325039,0.55575774,-0.29257346,-0.04869208,0.09298779,-0.00653415,0.98711562,0.11849155,-0.09570683,0.04901734
1755639086614,-57.90577838,-13.27239366,-63.90541575,-0.07110797,0.72786452,-0.20623019,0.98717802,0.11844178,-0.09519732,0.04887298
1755639086624,7.68525260,1.71116420,9.09805298,0.01974588,0.12017935,-0.05973873,0.98723868,0.11854051,-0.09459642,0.04857428
1755639086634,0.13133360,0.00795553,0.13376071,0.02134013,0.08502082,-0.03476688,0.98727612,0.11865041,-0.09415857,0.04839523
1755639086645,0.11110769,0.03156468,0.19080373,0.00149667,0.08296443,-0.03998601,0.98732930,0.11865864,-0.09370226,0.04817531
1755639086655,-0.37120644,-0.04684167,-0.38419185,0.00327876,0.09197989,-0.02691072,0.98737935,0.11867569,-0.09322397,0.04803538
1755639086666,-0.06557666,0.25449160,-0.09389283,0.07423006,0.09957032,-0.05786058,0.98739574,0.11905055,-0.09272114,0.04774318
1755639086679,0.08269014,0.17692477,0.38260951,0.09770928,0.06956684,-0.00309321,0.98736229,0.11968566,-0.09226895,0.04772307
1755639086691,-0.11837201,0.13169857,-0.11122306,0.16739017,0.05637493,0.02521440,0.98726508,0.12068163,-0.09193352,0.04787310
1755639086701,-0.20141413,-0.10292879,0.06974622,0.09001082,0.06584325,0.01041617,0.98723559,0.12117219,-0.09157468,0.04792987
1755639086712,0.24700519,-0.62023358,0.07409794,-0.01701811,0.07633263,0.02334160,0.98727968,0.12107859,-0.09115485,0.04805825
1755639086722,-0.32922364,-0.92668060,0.06165609,-0.16714256,0.07303408,-0.00065238,0.98741291,0.12025959,-0.09079698,0.04805505
1755639086742,0.44829240,0.07619544,0.26273261,-0.11687780,0.05256591,0.00720893,0.98759738,0.11910250,-0.09027658,0.04812642
1755639086753,-1.38567159,-2.70932231,-0.57536151,-0.31392799,0.08792624,0.01704206,0.98784136,0.11739160,-0.08979738,0.04821930
1755639086755,-71.43842244,16.72984297,-57.33785689,-1.43236421,0.46729994,-0.01030483,0.98801116,0.11624570,-0.08942354,0.04821105
1755639086764,12.36837657,1.32702890,8.76023168,-0.07365036,0.12692607,-0.00378543,0.98810752,0.11589586,-0.08882064,0.04819307
1755639086776,0.10575078,-0.49555057,-0.31775591,-0.00712635,0.12299585,0.06449463,0.98815792,0.11585453,-0.08810726,0.04856714
1755639086786,-0.23937291,-0.82913883,0.03290615,-0.06046868,0.14610877,0.07386415,0.98824568,0.11553102,-0.08732558,0.04896232
1755639086797,-0.24896848,0.16456237,0.66171330,-0.15707201,0.14765490,0.01996270,0.98841528,0.11465142,-0.08649871,0.04907411
1755639086832,0.52096864,0.28458390,0.32121176,-0.06481777,0.06021843,0.00517396,0.98862776,0.11354628,-0.08547199,0.04916232
1755639086851,-1.22363390,-0.25880313,-0.87102368,-0.11848065,0.21946095,-0.01216681,0.98894828,0.11239109,-0.08333225,0.04904370
1755639086853,-200.97463559,-5.85467579,-118.77897076,-0.95526212,2.53066769,0.11463914,0.98919877,0.11162688,-0.08130771,0.04913541
1755639086874,15.52801082,0.74534025,9.27387519,-0.01299603,0.10800961,-0.00759787,0.98931492,0.11148523,-0.08013041,0.04905259
1755639086886,-1.07503229,0.28960397,-0.45650464,-0.01130612,0.18793754,-0.02244773,0.98941817,0.11141852,-0.07902158,0.04892015
1755639086896,-0.49727069,0.11219588,0.04807122,-0.03480286,0.21060438,-0.03229231,0.98953036,0.11124276,-0.07795802,0.04875707
1755639086908,0.43569699,-0.10840662,0.05015470,-0.03266740,0.17922600,-0.03417812,0.98963985,0.11105819,-0.07694540,0.04856397
1755639086918,-0.19217422,-0.51967940,-0.15515101,-0.04662262,0.19358704,-0.03165595,0.98975608,0.11080876,-0.07590971,0.04839461
1755639086930,0.24735172,0.33225300,0.33733928,-0.07415714,0.17158086,-0.03463681,0.98989320,0.11036753,-0.07488880,0.04818852
1755639086942,-0.20738163,0.57208009,-0.08435863,-0.03548568,0.16484868,-0.07312353,0.99000657,0.11016526,-0.07394916,0.04777171
1755639086944,-49.94967752,15.87858403,-20.09809510,0.18560009,0.82400761,-0.31298565,0.99006767,0.11036942,-0.07304275,0.04742743
1755639086963,6.40177347,-1.71448514,2.50341927,0.05026643,0.08188242,-0.03186875,0.99008623,0.11085700,-0.07224849,0.04711830
1755639086988,0.09929970,-0.10037101,0.10563031,0.05869789,0.05533049,-0.00759586,0.99005911,0.11157605,-0.07157070,0.04702525
1755639087021,-0.13763093,0.00435083,0.06205185,0.07396577,0.07980976,-0.01129287,0.99002341,0.11281498,-0.07023388,0.04683610
1755639087031,-10.58082866,2.92986635,-3.67283097,0.33561268,0.48022469,-0.10902124,0.99002403,0.11440914,-0.06795282,0.04631825
1755639087076,2.26112438,-0.62822055,0.70535178,0.04079230,0.05919223,-0.02559509,0.99003485,0.11532901,-0.06661803,0.04574108
1755639087109,-0.44716900,-0.06398598,-0.19741394,0.00602470,0.11491770,-0.03399492,0.99017479,0.11542841,-0.06472189,0.04518016
1755639087130,-0.72518140,0.41278224,-0.58210514,0.09821555,0.14947984,-0.02685154,0.99016804,0.11647932,-0.06312245,0.04489285
1755639087142,-1.04674970,-0.49126161,-0.83483444,0.06710586,0.13304011,-0.09405525,0.99019589,0.11687189,-0.06234417,0.04434263
1755639087176,1.13320922,-0.13992408,0.69376401,0.01639044,0.03956894,0.00534016,0.99020102,0.11715053,-0.06167150,0.04443341
1755639087187,-1.86148911,0.23055752,-0.46515645,0.00166075,0.05879386,0.01351393,0.99021725,0.11715999,-0.06133637,0.04451044
1755639087209,0.79455575,-0.06417632,0.24326680,0.01220746,0.02227623,0.00510136,0.99021398,0.11729428,-0.06109133,0.04456655
1755639087220,-1.26253783,0.03483545,-0.91692755,0.04817280,0.00261414,-0.00320709,0.99018397,0.11756163,-0.06107683,0.04454875
1755639087241,0.47530640,0.03090136,0.28217548,0.01264540,0.01532870,-0.00249513,0.99017940,0.11769125,-0.06091971,0.04452318
1755639087254,-0.17886788,0.13973033,-0.04792904,-0.02120129,0.00427525,0.03239978,0.99018786,0.11755556,-0.06089235,0.04473054
1755639087275,0.57871967,-0.19257224,0.22757558,0.02869471,0.00955635,0.01280310,0.99015178,0.11785973,-0.06079105,0.04486625
1755639087286,-2.82265691,0.19072030,-1.25375312,0.01622689,0.00781748,0.03259120,0.99013536,0.11795060,-0.06074727,0.04504876
1755639087308,1.44258448,-0.04185815,0.72971647,0.00726027,-0.00542440,-0.00619921,0.99012533,0.11803010,-0.06080667,0.04498088
1755639087330,-0.39590599,0.08477138,-0.29945966,0.03097140,-0.01831552,0.00840948,0.99006858,0.11836768,-0.06100631,0.04507254
1755639087340,-3.50243215,0.77867384,-2.40326827,0.09204817,-0.04931740,-0.01141565,0.98999810,0.11884633,-0.06126276,0.04501318
1755639087352,2.28707798,-0.87725955,1.19431171,0.06564899,-0.03173091,0.03221668,0.98993296,0.11922382,-0.06144521,0.04519843
1755639087364,-0.30978960,-0.28423188,-0.02205125,0.01700098,-0.01931582,0.02192672,0.98990788,0.11932412,-0.06155917,0.04532780
1755639087386,0.94828076,0.10006467,0.75824556,-0.00336045,-0.01868900,0.00208498,0.98989848,0.11928716,-0.06176475,0.04535073
1755639087398,-0.80579886,0.31353616,-0.29723383,0.00810835,-0.02028921,0.00059034,0.98988440,0.11933743,-0.06189054,0.04535439
1755639087430,0.58413015,-0.11289051,0.26530845,0.00646539,-0.00932995,0.01338804,0.98985303,0.11943991,-0.06203842,0.04556659
1755639087441,-6.34643255,0.82048093,-4.73032398,0.07644376,-0.06859283,0.04835066,0.98976305,0.11987564,-0.06242940,0.04584219
1755639087452,2.23205097,-0.76416684,1.47669995,-0.00380359,-0.03411680,0.04178965,0.98974251,0.11985414,-0.06262216,0.04607830
1755639087474,1.74259077,-0.12574568,1.35864767,0.00074866,-0.01478928,0.00955287,0.98972683,0.11986212,-0.06277967,0.04618004
1755639087485,-1.49320357,-0.19827079,-0.44205029,-0.04568133,-0.00817438,0.01288221,0.98975150,0.11960630,-0.06282545,0.04625218
1755639087496,0.31351210,0.29285699,0.03141673,-0.02850884,-0.02688523,0.01575304,0.98975718,0.11944380,-0.06297869,0.04634197
1755639087509,0.52324364,-0.06751683,0.10986684,0.01162757,-0.02254751,0.01510171,0.98973430,0.11951880,-0.06312412,0.04643938
1755639087530,0.54779998,0.08237232,0.36357976,-0.00038808,-0.01804761,0.00769824,0.98971875,0.11951469,-0.06331543,0.04652098
1755639087542,-3.34996407,0.32035058,-2.38055661,0.01843450,-0.03577856,0.02330621,0.98968729,0.11961792,-0.06351579,0.04665149
1755639087553,1.54872742,-0.33935629,1.11940225,0.02215195,-0.03772518,0.01310974,0.98965324,0.11974972,-0.06374025,0.04672950
1755639087575,0.73507514,-0.04579947,0.54334190,0.00944231,-0.01786761,-0.00232037,0.98962985,0.11985076,-0.06393144,0.04670467
1755639087598,-0.51158188,-0.01916255,-0.32391993,0.01105451,-0.05183546,-0.01048795,0.98958060,0.11998009,-0.06453791,0.04658196
1755639087619,-0.17063549,0.14516589,-0.08647734,0.02380929,-0.04737901,0.00530507,0.98951725,0.12022176,-0.06501881,0.04663581
1755639087630,-2.75546188,-0.20989957,-1.83663709,0.00368657,-0.06388036,0.02650267,0.98948298,0.12024314,-0.06538931,0.04678952
1755639087641,0.04707531,-0.55630852,0.15427088,-0.01555478,-0.04576529,0.06554061,0.98945938,0.12015681,-0.06564331,0.04715327
1755639087674,1.55215595,0.18736250,1.04963761,-0.02328755,-0.00035170,-0.01754566,0.98951825,0.11977955,-0.06564901,0.04686903
1755639087685,-4.35557260,0.24200360,-2.46276792,-0.05319906,-0.03040243,0.01660889,0.98953927,0.11947100,-0.06582534,0.04696536
1755639087708,1.80892069,-0.11789534,1.01082258,-0.02072136,0.00060584,0.01722057,0.98955914,0.11923167,-0.06581835,0.04716426
1755639087718,-5.34833768,0.03790701,-2.60556415,-0.08335196,0.04673647,0.04781750,0.98961335,0.11881491,-0.06558466,0.04740335
1755639087731,1.20945689,-0.60045953,0.38344961,-0.03296120,0.04793795,0.01320083,0.98965295,0.11861384,-0.06529224,0.04748387
1755639087752,1.86168741,0.37937057,1.04928636,-0.01509809,0.01932631,-0.00897456,0.98968982,0.11845531,-0.06508932,0.04738964
1755639087763,-1.37311763,-0.00344164,-1.07973510,0.04438380,0.02803501,-0.00419870,0.98967164,0.11870164,-0.06493372,0.04736634
1755639087775,0.35424248,0.30977320,0.22822755,0.05296107,0.02602466,-0.01517820,0.98964846,0.11901411,-0.06478018,0.04727679
1755639087786,0.23970240,-0.21694617,-0.03741660,0.07180403,0.02748901,-0.00980069,0.98961111,0.11943417,-0.06461937,0.04721945
1755639087797,-0.83118658,0.03186955,-0.06271328,0.01220176,0.01746709,0.00939831,0.98960700,0.11949823,-0.06452766,0.04726879
1755639087818,0.96402339,-0.10738937,0.46510078,0.00390163,0.01234126,-0.00019267,0.98961071,0.11954056,-0.06439376,0.04726670
1755639087828,-5.10357890,-0.13374322,-3.06717072,-0.01110563,0.06496857,-0.00332068,0.98963958,0.11948448,-0.06406567,0.04724993
1755639087841,2.62230715,-0.08577368,1.34772291,-0.00303586,0.03179254,-0.01581159,0.98965927,0.11946565,-0.06386856,0.04715190
1755639087852,-0.27019716,0.12466353,-0.01611185,-0.00002982,0.03449130,-0.02162956,0.98967766,0.11946549,-0.06367368,0.04702970
1755639087864,0.36119053,0.15333720,0.37982496,-0.00805063,0.03753065,-0.01743380,0.98970228,0.11941839,-0.06345412,0.04692771
1755639087875,-0.04524413,-0.19642573,-0.65817570,0.00400624,0.02477866,0.00884320,0.98970594,0.11943982,-0.06332156,0.04697502
1755639087886,0.28129659,0.48375335,0.49509596,-0.00915812,0.03631583,0.01640440,0.98972089,0.11938808,-0.06311637,0.04706770
1755639087896,-0.27393383,0.15797953,-0.05006222,-0.00992311,0.05090638,0.01170256,0.98974145,0.11933549,-0.06284657,0.04712973
1755639087907,-0.04635763,-0.41282198,-0.32608463,-0.00731995,0.02583922,0.04558689,0.98974331,0.11929596,-0.06270704,0.04737590
1755639087918,-0.05800528,-0.13626664,0.19548623,-0.02402187,0.03591130,0.03418990,0.98976306,0.11916144,-0.06250594,0.04756736
1755639087929,0.07940884,-0.23997791,-0.14023758,-0.01566998,0.05055559,0.05177393,0.98977709,0.11907604,-0.06223041,0.04784953
1755639087931,-98.81383403,-1.77349153,-63.54880026,-0.16213163,0.27032230,0.23969337,0.98980069,0.11892201,-0.06197360,0.04807724
1755639087942,17.33939610,0.55856493,11.35375747,-0.02988362,0.05932312,0.03555656,0.98983073,0.11876064,-0.06165326,0.04826924
1755639087953,-0.02411782,-0.28744427,-0.43315455,0.00347069,0.04874329,0.01722825,0.98984038,0.11877955,-0.06138761,0.04836314
1755639087974,0.92592471,0.19339131,0.74756689,-0.01275520,0.02265854,0.00901739,0.98986679,0.11864435,-0.06114743,0.04845872
1755639087985,-1.95646495,0.05716895,-1.17634679,-0.01888024,0.04426401,0.03134065,0.98988458,0.11854712,-0.06091947,0.04862013
1755639087997,0.92891446,-0.06923313,0.21736878,0.00922228,0.04452726,0.02569501,0.98988681,0.11860337,-0.06064785,0.04877686
1755639088008,-0.36775280,0.03405202,-0.03596928,0.00826058,0.03852887,0.03479796,0.98988480,0.11865046,-0.06042823,0.04897521
1755639088018,-0.52693828,-0.33267292,-0.70307721,-0.00058276,0.03810708,0.03171293,0.98988903,0.11864746,-0.06023198,0.04913853
1755639088020,-73.42417635,-12.17035699,-57.42230974,-0.06531428,0.30012108,0.22097573,0.98990333,0.11858541,-0.05994687,0.04934846
1755639088030,14.16845415,1.99043838,11.49080785,-0.03943371,0.01004918,0.03869805,0.98992014,0.11839021,-0.05989712,0.04954002
1755639088052,1.01645289,0.22981512,0.68245571,-0.02982470,0.01651508,0.01344340,0.98996269,0.11806363,-0.05971628,0.04968722
1755639088063,-1.47000514,0.10573814,-1.13747346,-0.02783620,-0.00798922,0.02773521,0.98997090,0.11790496,-0.05976182,0.04984531
1755639088075,0.48890307,0.10029538,0.20155439,0.01972683,-0.01195730,0.03049119,0.98994416,0.11801938,-0.05983118,0.05002216
1755639088085,-0.42212944,-0.61278702,-0.51000063,0.03371423,0.00104035,0.03899267,0.98991390,0.11819132,-0.05982587,0.05022102
1755639088096,-0.00708838,0.22951877,0.06206656,0.01138871,-0.01444307,0.02701944,0.98989515,0.11825054,-0.05990097,0.05036153
1755639088108,0.47209474,-0.04542928,0.42820114,-0.00695630,-0.01116583,0.01101569,0.98989263,0.11820741,-0.05997020,0.05042982
1755639088119,0.03564253,-0.00866485,-0.22746303,-0.02868261,-0.00775403,0.05256088,0.98989411,0.11804823,-0.06001324,0.05072154
1755639088130,0.13664831,-0.01518152,0.52368216,-0.01744999,-0.01012143,0.01464287,0.98989787,0.11795661,-0.06006637,0.05079841
1755639088142,0.25615785,0.15174515,-0.28195628,-0.02151939,-0.01834685,-0.00518763,0.98990799,0.11782965,-0.06017462,0.05076780
1755639088153,0.01930461,0.20979918,0.07161694,-0.03807122,-0.05247808,0.04399701,0.98990272,0.11761455,-0.06047112,0.05101639
1755639088165,0.47016981,-0.19090831,-0.02423912,0.01479029,-0.03189028,0.03307263,0.98986994,0.11770403,-0.06066406,0.05121648
1755639088186,0.15615379,0.06070699,0.38280871,0.00943951,-0.03659525,-0.01611905,0.98984302,0.11780409,-0.06105197,0.05104561
1755639088196,-1.60723589,0.02882244,-3.03251191,-0.00126816,-0.14262775,0.00778644,0.98979569,0.11779749,-0.06179363,0.05108610
1755639088229,0.66966935,-0.06646907,1.12297662,0.00221962,-0.02069840,0.00991069,0.98976191,0.11783367,-0.06213102,0.05124765
1755639088255,-0.53227460,-0.04889431,-0.64741793,-0.04326537,-0.04633205,0.04326641,0.98976143,0.11726906,-0.06273565,0.05181227
1755639088285,0.09401232,0.00307335,0.08125419,-0.05017547,-0.02202411,0.01336294,0.98981919,0.11651141,-0.06306821,0.05201405
1755639088287,-189.78750468,-49.37039273,-193.10003745,-0.41771862,-0.11495377,0.24592932,0.98983937,0.11621901,-0.06314868,0.05218621
1755639088346,4.68904002,1.20872416,4.84619363,0.00132117,-0.00606534,0.00255714,0.98981935,0.11625805,-0.06332791,0.05226177
1755639088378,-0.30194326,0.01223595,-0.52219801,0.00600183,-0.06695751,0.01737405,0.98972393,0.11635438,-0.06440258,0.05254062
1755639088420,0.30479576,-0.03568984,0.29188020,-0.01674458,-0.03719891,0.00131060,0.98971266,0.11600441,-0.06518004,0.05256801
1755639088455,-0.10328933,0.08990941,-0.00365873,0.01114276,-0.02559229,0.01549326,0.98964594,0.11619886,-0.06562662,0.05283837
1755639088475,-0.29677652,-0.34839509,-0.49335315,-0.07841229,-0.06395814,0.00829767,0.98969020,0.11542257,-0.06625981,0.05292052
1755639088506,0.22048254,0.08936613,0.18299092,-0.00067646,-0.04585204,0.00926504,0.98963466,0.11541185,-0.06698656,0.05306737
1755639088530,0.06603328,0.03663153,0.12184528,-0.01828978,-0.00488598,-0.00083404,0.98965661,0.11519420,-0.06704471,0.05305744
1755639088551,0.02057913,0.01697084,0.20712188,-0.01999351,-0.00198520,-0.02127903,0.98969240,0.11497927,-0.06706605,0.05282869
1755639088562,0.00479165,-0.06402884,-0.58986675,0.01899679,-0.00878017,-0.01917390,0.98968278,0.11508186,-0.06711346,0.05272516
1755639088597,0.02202157,0.04370866,0.25510941,-0.00527800,0.00068296,-0.00060367,0.98969465,0.11499134,-0.06710175,0.05271480
1755639088607,-0.56212857,-0.48896728,-3.01751426,0.01771900,0.03762925,-0.00825155,0.98969956,0.11508525,-0.06690231,0.05267107
1755639088668,0.10200064,0.07726695,0.52253023,-0.00518919,0.00112252,0.00018031,0.98971998,0.11492698,-0.06686808,0.05267657
1755639088695,-0.12310554,-0.27828149,-0.94513043,-0.08688974,0.01717873,0.02182894,0.98985390,0.11376700,-0.06663874,0.05296799
1755639088719,-0.02859919,0.34589642,0.00746736,0.00614619,0.04624638,-0.03768158,0.98990737,0.11384168,-0.06607685,0.05251015
1755639088740,0.07414755,-0.14859907,0.32966602,-0.04467050,0.04078996,0.00221638,0.98998731,0.11337934,-0.06565467,0.05253309
1755639088763,0.04870706,-0.06000974,0.27977815,-0.04647541,0.05355963,0.03325336,0.99006971,0.11283790,-0.06503070,0.05292050
1755639088785,0.18640096,-0.10833785,0.05956327,-0.02472616,0.01272121,0.00602912,0.99010664,0.11256344,-0.06488949,0.05298742
1755639088887,-0.01938268,0.06151688,0.12926226,-0.00182143,-0.00053306,-0.00101604,0.99011811,0.11247118,-0.06491649,0.05293596
1755639088920,0.20318710,-0.03765307,-0.99037687,-0.02897913,0.04753289,-0.01754633,0.99023958,0.11199013,-0.06412745,0.05264469
1755639088940,-0.03013661,0.23544525,0.76532051,0.02899698,-0.00380018,-0.00426389,0.99020572,0.11228735,-0.06416640,0.05260098
1755639088985,-0.12238141,-0.11587335,0.23947185,-0.01514402,0.00757936,0.01063224,0.99024235,0.11194888,-0.06399700,0.05283861
1755639089033,-0.02474637,0.03557812,0.06611071,0.00425809,0.00574541,-0.00023652,0.99024000,0.11205107,-0.06385911,0.05283294
1755639089053,0.00719923,0.03507296,-0.46025411,-0.00609790,0.05023506,0.01551174,0.99027026,0.11199131,-0.06336681,0.05298495
1755639089063,-0.12048364,-0.24560126,-0.34592705,-0.03872753,0.05227133,-0.01059405,0.99031373,0.11178799,-0.06309238,0.05292933
1755639089086,-0.05606942,0.21916966,0.42688786,-0.00790527,-0.00216352,-0.00056861,0.99032252,0.11169945,-0.06311661,0.05292296
1755639089106,0.12203886,-0.00818416,0.17438665,0.00713509,-0.01239346,-0.00369013,0.99030804,0.11177330,-0.06324489,0.05288477
1755639089118,0.20992453,-0.04401805,-0.12579447,0.01055513,-0.02393511,-0.00323294,0.99029338,0.11183400,-0.06338251,0.05286618
1755639089131,0.00194869,-0.18576469,-0.17897590,0.01406072,-0.03128250,0.00383711,0.99026907,0.11192398,-0.06358272,0.05289074
1755639089142,0.01690153,-0.08897490,0.25639527,-0.00630657,-0.01649613,-0.00163297,0.99026763,0.11188898,-0.06367428,0.05288168
1755639089153,-0.09819310,-0.00828475,0.07809317,-0.01428116,-0.02922652,-0.00335925,0.99026710,0.11180544,-0.06384525,0.05286202
1755639089164,0.05375188,0.02191012,0.01409652,-0.00863213,-0.03800261,-0.01151320,0.99026247,0.11175926,-0.06404856,0.05280043
1755639089175,0.51243085,0.22330008,0.16184195,0.01102614,-0.03322917,-0.00385674,0.99024588,0.11181659,-0.06422136,0.05278037
1755639089186,-0.05609500,0.14081080,0.05235534,-0.01131651,-0.01352116,-0.02421479,0.99025551,0.11175209,-0.06429843,0.05264235
1755639089197,-0.13843506,0.08248146,-0.06867986,-0.00419621,-0.03544035,0.02641109,0.99023689,0.11172796,-0.06450221,0.05279421
1755639089219,-0.20890733,-0.09409548,0.03011738,0.00922113,-0.01369219,0.01496160,0.99020792,0.11182570,-0.06464735,0.05295281
1755639089229,-0.00216189,0.20449331,-0.36979153,0.04042682,-0.01202747,-0.00095432,0.99018087,0.11203188,-0.06470869,0.05294794
1755639089231,-0.91549618,4.89826978,-6.40847325,0.02541224,-0.08133159,0.04248063,0.99016831,0.11206237,-0.06480628,0.05299892
1755639089242,0.18194275,-1.24063465,1.51507472,0.03167613,-0.01070203,0.02829009,0.99013667,0.11223501,-0.06486461,0.05315310
1755639089253,-0.04563095,-0.13457625,0.08016563,-0.00635645,-0.02445420,-0.02629329,0.99013946,0.11220132,-0.06499422,0.05301374
1755639089265,-0.10329783,-0.04301516,0.15267309,-0.03948601,-0.02223721,-0.05735001,0.99017618,0.11196243,-0.06512875,0.05266678
1755639089298,0.00119418,-0.00012937,0.06106254,-0.00561590,-0.00885917,-0.00033028,0.99017732,0.11186977,-0.06527493,0.05266133
1755639089307,-0.74411733,0.22590452,-0.28635817,0.03460654,-0.05060195,0.09273342,0.99011872,0.11203588,-0.06551782,0.05310645
1755639089329,0.33982415,-0.03708044,0.07920713,0.01130676,0.00344394,0.01848701,0.99009663,0.11215799,-0.06548062,0.05330611
1755639089331,-8.56212421,-1.19968715,-8.33908571,0.18868986,-0.14272231,0.09818885,0.99005688,0.11236555,-0.06563762,0.05341411
1755639089351,0.95568711,0.03261578,0.99693156,-0.00841785,-0.01024832,-0.00158195,0.99006043,0.11228264,-0.06573856,0.05339853
1755639089363,-0.06526642,0.07452076,-0.00195201,-0.00220715,-0.01270468,0.00135752,0.99005629,0.11226895,-0.06581733,0.05340695
1755639089397,0.03906228,0.00204372,-0.00422369,0.00514959,0.00098491,0.00467627,0.99004334,0.11235546,-0.06580079,0.05348551
1755639089409,-0.50306529,0.00700202,-0.54960275,0.08896136,0.04549138,0.04051230,0.98998849,0.11288034,-0.06553239,0.05372453
1755639089419,0.25685983,-0.04511771,0.43423770,-0.04177424,-0.00670332,-0.00652931,0.99001323,0.11265893,-0.06556791,0.05368993
1755639089441,0.14720386,-0.04255417,0.08117682,-0.01403464,-0.01061247,-0.00258965,0.99002460,0.11250455,-0.06568465,0.05366144
1755639089453,0.05449333,0.01155423,-0.09464632,-0.00930004,-0.03260013,0.00753721,0.99001587,0.11245108,-0.06587210,0.05370478
1755639089475,0.00927790,0.08239168,0.05983966,-0.00062091,-0.01225182,-0.00715186,0.99001181,0.11244403,-0.06601116,0.05362361
1755639089486,0.17754623,0.22402570,-0.10724026,0.04531938,-0.06901057,-0.00232506,0.98995926,0.11269102,-0.06638727,0.05361093
1755639089497,0.05837131,-0.09852378,-0.08136123,0.03483785,-0.03788305,0.00937970,0.98992029,0.11288437,-0.06659752,0.05366299
1755639089509,-0.13496364,-0.11992774,0.07625793,0.01198888,-0.02603781,0.00260377,0.98990169,0.11295271,-0.06674594,0.05367783
1755639089541,-0.02987026,-0.04354093,0.01515915,-0.00154513,-0.00991854,0.00513673,0.98988938,0.11292806,-0.06690414,0.05375976
1755639089551,0.03546728,-0.35827302,-0.00303321,-0.03404051,-0.06364045,0.01643570,0.98988235,0.11274765,-0.06724143,0.05384687
1755639089563,-0.09524182,0.38397994,0.08496811,0.01484951,-0.04956363,0.01999917,0.98984604,0.11283526,-0.06753386,0.05396487
1755639089585,0.04292520,-0.04988059,-0.01404809,0.01578021,-0.01890557,0.00615519,0.98980884,0.11300647,-0.06773898,0.05403165
1755639089608,-0.00773322,-0.00379437,-0.01734858,0.00644180,-0.00180846,0.00765814,0.98979389,0.11308184,-0.06776014,0.05412125
1755639089619,-0.32578512,-0.05623111,-0.17419640,-0.01119365,-0.01254075,0.03361853,0.98978657,0.11302420,-0.06782472,0.05429439
1755639089665,0.05241073,0.03235710,0.04561580,-0.00805108,0.00045309,0.00381656,0.98980385,0.11283620,-0.06781415,0.05438350
1755639089695,0.01079996,0.06980441,-0.00123048,0.01002971,-0.02733772,0.00892779,0.98975167,0.11298514,-0.06822011,0.05451608
1755639089719,0.07834562,-0.02800750,0.05497462,-0.00469915,-0.03083410,0.01103623,0.98972501,0.11292828,-0.06859320,0.05464962
1755639089751,-0.03412993,-0.01073575,0.01548668,0.02141174,-0.02590365,0.01219201,0.98964675,0.11326873,-0.06900507,0.05484347
1755639089762,-0.25745925,0.69351316,0.51916233,0.05892767,-0.06563296,0.00790564,0.98958431,0.11358105,-0.06935293,0.05488537
1755639089797,0.04171564,-0.22505026,-0.17176388,0.00657510,-0.00226420,0.00398032,0.98956434,0.11369677,-0.06939278,0.05495543
1755639089807,-0.26159859,0.48899333,-0.05557975,0.10280111,0.01218049,0.01859552,0.98950064,0.11424162,-0.06932822,0.05505398
1755639089830,0.08047918,-0.10946040,-0.04335853,0.03682943,0.00148061,-0.02796036,0.98947133,0.11465595,-0.06931156,0.05473943
1755639089852,0.00258198,-0.07982627,0.01996019,0.00189150,-0.00196090,0.01462678,0.98945861,0.11467656,-0.06933294,0.05489886
1755639089863,-0.03217720,-0.18825017,0.06106437,-0.00079387,-0.00963884,0.03080341,0.98944599,0.11467220,-0.06938595,0.05506828
1755639089898,0.02770855,0.01396643,-0.00931007,-0.01029458,-0.00052300,0.00512751,0.98946125,0.11449153,-0.06939513,0.05515827
1755639089908,-0.83803886,-0.16414890,-0.01294454,-0.04548940,-0.05573948,0.07595484,0.98944657,0.11426181,-0.06967661,0.05554184
1755639089930,0.34958932,0.01819720,0.04790559,-0.00811874,-0.01316075,0.00463610,0.98944377,0.11417128,-0.06982335,0.05559353
1755639089941,-0.13429046,-0.10653275,0.09261235,-0.06401406,0.00736477,0.03434704,0.98947715,0.11381280,-0.06978211,0.05578588
1755639089976,0.04719715,0.04205777,-0.04354788,-0.01301028,-0.00045452,0.00963431,0.98949324,0.11358512,-0.06979007,0.05595448
1755639090009,0.00890245,0.07441558,0.05286385,-0.01899687,0.00700910,0.02992604,0.98950918,0.11327357,-0.06967512,0.05644526
1755639090019,-0.66022987,0.66650606,0.79077938,0.00874741,0.05410144,0.06014641,0.98950614,0.11331513,-0.06941814,0.05673096
1755639090041,0.27883177,-0.32132413,-0.27723280,-0.00626764,0.02033213,-0.00192829,0.98953114,0.11324555,-0.06919245,0.05670955
1755639090063,0.05127905,-0.00701459,-0.05418164,0.00693232,0.00910226,0.00321713,0.98952734,0.11332250,-0.06909141,0.05674526
1755639090074,0.13018380,-0.12455684,0.03465662,0.00937077,0.02492955,-0.00294769,0.98953189,0.11337357,-0.06895555,0.05672920
1755639090096,-0.02909210,-0.00405749,-0.13027851,0.00102552,0.00480117,0.00178778,0.98953316,0.11338491,-0.06890249,0.05674895
1755639090098,10.36979318,-10.19900537,7.28903820,0.02244429,0.03876566,0.02856644,0.98953172,0.11340623,-0.06886567,0.05677609
1755639090119,-0.85311054,0.94106255,-0.50595306,-0.00794213,-0.00316014,0.00086121,0.98953848,0.11332244,-0.06889901,0.05678518
1755639090129,0.25897926,-0.03226652,0.50178115,-0.02444630,-0.01572270,-0.01303434,0.98955048,0.11320265,-0.06897605,0.05672131
1755639090141,-0.02194521,-0.02999993,-0.14142077,0.00281766,-0.02045189,-0.01287672,0.98954451,0.11321928,-0.06909671,0.05664534
1755639090151,0.11907007,0.23268371,0.19258422,-0.01957624,-0.03517297,-0.02418220,0.98955050,0.11311846,-0.06927785,0.05652080
1755639090163,-0.01147065,-0.03273291,-0.18180146,0.01590872,-0.06273631,-0.01259535,0.98951802,0.11321232,-0.06964800,0.05644649
1755639090174,0.10336316,-0.02666559,0.03091712,0.02290767,-0.01690860,-0.01302713,0.98950129,0.11333717,-0.06974015,0.05637549
1755639090186,-0.14484962,-0.06268817,-0.19104170,0.00015650,-0.03024938,-0.01023460,0.98949187,0.11333811,-0.06992165,0.05631408
1755639090208,-0.10902888,-0.02972022,-0.09170577,0.00340073,-0.01835231,-0.00390044,0.98947574,0.11337551,-0.07012352,0.05627118
1755639090218,0.59012569,-0.27310730,1.17269780,-0.02896724,-0.04240431,-0.03975361,0.98948945,0.11322054,-0.07035039,0.05605849
1755639090229,-0.45880784,0.30625468,-0.48421678,-0.02065108,-0.01945461,-0.01274060,0.98949888,0.11310593,-0.07045836,0.05598778
1755639090254,-0.10143658,0.03364237,-0.21725216,-0.00688058,-0.00609372,-0.00210574,0.98950477,0.11301992,-0.07053453,0.05596146
1755639090275,0.07802940,-0.00781156,0.31042275,-0.01153733,-0.01547322,-0.00763539,0.98951125,0.11290397,-0.07069004,0.05588473
1755639090285,-0.07381315,0.21804543,0.47602724,-0.06452162,-0.02505198,0.00952501,0.98953786,0.11256200,-0.07082281,0.05593521
1755639090297,-0.23954320,-0.05276323,-0.75024379,-0.02236389,-0.02508797,0.00422896,0.98954090,0.11242782,-0.07097334,0.05596058
1755639090332,0.02994629,-0.09687476,-0.08633347,-0.01169506,-0.00768149,-0.01367172,0.98956759,0.11222608,-0.07110585,0.05572475
1755639090363,0.03414865,-0.08707946,0.23231717,-0.02873501,-0.03862023,0.00964876,0.98956637,0.11177925,-0.07170639,0.05587478
1755639090374,-0.29847191,1.02937344,1.39497198,0.07826660,-0.01823531,0.05904984,0.98949131,0.11221363,-0.07180760,0.05620251
1755639090398,-0.02964382,-0.16902083,-0.77428423,-0.03329346,0.00745711,-0.02805681,0.98956121,0.11181910,-0.07171923,0.05587004
1755639090444,0.04769002,-0.07469006,-0.09611347,-0.01568959,0.00241765,-0.00512849,0.98961248,0.11145903,-0.07166374,0.05575234
1755639090474,-0.03023258,0.06486995,0.56542051,-0.00397837,-0.03523638,0.00410868,0.98957637,0.11139776,-0.07220638,0.05581561
1755639090485,-0.73383381,0.65522886,2.42697165,0.11958204,-0.07987037,0.05649041,0.98945238,0.11205546,-0.07264567,0.05612631
1755639090508,0.22691241,-0.29698767,-1.41182331,0.02476943,0.02727749,0.00819120,0.98943804,0.11233412,-0.07233880,0.05621846
1755639090530,0.00388579,-0.01951976,-0.06384311,0.01961943,0.04248485,-0.01997033,0.98946042,0.11255385,-0.07186297,0.05599479
1755639090564,0.07629865,-0.04562847,-0.26765955,-0.00116595,0.01710978,-0.01198627,0.98949558,0.11253386,-0.07156954,0.05578923
1755639090587,-0.07420026,-0.02469824,0.39915853,0.01960304,0.03693057,-0.01043493,0.98950679,0.11274949,-0.07116330,0.05567444
1755639090610,0.14837008,-0.14957080,-0.00542170,0.00936390,0.00981569,-0.01075003,0.98950961,0.11285858,-0.07104895,0.05554921
1755639090642,0.00200728,0.12167951,-0.10099158,-0.01985863,-0.00726981,0.00370158,0.98953450,0.11253588,-0.07116708,0.05560936
1755639090677,0.01763842,-0.00627670,0.10351656,-0.02238344,-0.02142026,0.00731056,0.98954468,0.11214641,-0.07153979,0.05573656
1755639090713,0.03095091,0.05132906,-0.05516424,0.03691186,-0.01891855,-0.01280654,0.98945792,0.11280713,-0.07187844,0.05550732
1755639090744,-0.00571167,0.01385531,0.09080845,0.03316439,0.01727377,-0.01319545,0.98942969,0.11332781,-0.07160724,0.05530015
1755639090764,-0.02191551,-0.05804210,0.42323730,0.01260762,0.04090559,-0.02531212,0.98945829,0.11345137,-0.07120636,0.05505210
1755639090822,0.00547264,-0.02854019,-0.27185014,-0.01048961,-0.00615329,-0.00493402,0.98948842,0.11314507,-0.07138604,0.05490802
1755639090832,2.35903482,-0.27285642,7.14991109,-0.12105720,-0.23351834,0.04968745,0.98946024,0.11257005,-0.07249525,0.05514404
1755639090877,-0.46364493,0.08932293,-1.39954090,0.00867632,-0.01080567,0.00161944,0.98941804,0.11276570,-0.07273892,0.05518056
1755639090899,-0.15347711,0.11024082,0.22795362,-0.00426315,0.01313410,-0.01155190,0.98944149,0.11271795,-0.07259182,0.05505117
1755639090923,0.10318822,-0.10972767,-0.16499096,0.01564191,0.01924222,-0.00402579,0.98943974,0.11290018,-0.07236765,0.05500427
1755639090944,0.02093846,0.04590497,-0.23961122,0.03206741,0.01026374,0.00016397,0.98940904,0.11323689,-0.07225988,0.05500600
1755639090955,0.35428271,0.12366950,0.77635557,0.06391606,-0.01167040,-0.05626017,0.98938071,0.11359482,-0.07232523,0.05469094
1755639090968,-0.16908423,-0.09820808,-0.41748948,-0.05862521,-0.02826979,-0.05549394,0.98943273,0.11319910,-0.07251605,0.05431635
1755639090981,0.35217886,-0.12699663,-0.07720447,-0.00317549,0.00125980,0.01487296,0.98943034,0.11317814,-0.07250774,0.05441452
1755639090993,-0.08581760,0.08463689,0.06203058,-0.03488816,-0.02255431,0.00882985,0.98944068,0.11298276,-0.07263404,0.05446396
1755639091004,-0.05478135,-0.11282191,-0.09470872,-0.00487410,-0.00623105,0.01369640,0.98943698,0.11295523,-0.07266925,0.05454135
1755639091018,-0.23615939,0.02591986,0.05896116,-0.00248431,-0.00482489,0.00596370,0.98943424,0.11293821,-0.07270230,0.05458220
1755639091021,4.71042612,-0.75564018,9.54038673,0.04760444,-0.07199058,0.05178711,0.98941182,0.11301676,-0.07282108,0.05466765
1755639091033,-1.16546344,0.11000548,-2.57066965,0.02091235,-0.02388057,-0.00233744,0.98938730,0.11314432,-0.07296675,0.05465339
1755639091044,0.11977130,0.05124175,0.38567392,-0.00548724,-0.03599531,-0.01093421,0.98937995,0.11311606,-0.07315213,0.05459708
1755639091055,-0.12246981,-0.08768008,-0.25799522,-0.00598596,-0.02270771,-0.00809140,0.98937681,0.11308194,-0.07328156,0.05455096
1755639091066,0.00840291,0.10637018,0.02507535,-0.00991407,0.00270935,0.01053087,0.98938103,0.11302642,-0.07326639,0.05460993
1755639091078,0.07786780,0.19277542,-0.20624445,-0.00069539,0.02234450,0.01152941,0.98938755,0.11302229,-0.07313344,0.05467853
1755639091089,0.00346490,0.15635364,-0.02869918,0.01411283,0.02233697,0.00209794,0.98938713,0.11309779,-0.07301394,0.05468975
1755639091100,0.00387394,0.01096743,-0.01556554,0.01431394,0.02009705,-0.01146486,0.98938983,0.11317866,-0.07290039,0.05462498
1755639091111,-0.10829570,-0.12276624,0.11576437,0.00626969,0.01193719,-0.02511208,0.98939857,0.11321409,-0.07283294,0.05448309
1755639091122,0.10791887,-0.01542086,0.07696862,0.01098585,0.02171040,-0.01881048,0.98940599,0.11327341,-0.07271571,0.05438152
1755639091133,-0.04196225,0.11065264,-0.13154254,0.02499291,0.00732622,-0.02306991,0.98940017,0.11341087,-0.07267541,0.05425463
1755639091148,-0.10107135,-0.08925089,-0.18658545,0.02617204,-0.00151533,-0.01193672,0.98938221,0.11360193,-0.07268648,0.05416750
1755639091184,-0.07350837,-0.03468050,-0.12753750,0.00178644,0.00031024,-0.01397130,0.98939261,0.11363390,-0.07268092,0.05391741
1755639091196,1.55173121,0.15502323,1.33715560,0.03579097,-0.01655745,-0.01015046,0.98936346,0.11385223,-0.07278192,0.05385549
1755639091214,-0.69553221,-0.09333140,-0.68347977,0.02197242,-0.02027562,0.01029338,0.98932127,0.11405438,-0.07296846,0.05395019
1755639091242,-0.15258514,0.00073268,-0.12264755,0.02420936,-0.01568789,0.00781283,0.98926038,0.11439089,-0.07318652,0.05405879
1755639091244,38.95142096,5.29462914,30.21655323,0.01046845,-0.31075396,-0.02249698,0.98923736,0.11440135,-0.07349727,0.05403629
1755639091267,-3.30060678,-0.58466336,-2.58795614,-0.01808152,-0.01088695,0.00266871,0.98925034,0.11419432,-0.07362193,0.05406685
1755639091278,-0.08750991,0.02385303,-0.02892406,-0.04244101,-0.00453949,-0.01144370,0.98928065,0.11394604,-0.07364849,0.05399990
1755639091290,-0.08678048,0.01034803,-0.14919356,-0.05220287,0.01085184,-0.00794861,0.98932123,0.11365370,-0.07358772,0.05395539
1755639091302,-0.06934333,-0.01783077,-0.10790846,-0.02309058,0.00084848,-0.00126351,0.98933890,0.11350708,-0.07358233,0.05394737
1755639091315,0.12475703,-0.10854817,0.03577427,-0.00549619,0.00029137,-0.01843428,0.98934909,0.11347328,-0.07358054,0.05383400
1755639091329,0.01350920,0.05467468,-0.00531072,-0.01473887,0.00063899,-0.00447541,0.98936295,0.11337011,-0.07357606,0.05380267
1755639091339,0.06761981,0.10343034,0.08140854,-0.02551755,-0.01327525,-0.01835091,0.98937864,0.11323359,-0.07364709,0.05370449
1755639091341,18.41712688,-5.31435205,5.59322229,-0.09753111,-0.00343635,-0.02071807,0.98938946,0.11314581,-0.07365018,0.05368585
1755639091355,-2.39974088,0.64394667,-0.76816407,-0.02910048,-0.01576291,0.00916881,0.98940120,0.11293920,-0.07376209,0.05375094
1755639091370,0.02222933,-0.06432324,0.01464069,-0.03420693,0.00196514,0.00589315,0.98942877,0.11268606,-0.07374755,0.05379455
1755639091381,0.11707105,-0.18056516,0.17463905,-0.05350984,-0.01130795,-0.00650073,0.98945983,0.11238908,-0.07381031,0.05375847
1755639091404,-0.13371272,0.08420756,-0.06207490,-0.02652313,-0.00734220,-0.00118338,0.98948836,0.11208937,-0.07389328,0.05374510
1755639091406,19.60814058,-14.06416136,14.53815601,-0.26405952,-0.26959202,-0.12213921,0.98950794,0.11177250,-0.07421679,0.05359854
1755639091443,-1.31180910,0.96132358,-0.96740832,0.00094498,-0.00672775,0.00075779,0.98949590,0.11178994,-0.07434092,0.05361252
1755639091454,1.17968534,-0.23333265,1.41473589,-0.01488893,-0.07926916,0.01001824,0.98946858,0.11170581,-0.07478879,0.05366912
1755639091487,-0.41439196,0.10523388,-0.47255534,0.01171091,-0.00093780,0.01548179,0.98943214,0.11189670,-0.07480407,0.05392147
1755639091497,0.58018794,1.23065359,-0.04924836,0.02495601,0.01055521,0.02403262,0.98941612,0.11201649,-0.07475341,0.05403683
1755639091531,-0.18317944,-0.30077315,-0.02205956,0.02073120,0.00612689,-0.01764377,0.98940035,0.11236892,-0.07464925,0.05373689
1755639091542,0.43120642,0.08708734,1.15540182,-0.02031730,0.03247546,-0.07040114,0.98944916,0.11225311,-0.07446414,0.05333560
1755639091575,-0.15731364,-0.05242913,-0.32195004,0.00787106,0.01679445,0.02464658,0.98943304,0.11238456,-0.07418367,0.05374720
1755639091595,0.08256136,0.00285531,-0.04820481,0.00400330,0.01210811,0.02738652,0.98942264,0.11242459,-0.07406259,0.05402106
1755639091608,0.10978882,-0.17485278,0.11706790,-0.00694939,0.00235055,0.00356950,0.98942731,0.11238255,-0.07404837,0.05404266
1755639091640,-0.08011873,0.02909246,-0.04534394,0.00313478,0.00580459,-0.00054459,0.98942908,0.11243412,-0.07395289,0.05403370
1755639091664,0.05335892,0.09796403,0.03642542,0.03863196,0.01999884,0.00851830,0.98938912,0.11289190,-0.07371590,0.05413464
1755639091675,0.78496985,0.20792421,0.49683369,0.06010041,0.00451922,-0.03866542,0.98936592,0.11320743,-0.07369217,0.05393165
1755639091710,-0.27636390,-0.13928303,-0.20265245,0.00203033,-0.00853391,-0.01114796,0.98936142,0.11324225,-0.07383853,0.05374046
1755639091731,0.16332911,0.00072494,-0.03575627,-0.01809652,-0.01637853,-0.00997154,0.98937682,0.11304138,-0.07402033,0.05362978
1755639091752,-0.01921890,-0.00599651,-0.05079925,0.00279811,-0.01886857,0.00157903,0.98935799,0.11307034,-0.07421562,0.05364612
1755639091776,0.01425462,0.03138826,0.01025209,-0.00816885,-0.01822221,0.00540633,0.98934913,0.11297109,-0.07443702,0.05371181
1755639091814,0.01485273,0.01203435,-0.03413866,0.00110387,-0.02080467,0.00531096,0.98931193,0.11299179,-0.07482711,0.05381139
1755639091827,0.58943466,-0.44129330,-0.52609720,-0.05250638,-0.03174392,0.01437788,0.98933041,0.11264524,-0.07503662,0.05390628
1755639091882,-0.20616524,0.06687547,0.12322664,-0.00798410,-0.00140309,-0.00109815,0.98935402,0.11242648,-0.07507506,0.05387619
1755639091916,0.03328797,0.00072773,-0.19910393,-0.01538994,-0.00337936,-0.01288818,0.98939115,0.11216562,-0.07513234,0.05365774
1755639091930,0.13354163,-0.23980594,-0.53672885,-0.07382570,-0.02027777,0.01814746,0.98943337,0.11163038,-0.07527936,0.05378930
1755639091964,-0.04193163,0.07672827,0.22758008,-0.00643185,-0.01482066,0.00600855,0.98942094,0.11152104,-0.07553131,0.05389145
1755639092007,-0.01069522,0.01804029,0.08117003,-0.01852789,-0.00782305,-0.00454145,0.98945839,0.11112084,-0.07570029,0.05379335
1755639092018,0.78424586,-1.58551392,-2.40074264,-0.25952421,-0.05068658,0.09944714,0.98956057,0.10977131,-0.07596386,0.05431048
1755639092041,-0.36923617,0.44189688,0.73988745,-0.07633184,-0.00431774,0.02636153,0.98963838,0.10887823,-0.07601437,0.05461891
1755639092086,-0.03126820,0.04288877,0.14029729,-0.07132736,-0.01128950,-0.01875152,0.98981846,0.10726267,-0.07627008,0.05419419
1755639092097,-0.49579764,-4.53635804,-4.14046958,-0.48225476,-0.12106715,0.01147606,0.99002888,0.10482728,-0.07688147,0.05425214
1755639092142,0.08468236,1.01509730,0.91089671,-0.04644905,-0.00811704,0.01106219,0.99011220,0.10376824,-0.07706654,0.05450436
1755639092153,-0.32971061,-1.94840944,-3.25972997,-0.31966731,-0.02108381,0.03634610,0.99027923,0.10196212,-0.07718566,0.05470972
1755639092197,0.08138912,0.48451623,0.84824327,-0.07081038,-0.00714689,0.01182752,0.99040933,0.10043262,-0.07734004,0.05496519
1755639092208,0.11287600,-2.59007111,-2.62134770,-0.27610150,-0.01618842,0.02064736,0.99055391,0.09885884,-0.07743231,0.05508288
1755639092230,-0.06883217,1.18092377,1.00213468,-0.10434510,-0.00313140,0.00655177,0.99065963,0.09772670,-0.07746629,0.05515397
1755639092254,0.01405669,0.14139400,0.23907916,-0.06561693,0.00302468,0.00099414,0.99073884,0.09694257,-0.07743014,0.05516585
1755639092285,-0.00866326,-0.00303515,0.02359066,-0.08677749,0.00314163,-0.00933516,0.99088503,0.09556281,-0.07738019,0.05501742
1755639092297,-0.14304588,-1.02135012,-1.62143589,-0.20238295,0.00502395,-0.00906836,0.99100777,0.09433839,-0.07734979,0.05496255
1755639092319,0.03325390,0.66514248,0.71005995,-0.05024748,0.00374535,0.00749144,0.99105794,0.09379572,-0.07730934,0.05504346
1755639092341,0.01169658,0.12530280,0.15240399,-0.02370625,0.00319054,0.00430714,0.99108247,0.09353732,-0.07727457,0.05509041
1755639092353,-0.13270329,-0.39651904,-0.86179250,-0.07836494,-0.00437205,0.00689930,0.99112305,0.09305930,-0.07730124,0.05513250
1755639092364,0.01102534,-0.50771520,-0.05399227,-0.13732562,0.00583503,0.01896177,0.99118732,0.09233834,-0.07727060,0.05523204
1755639092408,0.04953891,0.25061473,0.41867837,-0.01801812,0.00043035,0.00255394,0.99122170,0.09194284,-0.07726116,0.05528810
1755639092448,-0.04000707,-0.00206749,-0.18560907,-0.00196905,0.01685640,0.00684470,0.99124392,0.09190346,-0.07692403,0.05542500
1755639092479,-0.02448461,0.03792531,-0.07123423,-0.00902953,0.01243403,-0.00897522,0.99128017,0.09176124,-0.07672819,0.05528364
1755639092522,0.00985047,0.17631827,0.19072815,0.07766137,0.00615892,0.00431681,0.99112960,0.09342708,-0.07659608,0.05537623
1755639092542,-0.10122088,0.72490119,-0.10171565,0.15387406,-0.00592138,0.03780481,0.99096104,0.09493505,-0.07665411,0.05574672
1755639092585,0.07339220,-0.40225297,0.13798129,0.02983446,-0.02126551,-0.00830910,0.99087293,0.09558395,-0.07711664,0.05556600
1755639092597,-0.41352204,0.94115324,0.63503690,0.14247961,-0.07445494,0.08501895,0.99073260,0.09640320,-0.07754475,0.05605486
1755639092619,0.09022757,-0.41532124,-0.20178103,0.06009767,-0.00730586,0.01798222,0.99065017,0.09706728,-0.07762548,0.05625356
1755639092642,-0.04674652,-0.08873994,0.03881728,-0.00584133,-0.00798635,-0.04231130,0.99067718,0.09699981,-0.07771773,0.05576486
1755639092663,0.06436433,-0.07161181,-0.01083557,0.00892128,-0.00588731,0.02045647,0.99065091,0.09709393,-0.07777984,0.05598068
1755639092675,-0.39322116,0.16374014,0.38396973,0.00500327,0.00480398,0.02430940,0.99064198,0.09712395,-0.07775101,0.05612654
1755639092695,-0.00046744,-0.06916188,-0.07189836,0.02207423,0.00214235,0.01830916,0.99061130,0.09734690,-0.07772938,0.05631146
1755639092707,-0.20897168,-0.09117951,0.14486972,0.05760236,-0.00248212,0.03440777,0.99056592,0.09768100,-0.07774377,0.05651102
1755639092719,0.29538911,0.10412808,-0.20231050,0.03639091,-0.00340930,-0.00466711,0.99054345,0.09790844,-0.07776508,0.05648185
1755639092731,-0.07817422,0.05463037,-0.00444478,0.03487194,-0.00742761,-0.00355781,0.99052066,0.09811593,-0.07780927,0.05646069
1755639092742,-0.10646263,0.07356022,-0.04105287,0.06295999,0.00305102,0.02280086,0.99048119,0.09845591,-0.07779280,0.05658381
1755639092754,0.16396667,0.11507131,-0.08059590,0.05901891,0.04164288,0.03248971,0.99045459,0.09880707,-0.07754502,0.05677712
1755639092785,0.14006249,-0.10148243,-0.10015827,0.01987683,0.01130815,0.01160168,0.99042710,0.09911616,-0.07736918,0.05695753
1755639092797,-2.19294722,1.39258882,0.93339359,0.14531546,0.09422985,0.03379043,0.99037271,0.09997352,-0.07681323,0.05715689
1755639092808,1.01380096,-1.03064437,-0.50721438,0.01697941,0.08106263,0.01786864,0.99039366,0.10007455,-0.07633090,0.05726321
1755639092843,0.37860434,-0.16624331,-0.16962727,0.00745941,0.01780650,0.00616237,0.99039807,0.10020173,-0.07602730,0.05736828
1755639092852,-2.01002111,0.59578737,0.19071781,0.08691477,0.09582639,-0.01340058,0.99039470,0.10061892,-0.07556734,0.05730396
1755639092875,0.90223489,-0.19893501,-0.09475644,0.01645366,0.01884220,0.01019449,0.99038510,0.10080978,-0.07534877,0.05742221
1755639092887,-0.10451582,0.29221375,0.08420873,0.05839078,0.03616534,0.02671185,0.99035727,0.10115137,-0.07513720,0.05757848
1755639092907,0.15364574,-0.16033389,-0.05274858,0.00810591,0.00315762,0.01171747,0.99034450,0.10123283,-0.07510546,0.05769624
1755639092910,-2.48303263,1.61169773,-1.49891349,-0.07774465,-0.01088754,0.02387396,0.99035309,0.10111622,-0.07512180,0.05773205
1755639092967,0.13819830,-0.12872632,0.06990183,0.00250972,0.00116518,0.00174808,0.99034541,0.10118762,-0.07508865,0.05778178
1755639092988,0.09330368,-0.22047569,-0.22072290,-0.02640991,-0.05024057,0.00196171,0.99033249,0.10091296,-0.07561115,0.05780218
1755639093019,-0.03106666,0.11144809,0.06508571,-0.01153546,-0.01294117,-0.00030336,0.99033569,0.10073070,-0.07581562,0.05779739
1755639093040,0.01144997,-0.03531890,-0.07851765,-0.04694351,0.00088812,-0.01268250,0.99039307,0.10024718,-0.07580647,0.05766676
1755639093054,0.10869451,-0.07481003,-0.15780264,-0.00994609,-0.00160283,0.00231529,0.99039812,0.10018004,-0.07581729,0.05768239
1755639093095,-0.06649513,0.06532817,0.12707321,0.00259055,-0.00211703,-0.00087110,0.99039033,0.10023405,-0.07586143,0.05766423
1755639093107,-0.34618949,0.07232958,-0.30778265,0.05342807,0.00382235,0.02827601,0.99035174,0.10053859,-0.07583964,0.05782540
1755639093131,0.21205217,-0.02497617,0.08446799,0.00884149,0.00868122,0.00644784,0.99034438,0.10064513,-0.07573503,0.05790310
1755639093154,-0.02234197,0.00048718,0.05105920,-0.00754955,0.00564647,-0.00375906,0.99036055,0.10055907,-0.07567066,0.05786024
1755639093176,0.00379080,-0.00811937,-0.03314714,0.00612772,0.00237116,0.01119614,0.99034811,0.10062862,-0.07564375,0.05798732
1755639093178,2.48365558,0.21732895,-11.03398698,0.06364392,0.25535451,0.00031464,0.99035915,0.10068272,-0.07542670,0.05798759
1755639093200,-0.16597186,-0.01488865,0.88306793,0.01430638,0.01264970,0.00710087,0.99034910,0.10084080,-0.07528692,0.05806605
1755639093211,0.07502074,-0.07052457,-0.14160952,-0.00425670,0.00906304,-0.02935305,0.99036487,0.10081718,-0.07523662,0.05790314
1755639093221,0.13570528,0.07317947,0.23300583,-0.03222820,0.01441834,-0.05910693,0.99040397,0.10065604,-0.07516453,0.05760761
1755639093235,-0.05254940,0.08265583,0.05692852,-0.01382551,-0.00917028,-0.00342007,0.99041032,0.10055926,-0.07522872,0.05758367
1755639093245,0.18470342,0.11450135,-0.02776633,-0.00205310,-0.01397508,0.01208433,0.99040261,0.10054910,-0.07529790,0.05764349
1755639093256,-0.14062977,0.00381719,0.03591105,-0.00028428,-0.01208521,0.00510232,0.99039638,0.10054760,-0.07536135,0.05767027
1755639093265,0.05776854,-0.02206152,-0.00909700,0.00550080,-0.01273261,0.01514294,0.99038505,0.10057346,-0.07542119,0.05774144
1755639093277,0.07142105,-0.10766858,0.26780976,-0.00851357,-0.00659762,0.02582409,0.99037846,0.10052450,-0.07545913,0.05788993
1755639093289,-0.00949230,-0.15493756,0.00028315,-0.01103888,-0.01801599,0.00881452,0.99037369,0.10045606,-0.07557082,0.05794458
1755639093299,0.10250292,-0.10284326,0.19159236,-0.03040077,-0.04111553,-0.00195350,0.99037396,0.10030710,-0.07577229,0.05793501
1755639093310,0.00483899,0.14282313,-0.10020041,-0.02011796,-0.02858815,-0.01772687,0.99037873,0.10019846,-0.07592667,0.05783929
1755639093322,-0.04900459,0.11095000,0.01109426,0.00007814,-0.00533997,0.00472560,0.99037450,0.10019894,-0.07595924,0.05786811
1755639093333,-0.00069712,0.11005731,-0.13070939,0.04228435,-0.01614957,0.00392553,0.99034114,0.10044419,-0.07605291,0.05789088
1755639093345,-0.01815220,0.22582238,0.10648876,0.03579701,0.00069510,0.00120137,0.99032014,0.10065002,-0.07604891,0.05789779
1755639093356,0.01411287,-0.12067034,-0.05707357,0.07915755,0.00860906,-0.00168635,0.99028071,0.10107747,-0.07600242,0.05788868
1755639093366,-0.00553508,-0.05162602,0.07330853,-0.00000983,0.00403900,-0.02613762,0.99029017,0.10107742,-0.07598162,0.05775407
1755639093378,0.04301565,-0.10870051,0.11276337,-0.00499749,0.00469435,-0.01399070,0.99030028,0.10104744,-0.07595346,0.05767013
1755639093389,0.04677653,-0.08302540,-0.01978553,0.00290949,0.00603247,-0.02543929,0.99030982,0.10106431,-0.07591847,0.05752258
1755639093400,0.10675718,0.02541508,0.04484434,0.00879425,0.00558674,-0.02910860,0.99031604,0.10110916,-0.07588997,0.05737413
1755639093411,-0.17216859,0.11071098,-0.10250209,0.00657083,0.00071695,-0.03905848,0.99032573,0.10114793,-0.07588574,0.05714368
1755639093422,-0.01090949,0.12241414,-0.07461042,0.02218933,-0.02144118,-0.03052250,0.99031453,0.10126331,-0.07599724,0.05698496
1755639093432,0.07865604,0.00342716,0.06874538,0.03369944,-0.01554972,-0.00575584,0.99029276,0.10143350,-0.07607576,0.05695590
1755639093443,0.03476232,-0.05939078,0.10709103,0.00607678,-0.00826165,0.00422566,0.99028473,0.10146601,-0.07611996,0.05697851
1755639093455,-0.12459780,-0.05456769,-0.01415818,0.00554173,-0.00877685,-0.00666257,0.99027940,0.10150037,-0.07617438,0.05693720
1755639093465,-0.00395094,-0.08424746,-0.05043792,0.01374156,-0.01969897,0.00560278,0.99026268,0.10157113,-0.07627583,0.05696605
1755639093476,0.04342535,-0.10631559,0.06175200,0.00197359,-0.01167699,0.00078359,0.99025637,0.10158199,-0.07634005,0.05697036
1755639093487,0.03940803,-0.04433403,-0.06699365,0.01597881,-0.01547504,-0.00189959,0.99024138,0.10166987,-0.07642517,0.05695991
1755639093498,-0.04459756,0.05509657,0.03649567,0.02034905,-0.01081766,-0.00910174,0.99022841,0.10177976,-0.07648358,0.05691076
1755639093509,-0.18922109,0.20449676,-0.07102831,0.02142616,-0.00613640,-0.00429183,0.99021480,0.10189974,-0.07651795,0.05688673
1755639093521,0.03082113,-0.02332988,0.01275041,0.03439629,0.01128048,0.00195088,0.99019837,0.10210268,-0.07645139,0.05689824
1755639093533,-0.08275460,0.04154852,-0.00306763,0.02113659,-0.00264520,-0.00860407,0.99018712,0.10222844,-0.07646713,0.05684705
1755639093545,0.00893819,-0.06378685,-0.00139375,0.00969762,0.00365289,-0.01046236,0.99018644,0.10228421,-0.07644613,0.05678689
1755639093556,-0.07239331,-0.06956876,-0.01497845,0.01126255,0.00374021,-0.01157200,0.99018520,0.10235009,-0.07642425,0.05671919
1755639093566,0.04994690,-0.11487363,0.06157430,-0.00599436,0.01201858,-0.00811910,0.99019506,0.10232072,-0.07636535,0.05667941
1755639093577,0.15901385,0.02383909,-0.02511657,-0.01590724,0.01424292,-0.00881814,0.99021226,0.10223641,-0.07628987,0.05663267
1755639093588,-0.01232266,-0.03781603,-0.06043642,-0.02062497,0.01571675,-0.00853937,0.99023407,0.10211885,-0.07620028,0.05658400
1755639093599,-0.03994984,-0.00324379,0.03505570,-0.02389246,0.00984399,-0.00541745,0.99025260,0.10199341,-0.07614860,0.05655556
1755639093610,-0.19871590,-0.00001687,-0.01074915,-0.00191359,0.00758385,-0.00677721,0.99025936,0.10198231,-0.07610461,0.05651625
1755639093622,-0.00372359,0.20060851,-0.00466950,0.01183586,0.00016282,-0.00253178,0.99025315,0.10205155,-0.07610366,0.05650144
1755639093632,-0.03759509,0.14339869,0.03162222,0.04201318,-0.00129778,-0.00068276,0.99023095,0.10226372,-0.07611022,0.05649799
1755639093643,-0.00284697,0.07948401,-0.00467716,0.02816135,-0.00373511,0.01305478,0.99020868,0.10242283,-0.07613132,0.05657175
1755639093654,-0.05154431,-0.10962756,0.01243271,0.02208526,0.00295827,0.01297235,0.99019328,0.10254430,-0.07611505,0.05664310
1755639093676,0.00131289,-0.11145503,-0.09122245,0.00581138,0.00335230,-0.00092396,0.99019014,0.10260677,-0.07607901,0.05663316
1755639093686,-0.28263722,-0.20880956,0.92883040,-0.01886037,-0.00303824,-0.00973237,0.99020209,0.10250776,-0.07609496,0.05658207
1755639093727,0.07878052,0.02726462,-0.25495188,-0.00395664,-0.00232830,-0.00174564,0.99020880,0.10242744,-0.07614223,0.05654663
1755639093755,-0.06616666,-0.06688106,0.29563399,-0.01332225,-0.01020643,-0.00583154,0.99022150,0.10224426,-0.07628257,0.05646645
1755639093774,-0.09321914,0.28588867,-0.12386300,0.03985327,0.00954882,0.01301055,0.99017999,0.10264478,-0.07618660,0.05659720
1755639093807,0.05662720,-0.16926940,-0.13974649,0.02562340,0.01461392,0.00970144,0.99014585,0.10306244,-0.07594839,0.05675534
1755639093841,-0.03726088,-0.01814825,0.07658291,-0.04546062,0.00177210,-0.03562941,0.99026077,0.10230325,-0.07591880,0.05616033
1755639093853,-0.48625102,0.49135150,0.65301553,0.02014163,0.00706018,0.06826226,0.99022767,0.10242611,-0.07587573,0.05657673
1755639093875,0.21983762,-0.13204123,-0.29153294,-0.00177091,-0.01214656,0.03036370,0.99019980,0.10240628,-0.07601177,0.05691680
1755639093896,-0.03978877,-0.00531108,0.28468094,-0.04207785,-0.01432611,-0.00476026,0.99023583,0.10197498,-0.07615862,0.05686801
1755639093917,0.11885548,-0.03130523,-0.35450332,-0.00564717,0.00439687,0.01290858,0.99023773,0.10191428,-0.07611135,0.05700677
1755639093929,-0.20984912,0.16076189,0.16425987,0.00983491,0.00843248,0.01032097,0.99023188,0.10197427,-0.07605991,0.05706973
1755639093940,0.00787771,0.01185270,0.03429334,0.04318909,0.03155028,0.00950670,0.99021847,0.10219885,-0.07589585,0.05711917
1755639093950,-0.02279908,-0.09166801,-0.06029962,0.01828824,0.01847206,0.00438677,0.99021454,0.10229761,-0.07579610,0.05714286
1755639093963,0.09884423,-0.09643660,-0.07844502,-0.00273950,0.01942266,-0.00166234,0.99022601,0.10228076,-0.07567665,0.05713263
1755639093975,-0.02184849,-0.00546212,0.02987643,-0.02097778,0.01735017,-0.00909315,0.99025150,0.10214755,-0.07556648,0.05707489
1755639093996,0.05381099,-0.05943892,-0.10311320,-0.00363796,0.01506379,-0.00016623,0.99026699,0.10211081,-0.07541433,0.05707321
1755639093997,-58.81216435,-18.63864581,77.08979799,0.00528047,0.18175864,-0.05485227,0.99027850,0.10211450,-0.07528710,0.05703482
1755639094017,4.11465453,1.44224509,-5.23476142,-0.00108028,0.00369934,-0.00332665,0.99028440,0.10210359,-0.07524974,0.05700122
1755639094041,0.04730564,-0.01277802,-0.08435894,0.01129932,-0.00107227,0.00497145,0.99026638,0.10223636,-0.07526234,0.05705963
1755639094050,-0.67672453,0.04182309,2.08359922,0.02819352,-0.00199238,0.03315293,0.99024299,0.10236887,-0.07527170,0.05721545
1755639094063,0.40681577,-0.13148342,-1.00470586,-0.00910212,-0.01503318,0.01111700,0.99023766,0.10231153,-0.07536641,0.05728549
1755639094073,-0.02134414,0.10015473,0.09483761,0.00436041,-0.03272320,0.00645612,0.99022108,0.10233333,-0.07553003,0.05731777
1755639094084,0.15108938,0.21700715,-0.18638485,0.03875920,-0.03378575,0.01541594,0.99017954,0.10254844,-0.07571754,0.05740333
1755639094095,-0.05418164,0.04063623,-0.18576563,0.04907444,-0.01794679,0.01175251,0.99013989,0.10282081,-0.07581714,0.05746855
1755639094106,-0.08127246,-0.00677271,0.12190870,0.03789115,0.00245993,0.00888791,0.99011621,0.10303110,-0.07580349,0.05751788
1755639094118,-0.07153360,-0.14815421,-0.13605467,0.01969544,-0.00815257,0.01804767,0.99009368,0.10315026,-0.07585281,0.05762707
1755639094131,0.00653227,-0.01431930,0.02737755,0.00284004,0.01298392,-0.00069949,0.99009830,0.10316801,-0.07577166,0.05762270
1755639094140,-0.11288390,-0.21053522,0.38979104,0.00740054,0.03317779,0.01028264,0.99010401,0.10320427,-0.07560909,0.05767308
1755639094142,-17.88139343,-1.55901498,29.69398486,0.09357050,0.06147381,-0.00917385,0.99010039,0.10327913,-0.07555991,0.05766574
1755639094152,2.90896513,0.22936132,-5.14374338,0.00242153,0.02641004,-0.00048517,0.99010907,0.10329087,-0.07543182,0.05766339
1755639094162,0.01548492,0.02383571,-0.07875187,0.00321088,0.02677355,0.00078819,0.99011735,0.10330693,-0.07529796,0.05766733
1755639094207,0.09061971,0.02456936,-0.14777191,-0.00012798,0.01007340,0.00086179,0.99013377,0.10330404,-0.07507080,0.05768676
1755639094218,-0.72651575,0.68845690,1.77060858,0.03565555,0.03682421,0.02929775,0.99011870,0.10350728,-0.07486090,0.05785376
1755639094231,0.45989158,-0.66733296,-0.83951786,-0.00403172,-0.01773134,0.00822626,0.99010973,0.10348147,-0.07497438,0.05790641
1755639094252,0.14274366,-0.03267865,-0.28177048,-0.00879271,-0.01335509,0.00576950,0.99010520,0.10338915,-0.07511461,0.05796699
1755639094275,0.00839990,0.05653176,0.00822118,0.00203720,-0.01077064,0.00244006,0.99009165,0.10341268,-0.07523901,0.05799517
1755639094285,0.41819911,0.57513896,0.12965884,0.06808757,-0.02889177,0.00384117,0.99004535,0.10374291,-0.07537914,0.05801380
1755639094296,0.02423364,-0.02749992,0.10903032,0.07446384,-0.00326228,0.00488334,0.99000024,0.10414501,-0.07539676,0.05804017
1755639094317,-0.19140035,-0.27584059,-0.25882991,-0.00806038,-0.00207466,-0.00385560,0.99001022,0.10405715,-0.07541937,0.05799815
1755639094330,-0.01888822,-0.12735416,0.09967904,-0.02763763,0.00309114,0.01064681,0.99002644,0.10387889,-0.07539943,0.05806682
1755639094341,0.03052179,-0.14418585,0.03264717,-0.02863890,0.01282927,0.00849454,0.99004436,0.10373140,-0.07533336,0.05811056
1755639094351,0.00848214,0.04992183,-0.05525991,-0.02109541,0.00888933,-0.00900363,0.99006229,0.10362065,-0.07528669,0.05806329
1755639094364,0.05073739,0.17789763,-0.11786167,-0.00733153,0.00123949,0.00497452,0.99006590,0.10357409,-0.07527882,0.05809488
1755639094385,-0.00953581,0.03945705,-0.05708896,0.00459246,0.00153854,0.00006245,0.99006195,0.10362346,-0.07526228,0.05809555
1755639094396,-0.08404765,-0.05987260,-0.01360988,0.02598542,-0.00809144,-0.07382977,0.99006715,0.10376118,-0.07530517,0.05770426
1755639094407,0.08972005,0.04500714,0.07403981,-0.02037187,0.00133783,-0.01334780,0.99008433,0.10364506,-0.07529754,0.05762817
1755639094418,0.11570031,-0.15343879,-0.00960447,-0.01168245,0.00181100,0.00357459,0.99009043,0.10358315,-0.07528794,0.05764712
1755639094431,-0.03530899,-0.01229362,0.03767024,-0.01004233,0.00854980,0.01057963,0.99009737,0.10351888,-0.07523322,0.05771483
1755639094453,-0.03291837,0.05149676,-0.03194530,-0.00693973,0.00615552,0.00593881,0.99010655,0.10344358,-0.07516644,0.05777927
1755639094475,0.05116862,-0.05182267,0.02335189,-0.00365798,-0.00121025,0.00743433,0.99010492,0.10340206,-0.07518017,0.05786364
1755639094485,0.33085427,0.08292254,0.30952889,-0.04958082,0.00498444,-0.01985866,0.99013813,0.10315664,-0.07515550,0.05776534
1755639094497,-0.23521781,0.02315991,-0.29854568,-0.01644954,0.01305329,0.00662719,0.99015215,0.10305712,-0.07507653,0.05780544
1755639094507,0.28251829,-0.19895368,0.41298041,-0.02841611,0.02915033,-0.01172064,0.99018022,0.10292072,-0.07493661,0.05774918
1755639094519,-0.06371128,0.02613018,-0.04209368,-0.02211070,0.00333991,-0.01041078,0.99019884,0.10279027,-0.07491690,0.05768776
1755639094529,0.08774485,-0.02385982,0.11036933,-0.02212696,-0.00433532,-0.00604290,0.99021125,0.10267189,-0.07494009,0.05765543
1755639094540,-0.04861551,0.13123887,0.05224326,-0.04049532,-0.02911362,-0.02221060,0.99022929,0.10244916,-0.07510022,0.05753327
1755639094553,0.07208423,0.04598783,0.04387854,-0.01807822,-0.01519968,-0.02178311,0.99024176,0.10233527,-0.07519598,0.05739603
1755639094574,-0.10302373,0.01879843,-0.14957141,0.00594658,-0.01588617,-0.00348125,0.99022467,0.10239801,-0.07536358,0.05735931
1755639094584,0.42674583,0.63041134,1.09462280,0.00215198,-0.03425451,-0.04135502,0.99022255,0.10240834,-0.07552800,0.05716080
1755639094586,5.51096664,7.44314028,11.96300524,0.08007735,-0.11923426,-0.14798369,0.99021281,0.10249642,-0.07565916,0.05699802
1755639094618,-0.56514347,-0.65312171,-1.18163668,0.01064413,-0.00520240,-0.00289033,0.99019146,0.10266673,-0.07574239,0.05695178
1755639094629,0.99267248,0.55289111,1.11125277,0.07328967,-0.02726522,-0.02119662,0.99014225,0.10309181,-0.07590053,0.05682884
1755639094641,-0.59888139,-0.40796580,-0.61659977,0.04881626,-0.02053757,-0.02277334,0.99011116,0.10337494,-0.07601965,0.05669675
1755639094651,-0.00910126,0.00251123,0.28180348,0.00804532,-0.04832093,-0.02789074,0.99009651,0.10341477,-0.07625884,0.05655869
1755639094663,-0.06586099,-0.16225505,-0.20156357,0.01213470,-0.00980420,-0.01110644,0.99008810,0.10348818,-0.07631815,0.05649150
1755639094674,-0.16193722,0.18697305,0.05002367,0.01904059,-0.01873469,0.00327251,0.99006799,0.10359386,-0.07642213,0.05650966
1755639094686,-0.17181470,0.06818288,-0.10466536,0.03247714,-0.00459077,0.00232613,0.99004505,0.10378547,-0.07644922,0.05652338
1755639094697,0.01705768,0.06087282,0.09429194,0.02167713,-0.00320746,-0.00415355,0.99003214,0.10390795,-0.07646734,0.05649992
1755639094708,0.09874901,-0.00417195,-0.09390725,0.03610303,0.00450751,-0.00750613,0.99001631,0.10409749,-0.07644367,0.05646051
1755639094719,0.03704255,-0.19436282,-0.10681524,0.02363949,-0.01291997,0.00862004,0.98999423,0.10422869,-0.07651538,0.05650835
1755639094740,-0.08578159,-0.08636317,-0.15686636,0.00817175,0.00020366,-0.00701174,0.98998941,0.10431735,-0.07651317,0.05643227
1755639094752,0.18650976,-0.21391603,1.18576554,-0.02308293,0.00393242,-0.01748061,0.99001029,0.10418809,-0.07649115,0.05633438
1755639094763,-0.18754000,0.08096239,-0.66332158,-0.03834919,0.01561569,-0.00281781,0.99003998,0.10397717,-0.07640526,0.05631888
1755639094773,0.06644855,0.06669429,-0.11549859,-0.02072592,0.00131632,-0.00132501,0.99005233,0.10386836,-0.07639835,0.05631193
1755639094784,0.15179180,0.07432215,-0.16781387,0.01346696,0.00714787,-0.00249803,0.99004827,0.10394444,-0.07635797,0.05629781
1755639094796,-0.02106303,0.14150759,-0.00458934,0.02352515,0.00075269,0.00021076,0.99003481,0.10407501,-0.07635379,0.05629898
1755639094817,-0.09596110,-0.05113235,-0.14871625,0.01638667,0.00034239,-0.00296651,0.99001844,0.10425035,-0.07635013,0.05626724
1755639094819,10.73106427,5.64572967,37.30303773,0.14020659,-0.04500818,-0.04048898,0.99000250,0.10439055,-0.07639513,0.05622675
1755639094839,-1.05361333,-0.64784482,-3.59141211,-0.00942586,-0.01315101,-0.00193669,0.99000339,0.10429535,-0.07652796,0.05620719
1755639094850,0.22065619,-0.12742833,0.31771646,-0.01892005,-0.02999087,-0.00284995,0.99000249,0.10419413,-0.07668841,0.05619194
1755639094873,-0.08853906,0.04980322,-0.21352475,0.00020871,-0.01753157,-0.00310063,0.98998844,0.10419656,-0.07689265,0.05615582
1755639094884,0.55764409,-0.40239843,1.06085203,0.04286832,-0.08836767,-0.02365702,0.98993613,0.10441948,-0.07735216,0.05603281
1755639094896,-0.37604229,0.22040578,-0.70495403,-0.01687765,-0.01845286,-0.00535761,0.98994000,0.10431737,-0.07746380,0.05600039
1755639094907,0.00964278,-0.07517121,-0.09911138,0.00964006,0.00280569,-0.00085013,0.98993573,0.10437231,-0.07744781,0.05599555
1755639094919,-0.09075070,0.15624703,-0.08832151,0.01470987,0.00618067,-0.02116048,0.98993648,0.10445837,-0.07741166,0.05587176
1755639094940,-0.06061863,0.05943993,-0.10421506,0.00141326,0.00390830,-0.01187337,0.98994507,0.10447306,-0.07737101,0.05574827
1755639094950,0.37445879,-0.06147454,0.31302681,0.04971932,0.02037174,-0.03748780,0.98993675,0.10473906,-0.07726202,0.05554771
1755639094963,-0.20915813,0.07681450,-0.18031254,-0.00754267,-0.00807289,-0.06118890,0.98995954,0.10469117,-0.07731328,0.05515917
1755639094973,0.05837499,-0.02790847,0.09536544,-0.06195842,0.00443942,-0.03757563,0.99000488,0.10437828,-0.07729086,0.05496941
1755639094985,-0.11416027,-0.04946153,-0.12104530,-0.04474094,-0.01114685,0.02816127,0.99001853,0.10410983,-0.07735775,0.05513838
1755639095005,-0.04569689,0.00968575,-0.03079573,-0.01879540,0.00734968,0.00809028,0.99003950,0.10392188,-0.07728425,0.05521928
1755639095007,7.91049298,-9.24423889,19.88661142,-0.00877939,0.09063537,0.10326275,0.99004151,0.10391398,-0.07720268,0.05531222
1755639095029,-0.61219448,0.74914617,-1.63779910,0.00145369,0.00322245,0.01000596,0.99003653,0.10392968,-0.07716787,0.05542028
1755639095038,0.10752829,-0.03845491,0.17752843,0.00277639,-0.01735330,-0.00448929,0.99002977,0.10394314,-0.07725204,0.05539851
1755639095051,-0.05824405,-0.02722475,-0.03576630,0.00245438,-0.00880825,-0.00825564,0.99002670,0.10395873,-0.07730797,0.05534608
1755639095094,-0.03257210,0.02110950,-0.05783609,-0.00173530,0.00232481,0.00266517,0.99003134,0.10392124,-0.07725775,0.05540365
1755639095105,0.66614648,-0.73852922,1.97676845,-0.05714415,0.07860050,-0.02995919,0.99011056,0.10359267,-0.07680580,0.05523139
1755639095128,-0.25943218,0.49929944,-0.83530199,0.00823355,0.00771404,-0.02585210,0.99012377,0.10368529,-0.07671902,0.05494055
1755639095150,-0.01379033,-0.04141007,-0.07308665,0.01317725,-0.00096352,-0.01035146,0.99011390,0.10383288,-0.07672981,0.05482461
1755639095162,0.16383218,-0.01040945,0.38709080,0.01188435,-0.03234240,-0.03527592,0.99010360,0.10390062,-0.07691416,0.05462354
1755639095173,0.06863543,-0.26546492,-0.07743245,0.00806876,-0.02064090,-0.00564109,0.99009119,0.10394742,-0.07703388,0.05459082
1755639095185,-0.10792410,-0.02285204,-0.17238128,0.02195571,-0.04297748,0.01499484,0.99005326,0.10407586,-0.07728530,0.05467854
1755639095195,0.03912510,0.07127595,0.13155815,0.00839825,-0.01565102,-0.00365235,0.99004374,0.10411785,-0.07736355,0.05466028
1755639095207,-0.14490778,0.18422185,-0.15946822,0.01395775,-0.02866142,0.01735748,0.99001642,0.10419950,-0.07753122,0.05476182
1755639095219,-0.01393344,0.02394810,0.01741680,0.00375275,-0.01760587,0.01532370,0.99000108,0.10422146,-0.07763422,0.05485147
1755639095229,-0.15283242,-0.13274867,-0.05118906,0.00266486,-0.03763321,0.01036420,0.98998127,0.10423531,-0.07782991,0.05490536
1755639095239,-0.05223334,-0.05514443,-0.04273070,-0.00895878,-0.00570422,0.01056223,0.98998078,0.10418828,-0.07785986,0.05496081
1755639095250,-0.08393187,-0.10799563,-0.02960079,0.02007925,0.00517069,0.00427253,0.98997067,0.10429269,-0.07783297,0.05498303
1755639095262,-0.15380221,0.17739153,-0.01797137,-0.01523424,0.01359270,0.00380529,0.98998581,0.10419900,-0.07774937,0.05500643
1755639095273,-0.12447236,-0.03650619,0.12409989,0.00138463,0.02563982,-0.00399453,0.98999698,0.10420641,-0.07761220,0.05498506
1755639095284,-0.02089241,-0.00015004,-0.02169885,0.00079800,0.03069394,0.00290484,0.99000874,0.10421076,-0.07744492,0.05500089
1755639095295,-0.10033607,0.10635624,0.06822853,-0.02307380,0.02424669,0.00905267,0.99002955,0.10408501,-0.07731277,0.05505023
1755639095306,0.08497481,-0.07303472,-0.14447955,-0.01300339,0.02614956,0.01893599,0.99004332,0.10400894,-0.07715980,0.05516100
1755639095318,-0.02189533,-0.00623985,-0.03054494,-0.02024289,0.02705397,0.01540109,0.99006238,0.10389456,-0.07700694,0.05524802
1755639095329,0.00753535,-0.03585600,0.03661711,-0.00654657,0.02262900,0.01545559,0.99007124,0.10385790,-0.07688022,0.05533457
1755639095339,0.01907349,0.07950834,0.06020069,-0.01002798,0.01420453,0.02745113,0.99007433,0.10380776,-0.07680920,0.05547183
1755639095350,0.00216727,-0.01073958,-0.04951815,0.00432344,-0.01459566,0.02603785,0.99005742,0.10383176,-0.07689020,0.05561634
1755639095363,0.10942867,-0.00787995,0.07984498,-0.00660160,0.01058101,0.02492766,0.99005813,0.10378918,-0.07682196,0.05577712
1755639095374,-0.10537220,0.55553440,0.28210123,0.00811889,-0.00537553,0.02381778,0.99004311,0.10383586,-0.07685287,0.05591407
1755639095384,-0.04781438,0.10000256,0.10272380,0.03111343,-0.00583081,0.03493126,0.99001550,0.10398676,-0.07688115,0.05608349
1755639095395,0.10517734,0.02389782,-0.05549529,0.01799622,-0.00166690,0.01610650,0.98999892,0.10408844,-0.07689056,0.05617449
1755639095407,0.04543781,-0.41692044,-0.23622113,0.02158332,-0.00531314,0.02084101,0.98997630,0.10421470,-0.07692165,0.05629641
1755639095417,-0.04141731,0.04061634,-0.03051132,0.04972532,0.00293079,0.03113641,0.98994305,0.10445836,-0.07690728,0.05644898
1755639095428,0.02009267,-0.11906267,-0.09829119,0.03795280,-0.00647142,0.00189994,0.98991717,0.10467089,-0.07694352,0.05645962
1755639095439,-0.04088583,-0.16169607,0.08930141,-0.00811039,0.00392957,-0.00799323,0.98992607,0.10462629,-0.07692191,0.05641566
1755639095450,0.06103443,-0.12563740,0.11290612,-0.02038714,0.00673960,0.02932102,0.98993145,0.10451721,-0.07688586,0.05657252
1755639095464,0.01884425,0.03691581,-0.16355514,-0.02216208,-0.00115344,0.03998331,0.98993115,0.10436319,-0.07689387,0.05685041
1755639095474,-0.10507408,0.07228218,-0.20668302,0.04698602,0.02708158,0.01969919,0.98991141,0.10459577,-0.07675982,0.05694792
1755639095483,0.05160766,0.30828505,-0.04472308,0.00429923,0.02858408,0.05362929,0.98990508,0.10461619,-0.07662404,0.05720266
1755639095495,0.09412446,0.03460877,-0.11139326,0.03431908,0.02852325,0.03439233,0.98988544,0.10481352,-0.07646003,0.05740041
1755639095506,-0.11524653,0.03575647,0.16646037,0.03887486,0.00464540,-0.00895894,0.98986663,0.10503900,-0.07643309,0.05734845
1755639095519,0.11759507,-0.11260584,0.06613364,0.01673721,0.01901396,-0.00904324,0.98986795,0.10514193,-0.07631616,0.05729284
1755639095539,0.04191365,-0.02828668,-0.00581494,-0.00910101,0.00265175,-0.00247774,0.98988115,0.10505047,-0.07628951,0.05726793
1755639095550,-0.21813619,0.29722673,0.81581483,0.00734021,0.00833772,0.01297193,0.98987627,0.10509084,-0.07624365,0.05733928
1755639095562,0.18583653,-0.09114039,-0.49492587,0.01893118,0.01223151,0.01510832,0.98986372,0.10521294,-0.07616475,0.05743673
1755639095574,0.14310434,-0.03397603,0.24831753,0.08487550,0.02711697,0.01900134,0.98981898,0.10568400,-0.07601426,0.05754219
1755639095595,0.01417456,-0.07919576,-0.18573224,0.04132396,0.00294984,-0.00101049,0.98977493,0.10612410,-0.07598284,0.05753142
1755639095606,0.09611090,0.13987318,0.45691247,0.05022655,-0.01998631,-0.00314748,0.98973682,0.10640788,-0.07609576,0.05751364
1755639095618,-0.04575569,-0.09590667,-0.35660084,0.02973314,0.00886238,-0.00092085,0.98972265,0.10657885,-0.07604480,0.05750835
1755639095620,3.24132111,4.26959635,13.04568576,0.04543391,0.02974449,0.07052583,0.98971628,0.10662201,-0.07601655,0.05757535
1755639095629,-0.76886314,-0.81139629,-2.62384841,0.00736302,0.00406999,0.00371327,0.98971300,0.10665662,-0.07599742,0.05759280
1755639095640,0.15065121,0.08172958,0.08119682,0.01056865,0.01688256,0.01801239,0.98970818,0.10671369,-0.07590625,0.05769007
1755639095651,0.01913558,-0.07378755,-0.05187032,0.02649029,-0.00665838,-0.00053576,0.98968966,0.10686071,-0.07594321,0.05768709
1755639095662,0.05918339,-0.10134992,-0.09273796,0.02132804,-0.00667143,-0.01895813,0.98967981,0.10698335,-0.07598157,0.05757808
1755639095673,-0.23986429,-0.44143946,0.11734958,-0.00414814,-0.00963389,-0.00606739,0.98968015,0.10696074,-0.07603407,0.05754502
1755639095685,0.00380405,0.15294746,-0.08238240,0.01232338,-0.00900770,-0.01066822,0.98967207,0.10703160,-0.07608587,0.05748367
1755639095695,0.10580706,-0.02848836,-0.01416511,0.03151020,-0.00256859,0.00206114,0.98965269,0.10719545,-0.07609922,0.05749439
1755639095707,0.12064805,0.42733419,-0.19451032,0.01636523,-0.00595426,-0.02404736,0.98964788,0.10728955,-0.07613346,0.05735612
1755639095718,0.01659075,-0.12009945,-0.02925714,0.00464741,0.00063650,-0.03483109,0.98965677,0.10731604,-0.07612983,0.05715758
1755639095729,0.09528823,-0.06369307,0.01570090,0.00298865,-0.00703678,-0.00911207,0.98965501,0.10733158,-0.07616642,0.05711020
1755639095740,-0.05180003,0.00187924,0.07185766,-0.01977968,-0.00591209,-0.01542073,0.98966932,0.10722181,-0.07619923,0.05702461
1755639095750,0.04646932,-0.06207328,-0.02379070,0.00974780,-0.00544497,-0.00624106,0.98966351,0.10727249,-0.07622755,0.05699216
1755639095773,-0.08906747,0.00139140,-0.08283008,0.01118335,-0.00670636,-0.00418729,0.98964662,0.10739942,-0.07630367,0.05694463
1755639095782,0.38707914,0.01307436,0.23053289,0.05419633,-0.01864272,-0.00425268,0.98961227,0.10766228,-0.07639408,0.05692401
1755639095794,0.06718513,0.17211996,0.07435201,0.03761799,-0.01079551,-0.00100066,0.98958351,0.10788422,-0.07645778,0.05691810
1755639095805,-0.41039643,-0.00363233,-0.30360743,0.01384726,0.01034861,0.00382789,0.98957835,0.10796108,-0.07640034,0.05693935
1755639095816,-0.08127246,-0.14609693,0.00000000,-0.00391303,0.00188906,-0.00023679,0.98958160,0.10793936,-0.07638986,0.05693804
1755639095828,-0.00515658,-0.26724983,0.02211381,-0.02121071,0.01465642,-0.00746309,0.98960367,0.10781846,-0.07630632,0.05689550
1755639095839,0.06721783,-0.13575964,0.13402827,-0.04988925,0.02442076,0.00391401,0.98964299,0.10754157,-0.07617078,0.05691722
1755639095850,-0.11290127,0.06028347,-0.06742343,-0.07213424,0.02252142,-0.02103106,0.98970005,0.10715926,-0.07605142,0.05680575
1755639095862,-0.01106180,0.12854804,-0.09598979,-0.00668986,0.00517316,-0.00582374,0.98970893,0.10711845,-0.07601986,0.05677023
1755639095873,0.00000000,-0.15140467,-0.20809044,0.01013373,0.01606075,-0.00132835,0.98971008,0.10717368,-0.07593233,0.05676299
1755639095884,-0.03245017,0.18876338,0.03278095,0.01205048,0.01253347,-0.01147590,0.98971189,0.10724297,-0.07586026,0.05669700
1755639095896,0.02884459,0.04732316,0.06850591,0.00550028,0.01602508,-0.00851445,0.98971832,0.10727460,-0.07576812,0.05664805
1755639095919,0.00894383,0.04452198,0.04164593,0.00249021,0.00199744,0.00067872,0.98971652,0.10730336,-0.07574505,0.05665588
1755639095930,0.09722609,-0.02838078,0.20822993,-0.00176213,0.00979920,0.00115451,0.98972129,0.10729376,-0.07569164,0.05666218
1755639095931,6.18031310,-2.21187804,10.21124321,-0.08235606,0.00075531,0.02867705,0.98972642,0.10723611,-0.07569111,0.05668225
1755639095941,-0.89369730,0.29541661,-1.43984565,-0.01642868,-0.00337383,-0.00359127,0.98973489,0.10715561,-0.07570764,0.05666465
1755639095952,-0.02009267,0.01568043,-0.00597350,-0.01033434,-0.01996272,-0.00517912,0.98973425,0.10709773,-0.07581944,0.05663565
1755639095973,-0.00518941,0.01542160,-0.05614510,0.00611737,-0.00823846,-0.00379514,0.98972279,0.10716288,-0.07590718,0.05659523
1755639095986,-0.06933547,0.15546502,0.36443499,0.03224771,-0.02574467,0.00527196,0.98968555,0.10737088,-0.07607323,0.05662924
1755639095997,-0.11772357,0.01738178,0.12190870,0.01376621,-0.02348800,-0.01101907,0.98967073,0.10744728,-0.07620359,0.05656808
1755639096044,0.02966632,-0.05765109,-0.14182290,0.00090519,-0.00410030,0.00001471,0.98966110,0.10746828,-0.07629871,0.05656842
1755639096074,0.00030551,0.09652395,0.00099522,0.04011019,0.01303061,0.01510823,0.98959807,0.10806593,-0.07610456,0.05679353
1755639096106,0.01317367,-0.03511431,-0.06007304,-0.00651053,-0.00341498,-0.03736930,0.98964001,0.10796013,-0.07616005,0.05618628
1755639096130,-0.04975232,-0.08720498,0.00994094,-0.04587731,0.00877089,0.02378942,0.98969219,0.10740501,-0.07605392,0.05647413
1755639096162,-0.01078282,-0.06336189,0.04932655,-0.01265497,-0.00044234,0.01697016,0.98969811,0.10720127,-0.07606104,0.05674735
1755639096173,0.13163207,0.19714252,0.31215604,-0.01937203,-0.02343277,0.02146875,0.98969319,0.10709957,-0.07618407,0.05686007
1755639096195,-0.00837984,0.02140411,-0.11994537,-0.00638833,0.01072331,0.01217921,0.98970211,0.10702961,-0.07606665,0.05699343
1755639096228,-0.01393715,-0.03010383,-0.02769543,-0.00096046,0.00462267,-0.00244935,0.98971204,0.10701372,-0.07599014,0.05695289
1755639096229,-10.96472294,-0.67970115,27.34020378,-0.25497803,-0.02897974,-0.13147779,0.98973342,0.10684798,-0.07600898,0.05686743
1755639096251,0.66700335,0.10712805,-1.55034671,0.00745814,0.00201778,-0.00446520,0.98972912,0.10692928,-0.07598698,0.05681876
1755639096273,-0.02151884,-0.01359226,-0.03980281,-0.00346770,-0.00508265,-0.00823691,0.98973406,0.10689183,-0.07604188,0.05672980
1755639096283,-0.19841183,-0.25467507,0.31374660,-0.00404469,-0.00949694,-0.01008601,0.98973555,0.10687059,-0.07609174,0.05667685
1755639096296,0.09308573,0.11649020,-0.02554331,-0.01415549,-0.00521784,0.00496916,0.98974098,0.10677929,-0.07612539,0.05670890
1755639096307,-0.00342230,0.06434175,-0.18193102,0.00046591,-0.02183602,0.00778866,0.98972933,0.10678178,-0.07624221,0.05675057
1755639096318,0.13291083,0.04632248,-0.03091308,0.01227804,-0.00694884,0.00771541,0.98971620,0.10685177,-0.07628182,0.05679455
1755639096330,0.00684914,0.06911474,0.08065764,0.00119833,-0.01140473,0.01562655,0.98970496,0.10685884,-0.07634911,0.05688674
1755639096340,0.06540784,0.01951748,0.07554528,0.01337177,-0.01906298,0.02232121,0.98968354,0.10692703,-0.07644633,0.05700058
1755639096351,-0.07192114,-0.01497637,-0.03172483,0.02909057,-0.01938792,0.00993305,0.98965641,0.10707830,-0.07654715,0.05705223
1755639096362,-0.03245017,0.04570238,-0.07055138,0.03312101,-0.02079537,0.00254700,0.98962569,0.10726875,-0.07666672,0.05706688
1755639096373,0.05992858,-0.09140927,0.07916655,0.00455386,0.00375841,0.00377496,0.98962333,0.10729425,-0.07664567,0.05708802
1755639096384,0.12731877,-0.56147981,-0.18138193,0.02030846,0.00078883,0.00051390,0.98961193,0.10740087,-0.07664153,0.05709072
1755639096395,-0.04758609,-0.01437719,-0.02114345,0.00705745,0.01211622,-0.00180405,0.98961349,0.10744074,-0.07657308,0.05708052
1755639096397,-0.19094585,-8.77005864,2.75341810,0.00275402,0.09914890,-0.04300964,0.98962334,0.10744350,-0.07647393,0.05703751
1755639096407,-0.25042229,2.27501409,-0.55103252,0.00116917,0.03804340,-0.00537288,0.98963831,0.10744911,-0.07629132,0.05701172
1755639096418,0.00507953,0.00187459,-0.07879317,-0.00547663,0.02553294,0.00036746,0.98965241,0.10741871,-0.07614961,0.05701376
1755639096429,-0.01873998,0.01289771,0.03530907,-0.01214932,0.03114323,-0.00473932,0.98967552,0.10734825,-0.07596898,0.05698628
1755639096439,-0.00909913,-0.03586127,0.01739539,-0.01069963,0.03071411,-0.00795669,0.98969459,0.10729689,-0.07582155,0.05694808
1755639096450,0.16567994,0.00940651,0.07117590,-0.00737216,0.01078414,0.01002979,0.98970030,0.10725671,-0.07576278,0.05700275
1755639096461,-0.05845014,0.05252204,0.00896406,-0.01854473,-0.00370980,-0.00270561,0.98971130,0.10714823,-0.07578448,0.05698692
1755639096473,-0.02389624,-0.02093273,0.03132853,-0.01112913,-0.00450672,0.01594734,0.98971096,0.10708479,-0.07581017,0.05707782
1755639096484,-0.02723994,0.07103816,-0.02029168,0.00111072,-0.00900023,0.01543281,0.98970161,0.10709090,-0.07585967,0.05716270
1755639096496,0.07676059,-0.00981674,-0.07937311,0.00441560,-0.01697460,0.01222278,0.98968707,0.10711673,-0.07595897,0.05723420
1755639096507,0.18051381,-0.03570638,-0.00672541,0.00128796,-0.01848718,0.01091575,0.98967480,0.10712394,-0.07606250,0.05729533
1755639096518,0.03800060,-0.08127906,0.03807097,0.00643676,-0.01320670,0.00411119,0.98966407,0.10715934,-0.07613514,0.05731794
1755639096529,-0.10994652,-0.13255152,0.02160229,-0.00811071,-0.02918312,-0.00327281,0.98965752,0.10711433,-0.07629710,0.05729978
1755639096540,0.14496217,0.02074440,0.18766635,-0.03914121,-0.01355594,-0.00220653,0.98967542,0.10690297,-0.07637031,0.05728786
1755639096550,-0.02137635,0.12297294,-0.08578045,-0.03355365,-0.02830044,0.01533656,0.98967832,0.10672513,-0.07652030,0.05736915
1755639096563,-0.06811733,0.18025307,-0.04071739,0.01374371,-0.01235080,0.02077247,0.98965536,0.10681172,-0.07659811,0.05750001
1755639096574,0.00930099,0.03731546,-0.28046322,0.03126391,-0.01079558,0.00003571,0.98963239,0.10698211,-0.07665694,0.05750021
1755639096584,0.00165829,0.21874275,0.04307512,0.02262486,0.00033854,0.00735930,0.98961758,0.10709976,-0.07665518,0.05753848
1755639096595,0.01179263,-0.16128380,-0.17248680,0.06706990,0.00583941,0.00831126,0.98957815,0.10746193,-0.07662365,0.05758336
1755639096606,-0.08412626,-0.09868324,0.21178517,-0.00242303,-0.00708355,-0.02225581,0.98958384,0.10744824,-0.07666367,0.05745761
1755639096617,-0.06398436,-0.17926493,0.18307045,-0.02235432,0.01053828,-0.07057633,0.98962304,0.10732865,-0.07660729,0.05708003
1755639096629,-0.01298244,-0.00067893,-0.01995388,-0.07026547,-0.00348888,-0.04934215,0.98968205,0.10692111,-0.07662753,0.05679384
1755639096639,0.06724236,0.05060798,0.02114540,-0.00120965,0.00080097,0.02681052,0.98967477,0.10691458,-0.07662320,0.05693862
1755639096650,-0.04597487,0.14036087,0.00695517,-0.00071558,0.01767900,0.03015234,0.98967322,0.10691078,-0.07652951,0.05709843
1755639096661,-0.08699994,0.05571081,-0.08176417,0.02343803,0.01312853,0.03864757,0.98965221,0.10704204,-0.07645599,0.05731485
1755639096673,-0.00119113,0.08044132,0.14538189,0.02194690,0.01200427,0.03426200,0.98963245,0.10716823,-0.07638696,0.05751186
1755639096684,0.07482454,-0.15885818,0.08211853,0.00856522,-0.00423282,0.02701100,0.98961705,0.10721491,-0.07641003,0.05765907
1755639096695,-0.05145844,-0.12460772,0.05144131,-0.00474111,-0.02058703,-0.00914995,0.98961397,0.10718812,-0.07652635,0.05760737
1755639096706,0.06669333,-0.12297191,0.05117268,-0.02567891,-0.00539111,-0.00383729,0.98962871,0.10704175,-0.07655708,0.05758550
1755639096717,-0.04756618,0.06555906,-0.08787299,0.00627490,-0.00558127,0.00328715,0.98962155,0.10707627,-0.07658777,0.05760358
1755639096729,0.03097024,0.14200234,0.03898197,0.01730914,0.02066834,0.01304402,0.98961549,0.10717752,-0.07646686,0.05767989
1755639096740,-0.00477601,0.19854569,-0.05572015,0.02780919,0.02517772,0.01229007,0.98960549,0.10733326,-0.07632587,0.05774871
1755639096753,0.00868441,-0.02235775,-0.00905396,0.03444914,0.02661910,0.00928303,0.98959132,0.10755201,-0.07615684,0.05780766
1755639096783,0.00307842,-0.05994153,-0.08379352,0.00609251,0.00491427,-0.01043035,0.98959616,0.10764309,-0.07608337,0.05765173
1755639096785,10.35519647,22.64054831,44.44839372,-0.19597634,0.10828859,-0.22111771,0.98963439,0.10746671,-0.07598591,0.05745272
1755639096794,-1.78463392,-4.08146592,-8.13132048,0.00488348,0.00303082,-0.01511078,0.98963706,0.10748918,-0.07597197,0.05738321
1755639096806,-0.13816731,-0.11009464,-0.10072488,0.02658649,-0.00541938,-0.01386570,0.98962217,0.10764737,-0.07600421,0.05730071
1755639096816,0.07467158,0.20399657,0.09272571,0.06763607,-0.00921215,-0.03974672,0.98959240,0.10799569,-0.07605165,0.05709601
1755639096827,-0.01424896,0.03581832,-0.01907579,0.05715462,-0.00103059,0.00721051,0.98955397,0.10832147,-0.07605753,0.05713711
1755639096839,0.03214447,0.10111836,0.03331154,0.04461125,0.00056443,0.00559036,0.98952503,0.10857130,-0.07605437,0.05716842
1755639096849,-0.09780032,-0.10749668,-0.10079382,0.04890956,0.00280732,0.00604976,0.98949557,0.10883296,-0.07603935,0.05720079
1755639096862,-0.05114937,-0.06455264,-0.06917215,0.02542332,-0.00176428,0.00469619,0.98947489,0.10899694,-0.07605073,0.05723108
1755639096872,-0.18000757,-0.21715819,-0.11106082,0.04109025,0.01144775,-0.00871309,0.98945978,0.10919418,-0.07599578,0.05718925
1755639096884,0.08277838,-0.16205798,-0.08730313,0.01948011,0.00883074,-0.00370293,0.98945229,0.10931008,-0.07594324,0.05716722
1755639096895,-0.06071908,-0.06941866,-0.00569620,0.01708275,-0.00125915,-0.02153437,0.98944803,0.10940831,-0.07595048,0.05704340
1755639096906,0.11377506,0.10107370,0.15119324,0.02060438,0.01050565,0.00131824,0.98943935,0.10952369,-0.07589165,0.05705078
1755639096916,0.03327442,-0.03317668,0.04283104,0.02005111,0.01934990,0.00196014,0.98943514,0.10962295,-0.07579586,0.05706048
1755639096928,-0.08737490,0.11548270,-0.09426538,0.00670156,0.00027331,0.00275533,0.98943003,0.10966182,-0.07579428,0.05707646
1755639096963,0.02697602,-0.03809925,-0.07834390,0.01214824,0.00797912,-0.00013510,0.98941723,0.10987502,-0.07565424,0.05707409
1755639096984,-0.06643113,0.08247444,0.09832025,0.00776900,0.01293690,-0.01175141,0.98942562,0.10995620,-0.07551905,0.05695129
1755639096995,-0.17113337,0.42924178,0.23379491,-0.02156483,0.03900209,-0.01502303,0.98945927,0.10983975,-0.07530844,0.05687017
1755639097006,0.15140072,-0.42206916,-0.23915305,-0.01605510,0.01364129,-0.00784872,0.98947808,0.10974744,-0.07523000,0.05682504
1755639097018,0.05438774,-0.17044315,-0.01457530,-0.01942831,0.00387874,0.00236352,0.98949149,0.10963475,-0.07520751,0.05683874
1755639097029,0.07600658,-0.00354923,0.07555589,-0.00504065,0.00915213,0.00739354,0.98949617,0.10960627,-0.07515580,0.05688052
1755639097038,-0.07378438,0.04625254,-0.00336686,-0.00469625,-0.01763465,0.01718273,0.98948767,0.10958420,-0.07523868,0.05696128
1755639097050,0.09914755,0.00761514,-0.05669883,0.00351780,-0.00553865,0.00561520,0.98948110,0.10960460,-0.07527081,0.05699385
1755639097062,-0.05176031,0.00633079,-0.02138339,0.00498610,-0.01351984,0.00361547,0.98947009,0.10963527,-0.07535395,0.05701608
1755639097073,0.02427821,-0.03722150,0.09125490,-0.00149915,-0.02374111,0.00655197,0.98945928,0.10962725,-0.07548097,0.05705113
1755639097083,-0.02923413,-0.06248461,0.05164993,0.00365699,-0.02253073,0.00783665,0.98944639,0.10964553,-0.07559362,0.05709032
1755639097085,-1.26056605,-3.62433364,13.23429358,0.00895239,-0.09975218,-0.00545491,0.98943933,0.10965314,-0.07567841,0.05708568
1755639097107,0.09638072,0.28778972,-1.11782331,-0.00389982,-0.00858936,-0.00547483,0.98944032,0.10961044,-0.07577246,0.05702573
1755639097109,-2.37347904,-0.44817636,11.72433867,-0.05593390,-0.08802497,0.04113717,0.98943711,0.10954891,-0.07586929,0.05707098
1755639097128,0.26093355,0.15358215,-1.36987114,0.00418396,-0.00724085,0.01071781,0.98942155,0.10958866,-0.07593808,0.05717280
1755639097130,-5.54124550,8.43822012,8.76300084,0.26747440,-0.03582574,0.05634727,0.98939124,0.10981601,-0.07596853,0.05722070
1755639097140,0.79301130,-0.96594984,-1.35196087,0.04354510,0.01715872,0.00391110,0.98937156,0.11004462,-0.07587845,0.05724123
1755639097150,0.01913436,-0.10425442,-0.10290603,0.06975975,0.01905671,0.02377704,0.98933196,0.11040389,-0.07578031,0.05736368
1755639097162,-0.06180851,-0.15293366,-0.09914630,0.05724692,0.00870246,-0.01905265,0.98930466,0.11074164,-0.07572896,0.05725127
1755639097173,-0.12505687,-0.38472224,0.15398554,-0.02314576,0.01779258,-0.06772570,0.98934865,0.11061203,-0.07562932,0.05687201
