UnixTime(ms),Ax,Ay,Az,Gx,Gy,Gz,QuatW,QuatX,QuatY,QuatZ
1755645694960,0.00000000,0.00000000,0.00000000,0.00000000,0.00000000,0.00000000,0.65813395,0.13684707,0.74030048,0.00936938
1755645694971,-2.29884970,0.17657410,4.81442598,0.12218352,0.30607687,0.12660347,0.65606597,0.13752519,0.74199921,0.01007202
1755645695003,0.48899830,-0.19394067,-1.19595009,0.02797774,0.08633978,-0.00396161,0.65442780,0.13796724,0.74336338,0.01000943
1755645695014,-1.16010220,-0.88509589,1.73487866,0.05583107,0.18891168,0.08642926,0.65309332,0.13829385,0.74446851,0.01051504
1755645695026,0.44875847,0.81993376,-1.13092881,0.03411712,0.13396800,0.06568835,0.65218250,0.13848661,0.74522543,0.01088618
1755645695047,0.30076763,0.05642679,-0.53682619,0.03402535,0.08071925,0.00667748,0.65112552,0.13884728,0.74608105,0.01095696
1755645695059,0.01416428,0.07317378,-0.18263007,0.01207027,0.04762512,0.02852793,0.65077671,0.13892030,0.74636918,0.01112956
1755645695069,-0.19605718,-0.42725542,-0.22865593,0.02900159,0.03995069,0.05716275,0.65049834,0.13907256,0.74657893,0.01142966
1755645695080,-0.07536450,0.16384342,1.13697269,0.02201254,0.03198723,0.05893855,0.65027107,0.13919033,0.74675006,0.01174498
1755645695093,0.18786931,-0.00682716,-1.33929300,-0.01109142,0.01859814,0.10178298,0.65013745,0.13911935,0.74686909,0.01239639
1755645695126,0.21737324,0.11166452,-0.03199517,0.00260038,0.00981663,0.01919672,0.64993725,0.13916199,0.74703008,0.01271122
1755645695127,-177.89169791,0.80752482,-16.17775458,-0.37537364,0.30263952,0.06144193,0.64972215,0.13886169,0.74727219,0.01276037
1755645695158,9.20590437,0.06726935,0.73112692,-0.00180355,-0.00502342,-0.00056595,0.64981599,0.13883428,0.74719583,0.01275177
1755645695160,-86.94126052,-10.65408601,-28.38791968,-0.18594505,-0.09416741,0.22405016,0.64993800,0.13867623,0.74711579,0.01294221
1755645695181,6.64146646,0.62470628,2.10965514,-0.05161545,-0.00216840,0.04079673,0.65007405,0.13812136,0.74709248,0.01338078
1755645695192,-0.46773684,-0.28331316,-0.28793605,-0.07816989,0.00797068,0.02691691,0.65011112,0.13769924,0.74713552,0.01352613
1755645695204,0.31718501,0.16639498,0.10491830,-0.07473833,-0.00441617,-0.00632881,0.65024242,0.13723213,0.74710792,0.01348657
1755645695214,-0.50543547,-0.07635650,0.00087384,-0.08585452,-0.00890450,-0.00206198,0.65038140,0.13681144,0.74706429,0.01347647
1755645695227,0.37629683,0.08222107,0.27417750,-0.07571064,-0.01152441,-0.01301978,0.65056662,0.13633446,0.74699169,0.01339445
1755645695249,0.27859288,0.08624611,-0.04545998,-0.04166566,-0.00244341,-0.01056296,0.65069573,0.13587614,0.74696481,0.01327825
1755645695259,-2.16527419,0.02563000,-1.29439614,-0.09853244,-0.04073381,-0.01324917,0.65103345,0.13538348,0.74676114,0.01321201
1755645695269,1.32130387,0.08628482,0.45650941,-0.03250083,-0.03858852,0.00910291,0.65130023,0.13521285,0.74655855,0.01325980
1755645695282,0.31116358,-0.12832494,0.25469760,-0.05636643,-0.02876170,0.00862964,0.65158037,0.13485774,0.74637735,0.01331416
1755645695292,-0.01414737,-0.29432235,0.10577474,-0.09981987,-0.04017534,0.00504078,0.65193620,0.13432370,0.74616241,0.01334113
1755645695304,-0.05974935,0.12144876,-0.24360424,-0.08103703,-0.01790339,0.00316967,0.65214574,0.13386585,0.74606126,0.01335904
1755645695315,-0.08416721,-0.14915122,0.11642794,-0.10828758,-0.02181876,0.03171296,0.65240599,0.13325943,0.74593907,0.01353663
1755645695326,0.17841680,0.73341425,0.13330159,-0.09586800,-0.01663347,0.01957599,0.65261199,0.13274175,0.74584925,0.01364234
1755645695337,-0.36841367,-0.25193389,-0.25779282,-0.06428894,-0.00204101,-0.02020017,0.65269974,0.13238494,0.74583793,0.01353023
1755645695348,0.04257129,0.30380421,0.32121974,-0.05403102,-0.00376946,-0.04020774,0.65278898,0.13208507,0.74581700,0.01330708
1755645695350,-64.24279904,-14.36418242,-46.30938577,-0.35849412,0.07673559,-0.45943914,0.65278420,0.13179828,0.74587839,0.01293953
1755645695360,9.81386551,2.24021373,6.85750483,-0.01507992,-0.01475400,-0.04874636,0.65289473,0.13171835,0.74580020,0.01268117
1755645695371,0.15174310,-0.04885385,-0.01273039,-0.03053388,-0.00576050,-0.04926276,0.65296793,0.13155500,0.74576938,0.01241762
1755645695382,0.16017196,-0.08289353,0.17906614,-0.03591104,-0.01815372,-0.02633549,0.65313013,0.13135030,0.74566590,0.01226751
1755645695392,-0.37349650,-0.00637879,-0.18281920,-0.07000252,-0.00364042,-0.02282563,0.65321775,0.13102129,0.74564879,0.01216023
1755645695405,0.31416149,-0.05898530,0.25401783,-0.03198949,-0.00590404,-0.00640474,0.65330333,0.13081496,0.74561071,0.01211891
1755645695414,-0.51066318,-0.08601799,-0.13019264,-0.01777969,0.01682633,-0.03549542,0.65323137,0.13072962,0.74569148,0.01194854
1755645695425,0.44095671,0.07977807,0.26351545,-0.04416435,0.02418629,-0.00882538,0.65313174,0.13049334,0.74582087,0.01190132
1755645695447,0.31646979,-0.03549953,0.12505270,-0.02606441,0.02131459,0.00105099,0.65291615,0.13020011,0.74606066,0.01191314
1755645695449,-68.42436614,-8.38703579,-2.02037670,-0.42317758,0.40046637,0.12963240,0.65263425,0.12988273,0.74636101,0.01201037
1755645695483,3.08408835,0.37398393,0.13176171,-0.00184519,0.00848432,-0.00801826,0.65247709,0.12985118,0.74650609,0.01187326
1755645695493,-2.92904402,0.64256169,0.13108333,0.00587773,0.08274586,-0.13401314,0.65202348,0.12987968,0.74690741,0.01122329
1755645695505,1.37085515,-0.36380687,-0.06776169,0.00816450,0.04206375,-0.03060140,0.65173010,0.12992826,0.74715769,0.01104121
1755645695516,-0.03356270,-0.09384222,-0.13594194,-0.02126369,0.03596642,-0.00774026,0.65152544,0.12981025,0.74735731,0.01099826
1755645695527,0.02322070,0.12626258,-0.17028516,-0.01447679,0.02782783,0.00452072,0.65136382,0.12972990,0.74751175,0.01102335
1755645695537,-0.15326269,0.10790267,-0.06754186,-0.02017171,0.03685311,-0.01181933,0.65118100,0.12963308,0.74768864,0.01096661
1755645695560,0.46587020,-0.11070943,0.14161267,-0.00581388,0.01043412,-0.01298910,0.65105900,0.12956622,0.74780864,0.01081724
1755645695570,-1.00425864,-0.11719955,0.03431836,-0.02331142,0.04045190,-0.03971372,0.65084277,0.12944383,0.74802101,0.01060874
1755645695581,0.57395318,-0.04600798,0.02505476,-0.04011765,0.01782881,-0.02644565,0.65077384,0.12921516,0.74812263,0.01045800
1755645695593,0.01100732,-0.03027013,-0.15043339,-0.02446292,0.02456266,-0.00612264,0.65064110,0.12907573,0.74826264,0.01042310
1755645695604,-0.10041936,0.15354436,0.04705248,-0.02045751,-0.00914927,0.00339446,0.65072170,0.12896219,0.74821186,0.01044194
1755645695637,0.19605982,-0.00415946,-0.00410348,0.00301015,-0.00082593,-0.00896838,0.65073000,0.12901261,0.74819803,0.01029172
1755645695648,-4.74858608,0.40033374,-1.01206254,-0.01217039,-0.03586517,-0.10111272,0.65096727,0.12894871,0.74800974,0.00976088
1755645695670,1.97570788,-0.21560572,0.39492555,-0.00247463,-0.01643034,-0.00858670,0.65117877,0.12892186,0.74783147,0.00966771
1755645695683,-0.73954546,-0.11534750,-0.25089434,-0.01917289,-0.04158720,0.01202609,0.65151513,0.12879628,0.74755907,0.00974648
1755645695705,0.46683650,-0.00873342,0.14902757,-0.00906738,-0.01380020,0.00296471,0.65171200,0.12869472,0.74740451,0.00977969
1755645695716,-0.75009649,-0.32425062,-0.12548843,-0.04530087,-0.01307778,0.02554568,0.65183444,0.12845916,0.74733650,0.00991253
1755645695737,0.40715221,0.21358318,0.08221769,-0.02058698,-0.00202319,0.01997249,0.65190056,0.12823476,0.74731445,0.01013023
1755645695748,-1.82611655,-0.02508402,-0.43947200,-0.07736632,0.00463750,0.03177804,0.65195167,0.12781312,0.74733973,0.01030342
1755645695760,1.02949705,-0.00631204,0.51548057,-0.03969294,-0.01129091,0.01703202,0.65207536,0.12757297,0.74727142,0.01040646
1755645695795,0.26810650,0.01183809,0.00552999,-0.00361695,-0.00686318,0.00129485,0.65222499,0.12750968,0.74715131,0.01042912
1755645695816,-0.85264170,-0.17169095,-0.22730196,-0.05055072,-0.02759907,0.04914288,0.65265388,0.12697637,0.74686014,0.01094758
1755645695827,-0.76791126,-0.61978932,0.48702539,-0.12681745,0.01134334,0.03710776,0.65270943,0.12633594,0.74691742,0.01113497
1755645695851,0.78991566,0.30768306,0.03783367,-0.03479197,0.01094882,-0.01709979,0.65264211,0.12591148,0.74705100,0.01092636
1755645695861,-0.62520387,0.13762810,-0.26945208,-0.06488844,-0.01975308,-0.01923626,0.65281924,0.12558703,0.74695223,0.01083017
1755645695883,0.53744541,0.03966563,-0.00044812,-0.02134425,-0.01415743,0.00626251,0.65304741,0.12534584,0.74679225,0.01090094
1755645695894,-0.88916459,-0.29325338,-0.37405014,-0.05552356,-0.03416647,-0.00929821,0.65330417,0.12505990,0.74661630,0.01085305
1755645695933,0.33158803,0.06192380,0.11703665,-0.01647339,-0.00914134,0.00950782,0.65356544,0.12473949,0.74643850,0.01103798
1755645695934,-203.41566485,-95.26369193,-174.85947070,-1.72591954,-0.64968189,0.57691311,0.65430679,0.12353135,0.74598372,0.01144182
1755645695984,5.64182487,2.65945219,4.84760020,-0.01005329,-0.00787328,-0.00793029,0.65458361,0.12327851,0.74578571,0.01124237
1755645695995,-3.24487166,0.73703828,-1.59195920,-0.09689866,-0.10106743,-0.12546662,0.65526710,0.12278917,0.74527532,0.01060877
1755645696026,0.94579887,-0.17815398,0.38483987,-0.03720310,-0.03697786,-0.02146944,0.65603386,0.12221066,0.74470031,0.01027492
1755645696039,-0.64600747,-0.22959464,-0.70737515,-0.10673769,-0.06662310,-0.04495309,0.65667278,0.12150085,0.74425727,0.00997598
1755645696060,0.41369344,0.01099583,0.36764865,-0.06030786,-0.03540927,-0.00670689,0.65720151,0.12087968,0.74389255,0.00990690
1755645696072,0.06693511,-0.08087035,0.01125153,-0.08357620,-0.05649803,-0.00632697,0.65770531,0.12034897,0.74353379,0.00986672
1755645696093,0.16536750,0.07885448,0.19054646,-0.03713266,-0.02728321,0.00171015,0.65810370,0.11995537,0.74324459,0.00988485
1755645696104,-0.29341831,-0.10249200,-0.19869758,-0.05128904,-0.04154577,-0.02029182,0.65840902,0.11967841,0.74302024,0.00977527
1755645696116,0.17442765,0.12296231,-0.03123686,-0.03340498,-0.03340029,-0.00907564,0.65866353,0.11948466,0.74282652,0.00972264
1755645696127,0.11577807,0.07212349,-0.27130390,-0.02536301,-0.02378774,0.00242961,0.65883614,0.11934516,0.74269569,0.00973600
1755645696140,0.06272699,0.05763108,0.24327549,-0.03153143,-0.00722656,-0.01310925,0.65892673,0.11914178,0.74264908,0.00965144
1755645696150,-0.08670301,0.14696280,0.29517299,-0.06737183,-0.00900950,0.00226772,0.65904260,0.11879145,0.74260223,0.00966324
1755645696161,-0.20822638,-0.20582473,0.34513096,-0.03679616,-0.00216834,-0.02992910,0.65909250,0.11859827,0.74259084,0.00950611
1755645696172,-0.03107552,-0.08044086,0.14509552,-0.03288435,-0.00546876,-0.03466666,0.65916100,0.11841905,0.74256104,0.00931717
1755645696173,-15.41186557,-0.88629133,7.98101483,-0.28661103,0.06864355,-0.05819850,0.65913717,0.11814677,0.74262625,0.00926189
1755645696206,1.03532175,0.06466269,-0.45720354,-0.01519199,0.01112744,-0.00757429,0.65897738,0.11789686,0.74280930,0.00913729
1755645696229,-0.08409672,-0.15958037,0.34419347,-0.04023914,0.06469162,-0.01660826,0.65822975,0.11743814,0.74354678,0.00894795
1755645696240,0.32028293,-1.00486738,3.15943908,-0.13273388,0.18217263,-0.00785426,0.65728164,0.11674792,0.74449408,0.00890711
1755645696260,-0.00019448,0.56709001,-1.42175642,-0.01933684,0.05664228,0.00861050,0.65665439,0.11654875,0.74507749,0.00899580
1755645696271,0.00657544,-0.06896699,1.11378596,-0.02030854,0.12759510,-0.00122268,0.65587012,0.11643604,0.74578565,0.00898902
1755645696284,-0.00516527,0.05216403,0.39811943,0.01999791,0.14348027,-0.02001398,0.65480346,0.11656403,0.74670392,0.00886093
1755645696294,0.30141766,0.39247315,1.21340482,0.03019396,0.15497198,-0.04559112,0.65387672,0.11671801,0.74749428,0.00862841
1755645696305,-0.22841212,-0.17413719,-1.44802661,0.03789884,0.12056591,-0.00726425,0.65308837,0.11692456,0.74815136,0.00858882
1755645696329,0.03196789,-0.07880635,-0.64971795,0.01433399,0.05018328,-0.01700788,0.65238167,0.11709370,0.74874352,0.00838813
1755645696339,0.38009339,0.10146552,2.62731880,0.00535267,0.18560271,-0.01244257,0.65130031,0.11712074,0.74968082,0.00832529
1755645696350,-0.09567928,-0.06790878,-1.23726951,0.01244335,0.12523172,-0.01625241,0.65045151,0.11719291,0.75040716,0.00823103
1755645696361,-0.08680800,0.10172002,0.03210754,-0.01356255,0.13970436,-0.01432008,0.64958639,0.11711899,0.75116855,0.00815298
1755645696372,-0.11500525,0.25279815,-0.08341901,-0.00121019,0.11562202,-0.01562205,0.64889931,0.11711276,0.75176400,0.00807253
1755645696408,-0.03092236,-0.03590048,-0.45678754,0.00126493,0.02588984,-0.00931362,0.64835397,0.11713565,0.75223261,0.00790395
1755645696427,0.17404193,-0.16504032,1.81050509,0.01929314,0.14621389,-0.02287806,0.64665620,0.11732473,0.75366551,0.00767975
1755645696439,0.07013380,-0.46841044,-0.69637587,-0.02603795,0.10742984,0.04570591,0.64594136,0.11717110,0.75429934,0.00794941
1755645696472,-0.11167217,0.21131339,-0.64356171,-0.01875491,0.01999882,0.00957185,0.64560895,0.11686071,0.75463032,0.00810783
1755645696485,-0.21949607,-0.66491787,0.83437456,-0.06286333,0.01789252,0.04746714,0.64554543,0.11646781,0.75474215,0.00840450
1755645696496,-0.18773985,0.35790372,-1.09176005,-0.01690582,-0.01456654,0.06143584,0.64565136,0.11637483,0.75466203,0.00874239
1755645696518,0.05884870,0.16388563,-0.37447694,0.00049564,-0.01192605,0.01675302,0.64580048,0.11638026,0.75453144,0.00892584
1755645696527,-0.00372570,0.03999347,-0.44435388,-0.03163776,-0.01896315,0.06156985,0.64593136,0.11622682,0.75443947,0.00922445
1755645696538,-0.10644585,-0.04797282,0.04033830,-0.02128974,-0.02098587,0.05291421,0.64607747,0.11611398,0.75432825,0.00950490
1755645696550,-0.03071922,-0.09323283,0.19350182,-0.01229946,-0.02114042,0.02960028,0.64624144,0.11603772,0.75419718,0.00968842
1755645696561,-0.14662242,-0.08995022,0.12472150,-0.05691278,-0.03061702,0.04360048,0.64647682,0.11574178,0.75403797,0.00991514
1755645696572,0.00881940,0.00912641,-0.11651286,-0.02890264,-0.04534268,0.04910863,0.64679467,0.11558137,0.75378632,0.01018770
1755645696583,-0.07160859,-0.05140767,-0.14564865,-0.01827829,-0.05242937,0.04590433,0.64715086,0.11547901,0.75349271,0.01044476
1755645696597,0.10914194,0.14559897,-0.09590719,-0.02884075,-0.04447156,0.03928963,0.64753900,0.11528001,0.75318586,0.01071586
1755645696636,0.02387016,0.01888645,-0.00770594,-0.01377805,-0.03542350,0.01568532,0.64839283,0.11500858,0.75248802,0.01102486
1755645696668,0.03594311,0.00352599,-0.07900421,-0.01962812,-0.06618942,0.02346503,0.64966492,0.11469551,0.75143229,0.01139913
1755645696670,-61.08042405,-5.10522889,-139.71140994,-0.80304829,-1.84304671,0.05413785,0.65159150,0.11401292,0.74986570,0.01144514
1755645696720,2.05454324,0.22323498,4.66048057,-0.01639923,-0.04099856,-0.00492518,0.65285530,0.11359884,0.74883049,0.01132078
1755645696740,-0.11117142,0.00522952,-1.45063343,-0.12572957,-0.16740316,-0.00954575,0.65494646,0.11236669,0.74718994,0.01122724
1755645696799,0.05724511,-0.02149811,0.47583623,-0.03119586,-0.03060319,0.00216429,0.65612084,0.11145421,0.74629480,0.01129054
1755645696809,-1.87340998,-0.84961103,-6.29258672,-0.22629451,-0.24484004,0.04362322,0.65771342,0.11031142,0.74505835,0.01151084
1755645696854,0.39806344,0.18689538,1.32398599,-0.03174752,-0.04018243,-0.01842877,0.65888290,0.10958441,0.74413818,0.01108882
1755645696875,-0.06098856,0.12038138,-0.47508296,-0.05184720,-0.06914727,-0.00159530,0.65978813,0.10904260,0.74341559,0.01107215
1755645696924,0.06572641,-0.04703443,0.25423729,-0.01528043,-0.02588364,0.00695434,0.66055764,0.10866976,0.74278403,0.01124183
1755645696957,0.02795776,-0.00011123,-0.54179000,-0.04855084,-0.07234652,0.01080560,0.66199885,0.10788324,0.74161201,0.01141689
1755645696992,0.00659936,-0.05049593,0.23279739,-0.04795115,-0.04907204,0.03597085,0.66309070,0.10703930,0.74074835,0.01204997
1755645697004,-0.04444949,-0.67537423,-2.25078442,-0.14759359,-0.16394144,0.06073690,0.66440530,0.10609470,0.73969912,0.01243869
1755645697056,-0.00448781,0.18596957,0.72676534,-0.02018244,-0.03267524,0.01195290,0.66542161,0.10557298,0.73885447,0.01274767
1755645697069,0.10114078,-0.82716480,-4.29949800,-0.22445243,-0.23989168,0.11083893,0.66731933,0.10414771,0.73733115,0.01345150
1755645697104,0.02986910,0.47542836,1.08066284,-0.04637662,-0.10385064,-0.00951496,0.66946923,0.10332916,0.73549819,0.01328356
1755645697126,0.01117634,-0.28427037,-0.10319240,-0.01917521,-0.11727858,-0.01210022,0.67092544,0.10311727,0.73420226,0.01314985
1755645697145,0.09639298,0.08338424,0.42924979,-0.05031466,-0.07793492,0.00951991,0.67181081,0.10263677,0.73345798,0.01324077
1755645697157,-0.11364411,0.35512267,-0.56272471,-0.06874769,-0.11991464,0.00677920,0.67265749,0.10222428,0.73273849,0.01328144
1755645697170,-0.31155881,-0.36660888,0.20706514,-0.06123416,-0.10719113,-0.01482425,0.67342744,0.10185075,0.73208463,0.01319101
1755645697183,0.38497405,0.10365409,0.33088227,-0.06959744,-0.08710420,0.00065301,0.67411578,0.10139489,0.73151410,0.01319529
1755645697199,-0.16982386,-0.10749229,0.33178860,-0.03817484,-0.05658688,-0.00647060,0.67464682,0.10109331,0.73106706,0.01314417
1755645697201,4.13944431,4.96891667,-36.69363400,-0.34597141,-0.40076414,0.07847148,0.67530031,0.10062625,0.73052603,0.01325011
1755645697213,-1.02071807,-1.15079738,8.49104655,-0.04754367,-0.06933083,-0.01770623,0.67576572,0.10035763,0.73013431,0.01315007
1755645697226,0.02601535,-0.04841158,0.41986472,-0.05386318,-0.05693581,-0.02020170,0.67623373,0.09999674,0.72975284,0.01301472
1755645697240,-0.12632626,-0.11846945,-0.13010261,-0.04000713,-0.06163987,-0.02013099,0.67674308,0.09971669,0.72932136,0.01287380
1755645697252,0.16887983,0.05197667,-0.27720890,-0.06511419,-0.08659517,0.01076673,0.67735876,0.09932601,0.72880179,0.01293840
1755645697263,0.06082107,0.09560311,-0.70577779,-0.09120909,-0.10856587,0.03085115,0.67808363,0.09881524,0.72819382,0.01311117
1755645697265,-0.13258572,4.06375216,-67.67322211,-0.49596077,-0.80466368,0.12422313,0.67887658,0.09839367,0.72750986,0.01321676
1755645697281,-0.02168524,-0.36078403,7.80196862,-0.03674218,-0.07799138,0.00183615,0.67957793,0.09810341,0.72689372,0.01323126
1755645697292,-0.11224275,0.14664944,-0.32474528,-0.04223470,-0.11881904,0.00279049,0.68032935,0.09786478,0.72622240,0.01324703
1755645697304,0.13332959,-0.16163258,-0.11958159,-0.03858260,-0.10901301,-0.00398093,0.68106666,0.09763136,0.72556287,0.01322295
1755645697306,8.61260055,0.23459332,-59.14853334,-0.35599050,-0.74518706,-0.04537376,0.68182704,0.09731097,0.72489220,0.01318211
1755645697317,-1.59361552,-0.07445230,9.77083220,-0.05693997,-0.09322401,-0.00387136,0.68243816,0.09698641,0.72436082,0.01316004
1755645697330,0.16773960,-0.41578192,-0.10871218,-0.04950296,-0.08642231,0.01011340,0.68305367,0.09667701,0.72382068,0.01322325
1755645697341,-0.12239654,0.01677836,0.04442364,-0.07595920,-0.09930231,0.05991736,0.68370165,0.09624784,0.72325963,0.01356178
1755645697361,0.06855581,0.27916650,0.24682267,-0.05104620,-0.05410399,0.03131989,0.68432932,0.09574504,0.72272670,0.01387029
1755645697372,0.21114113,-0.63634534,-0.66309384,-0.11250747,-0.11041636,0.04061735,0.68509767,0.09508687,0.72208077,0.01410790
1755645697385,-0.12899490,0.25326777,0.35459068,-0.03360930,-0.08422538,-0.00871996,0.68569164,0.09487345,0.72154593,0.01405252
1755645697398,0.03140698,0.20318647,-0.10229831,-0.05244842,-0.09095982,0.00629710,0.68635432,0.09453516,0.72095924,0.01409314
1755645697400,6.80406047,-3.25983100,-51.50095248,-0.24525830,-0.56856524,0.07474281,0.68695181,0.09430216,0.72041911,0.01416415
1755645697416,-0.94146067,0.36186946,6.59089408,-0.01951078,-0.04973666,0.01170335,0.68739376,0.09414413,0.72001624,0.01425894
1755645697428,0.12985192,-0.21937911,-0.20203488,-0.05405658,-0.05974704,0.04422590,0.68779748,0.09382790,0.71966672,0.01451767
1755645697429,6.30043864,-29.27208744,-45.31949179,-0.32278828,-0.61350274,0.30357570,0.68827280,0.09360194,0.71923727,0.01473017
1755645697441,-0.71818130,3.51623863,5.42843303,-0.04633985,-0.05585667,0.04904358,0.68864788,0.09332854,0.71890771,0.01501953
1755645697454,-0.05612740,0.17225869,-0.26083263,-0.00492830,-0.06701523,0.00863599,0.68911951,0.09329552,0.71845871,0.01507739
1755645697468,0.06564159,0.24046286,-0.25246765,0.01046795,-0.06727709,0.00109351,0.68957607,0.09336513,0.71801132,0.01508466
1755645697483,0.01043115,0.02038477,0.21224930,-0.01752476,-0.05973538,0.02094842,0.69007258,0.09322931,0.71754837,0.01524701
1755645697496,0.14258778,0.01632836,-0.39097484,-0.02491391,-0.07712561,0.03017594,0.69060682,0.09306862,0.71705091,0.01544164
1755645697509,0.10463842,-0.10882069,0.01534155,-0.04844076,-0.07601448,0.03653329,0.69114800,0.09275860,0.71656442,0.01567546
1755645697511,18.36430142,-6.80124180,-63.96461410,-0.23172677,-0.61313356,0.29283883,0.69174157,0.09255004,0.71601260,0.01593901
1755645697523,-2.75217692,0.78659058,9.51283772,-0.05801766,-0.05998597,0.04384732,0.69217145,0.09218743,0.71563768,0.01621306
1755645697536,0.03967285,-0.06141663,-0.11901855,-0.03329394,-0.06566030,0.04711088,0.69261620,0.09197935,0.71522731,0.01650750
1755645697569,-0.09672755,0.03887756,0.29030378,-0.01178897,-0.02225127,0.01924169,0.69301569,0.09178365,0.71485794,0.01682691
1755645697606,0.13811247,-0.01738441,-0.27646083,-0.02012981,-0.05619124,0.01410507,0.69411714,0.09141528,0.71382964,0.01708504
1755645697619,1.79348091,-0.38306413,-3.66252008,-0.18912489,-0.29112024,-0.01200587,0.69620400,0.09019542,0.71195191,0.01700760
1755645697653,-0.67331069,0.04671091,1.51408949,-0.03464335,-0.05718949,0.03642457,0.69727903,0.08959436,0.71095967,0.01763956
1755645697664,1.95716384,-0.23995417,-2.27626208,-0.17165447,-0.18345628,0.11158061,0.69834944,0.08870175,0.71000570,0.01821978
1755645697710,-0.46687910,0.16838508,0.56267150,-0.02829561,-0.04145068,0.00592356,0.69941425,0.08803964,0.70903575,0.01835839
1755645697727,1.18767783,-0.15106647,-1.47976345,-0.10478599,-0.13697369,-0.00577382,0.70065217,0.08718563,0.70791942,0.01831134
1755645697740,-0.13640240,-0.01444082,0.19163844,-0.07724877,-0.08156664,0.02452119,0.70124551,0.08668351,0.70738924,0.01847073
1755645697793,-0.30397602,0.03649207,0.47679798,-0.02468168,-0.01891829,0.00365241,0.70182881,0.08602945,0.70688790,0.01856751
1755645697828,0.39215128,-0.07140782,-0.15377750,-0.05580070,-0.04416892,0.00738984,0.70271938,0.08505573,0.70611715,0.01869647
1755645697841,2.35945940,0.30342913,-0.61122329,-0.02393111,-0.13115667,0.03806091,0.70362049,0.08489419,0.70523185,0.01895338
1755645697892,-0.85384030,0.01083157,0.29304287,0.00123835,-0.01837596,-0.00372777,0.70408950,0.08492583,0.70476234,0.01885813
1755645697931,0.24168349,0.03164016,-0.02344078,-0.00564838,-0.03029926,-0.01102040,0.70470095,0.08481541,0.70416999,0.01864268
1755645697972,-0.04919984,-0.14679509,0.00958143,-0.02321296,-0.00484919,0.00658997,0.70485490,0.08433606,0.70406985,0.01877877
1755645698007,-0.18143315,0.04094160,0.05768196,-0.02979522,-0.00705294,0.02874724,0.70502530,0.08381911,0.70394748,0.01927753
1755645698029,0.07319445,-0.18430778,-0.07375945,-0.07521347,-0.00243836,0.01550931,0.70514526,0.08299176,0.70392066,0.01944813
1755645698056,-0.32174737,-0.37376644,-0.12806443,-0.18059878,-0.02356912,0.06432066,0.70572295,0.08054465,0.70360130,0.02031968
1755645698094,-0.11822027,-0.06589307,-0.18498482,-0.19301919,-0.07715863,0.12036062,0.70749680,0.07692554,0.70215458,0.02257644
1755645698110,-0.91056029,-3.64108322,-2.05477079,-0.52473010,-0.14222409,0.29900773,0.70898711,0.07272770,0.70101678,0.02496850
1755645698123,0.65380704,1.41064218,0.28647480,-0.61319271,-0.17570705,0.30506780,0.71040587,0.06883393,0.69990104,0.02690568
1755645698152,0.14961543,1.11621359,0.78486619,-0.26008202,-0.10659325,0.17002681,0.71221277,0.06499772,0.69832879,0.02941358
1755645698154,-65.80092549,-209.10273369,-182.87316212,-5.22233716,-2.12584405,3.05867542,0.71473288,0.05951426,0.69609666,0.03262519
1755645698184,4.21676826,14.43443840,12.39944445,-0.29272934,-0.13456079,0.18776337,0.71693205,0.05507941,0.69405806,0.03546980
1755645698195,-1.46160154,-2.60227552,-2.90277960,-0.50234296,-0.24734335,0.26995278,0.71839129,0.05229141,0.69268531,0.03696804
1755645698201,-4.75766378,-16.17982206,-10.44932113,-1.18749486,-0.61933803,0.60766649,0.72007523,0.04920392,0.69107503,0.03854797
1755645698217,2.70430025,5.69274249,4.28729048,-0.42079596,-0.21145571,0.20569338,0.72188111,0.04573236,0.68933052,0.04024494
1755645698230,0.20183583,-0.50835762,-0.91809092,-0.55093353,-0.30878033,0.30116430,0.72383671,0.04226147,0.68738520,0.04214228
1755645698241,-0.17426894,-0.64139416,-0.89410635,-0.59423227,-0.38759845,0.36972959,0.72597349,0.03890406,0.68519527,0.04423125
1755645698247,-4.27198085,-11.66902998,-11.08411946,-1.03536356,-0.80359614,0.74568561,0.72818563,0.03590151,0.68286484,0.04639374
1755645698259,2.28256176,5.15638636,4.54986881,-0.59424905,-0.43697743,0.50986335,0.73054150,0.03242515,0.68030852,0.04937644
1755645698271,-0.31363302,-0.68172453,0.16295444,-0.60882555,-0.47874871,0.51636701,0.73316469,0.02874176,0.67741209,0.05250046
1755645698285,0.44130732,0.83476467,0.48560177,-0.50781244,-0.41463845,0.48199746,0.73586191,0.02498394,0.67434377,0.05606724
1755645698287,-35.66087051,-703.93932101,-706.92818327,-8.29133620,-7.34951245,7.66273893,0.74029108,0.01918001,0.66919911,0.06143116
1755645698304,3.09173753,58.82368541,58.77511304,-0.55221079,-0.47491357,0.45930967,0.74365430,0.01454144,0.66520984,0.06528936
1755645698316,-0.55157949,-3.31485792,-3.67609281,-0.78422999,-0.82956843,0.79708856,0.74772075,0.00983606,0.66023243,0.07007189
1755645698317,-42.21686309,-337.56733110,-467.78165252,-5.80798501,-6.22160091,5.73300423,0.75193585,0.00489927,0.65494407,0.07494495
1755645698329,5.94615868,51.85867423,69.20270794,-0.74556840,-0.90210860,0.64396605,0.75599131,0.00068681,0.64984715,0.07858335
1755645698341,0.34266223,0.55741697,0.18480530,-0.59999626,-0.84278149,0.47594697,0.76003601,-0.00294317,0.64474832,0.08146283
1755645698361,0.18422028,1.97080004,2.62742875,-0.35815161,-0.54623868,0.29356882,0.76423241,-0.00647096,0.63936787,0.08435449
1755645698373,0.55230882,-2.37196447,-4.31882353,-0.54833196,-0.87337929,0.50608684,0.76834327,-0.00987062,0.63395292,0.08749222
1755645698375,-17.17876599,-285.26436398,-403.83986448,-4.09683717,-6.51320320,3.54379043,0.77271901,-0.01355777,0.62809104,0.09068164
1755645698386,3.21525735,44.70977790,65.05433737,-0.68994774,-1.00138063,0.60212273,0.77669428,-0.01735249,0.62258344,0.09399331
1755645698397,-0.36568184,0.58311091,0.56156725,-0.72983407,-1.02984639,0.61788722,0.78097135,-0.02165851,0.61650735,0.09763885
1755645698409,-0.29374654,0.44128440,-0.42353048,-0.70070360,-0.98212583,0.51579152,0.78483293,-0.02561748,0.61095834,0.10055307
1755645698421,-0.73711663,1.82809922,1.66034394,-0.59160548,-0.88958863,0.39896673,0.78852689,-0.02916711,0.60562081,0.10294687
1755645698432,-0.29979717,0.68686624,-0.56056749,-0.42323469,-0.87581881,0.29511396,0.79196235,-0.03153723,0.60071622,0.10459951
1755645698449,0.24605412,1.28827585,2.48404135,-0.20011215,-0.51881470,0.10734225,0.79515324,-0.03326820,0.59622848,0.10552802
1755645698461,-0.36339118,-0.51563058,-3.46519864,-0.30938019,-0.71585836,0.14535162,0.79813563,-0.03510901,0.59196912,0.10639286
1755645698472,0.66746648,-1.01917212,-0.31863978,-0.40472239,-0.77061931,0.17257476,0.80108692,-0.03737546,0.58765365,0.10735928
1755645698485,0.73743884,-0.48547354,0.66849303,-0.41556324,-0.70255123,0.21864992,0.80393507,-0.03993117,0.58333296,0.10870397
1755645698496,0.54083591,-0.91362521,-1.60129848,-0.53397149,-0.79327728,0.31594179,0.80667133,-0.04284131,0.57900960,0.11042586
1755645698497,22.55570998,-275.12264543,-539.31886632,-3.92036149,-6.00385284,2.07598263,0.80950968,-0.04578159,0.57450671,0.11198284
1755645698509,-2.96367539,35.68621145,68.92614894,-0.44767625,-0.71040928,0.26614871,0.81214040,-0.04846764,0.57024425,0.11357974
1755645698523,-0.49463968,1.45135307,1.11810351,-0.34546450,-0.65788290,0.20664898,0.81496372,-0.05085135,0.56570486,0.11500561
1755645698538,-0.37331574,1.06401055,0.68722406,-0.18017357,-0.52084521,0.12033761,0.81743237,-0.05219364,0.56182457,0.11590213
1755645698552,-0.29605957,-0.02807797,0.01109390,-0.07795042,-0.49472581,0.05827266,0.81974146,-0.05274709,0.55831201,0.11631587
1755645698563,-0.06774929,-0.78366443,-2.92174616,-0.09617978,-0.62093535,0.02626830,0.82208433,-0.05329531,0.55477268,0.11646559
1755645698574,0.61205005,-0.26839460,2.42190159,-0.17380702,-0.55321847,0.10131157,0.82397093,-0.05424256,0.55175764,0.11701774
1755645698585,0.55994440,-0.24322759,-0.86471235,-0.24496510,-0.53913516,0.13245637,0.82578800,-0.05561437,0.54873848,0.11775950
1755645698597,-0.58774412,-0.85220682,0.67266580,-0.27135843,-0.55583516,0.16385673,0.82767823,-0.05718825,0.54551464,0.11870987
1755645698608,0.25459058,-0.44197404,-0.71358666,-0.31728652,-0.54889097,0.16575295,0.82937572,-0.05890159,0.54255063,0.11960493
1755645698609,-17.28669855,-175.37191241,-496.64229914,-2.91821693,-4.23388735,1.78109376,0.83097932,-0.06094435,0.53958691,0.12085170
1755645698638,0.90873759,9.32107916,26.65652168,-0.12184362,-0.19461771,0.08253053,0.83248877,-0.06269889,0.53678441,0.12204014
1755645698641,1.49859322,-178.55495214,-322.49450684,-3.44100543,-4.27508871,2.30497395,0.83515063,-0.06700015,0.53144055,0.12492136
1755645698660,-0.40334466,22.73834390,40.59105592,-0.25423018,-0.27862716,0.16471584,0.83641661,-0.06945347,0.52875180,0.12651086
1755645698673,-0.32890463,-1.29517163,-2.12916702,-0.32795851,-0.38698098,0.18169552,0.83764287,-0.07158520,0.52623642,0.12769188
1755645698684,-0.33443768,-0.10386427,-1.06139457,-0.36942548,-0.44944989,0.21804915,0.83884231,-0.07363551,0.52374198,0.12890206
1755645698696,0.23779458,-0.13071992,0.81275584,-0.31308706,-0.38587508,0.20948929,0.83994077,-0.07554534,0.52138814,0.13017994
1755645698718,0.36944538,1.04118170,1.77787479,-0.21755532,-0.19568322,0.12649584,0.84081396,-0.07787319,0.51929433,0.13153345
1755645698719,-96.42352458,-587.69246949,-1067.92880330,-7.10163489,-6.13674933,3.05886277,0.84251278,-0.08248925,0.51530544,0.13352171
1755645698743,5.01673146,31.51650425,57.28640571,-0.15311033,-0.14613227,0.04408166,0.84333056,-0.08435719,0.51352263,0.13405950
1755645698745,-59.45249722,-96.08311675,-300.74091701,-1.86202361,-1.83147115,0.11291848,0.84410164,-0.08593991,0.51196588,0.13415549
1755645698767,4.58588707,7.61084432,22.78803004,-0.09939226,-0.10374859,0.00482241,0.84468017,-0.08704814,0.51080908,0.13420926
1755645698803,0.02636665,0.12045461,0.53879076,-0.07671518,-0.06551897,0.00938211,0.84522058,-0.08842518,0.50963301,0.13437766
1755645698840,-0.07427790,-0.60284804,-1.26357725,-0.30149721,-0.19296631,0.04291621,0.84662456,-0.09395765,0.50609208,0.13516518
1755645698874,0.12271914,0.48231516,0.09815386,-0.21654314,-0.16968628,-0.00684235,0.84794886,-0.09764971,0.50319893,0.13504851
1755645698904,-0.35575168,0.22272843,0.37151559,-0.08966558,-0.10317139,-0.02115939,0.84875189,-0.09898124,0.50166684,0.13473430
1755645698955,0.04914056,0.04423178,0.54626934,-0.05156048,-0.01735144,-0.00134242,0.84886612,-0.10031666,0.50121743,0.13469953
1755645698983,-1.25858333,-0.11171549,-0.70419592,-0.10267233,0.14469319,-0.10965605,0.84776634,-0.10171814,0.50319250,0.13320272
1755645699015,0.38103126,-0.37978364,0.95116967,-0.11472593,0.17622049,0.03550080,0.84573658,-0.10358817,0.50606489,0.13378139
1755645699036,0.09376213,0.13153399,0.49865084,-0.14804645,0.25390446,0.14887095,0.84376251,-0.10509084,0.50864202,0.13529243
1755645699056,-0.65973620,0.17554781,0.12383882,0.01056255,0.30367241,0.04581486,0.84187339,-0.10498574,0.51166356,0.13574828
1755645699103,0.58416362,0.11149798,0.04347303,-0.01547626,0.11918424,0.02400926,0.84000026,-0.10535485,0.51450610,0.13632091
1755645699123,-1.92877835,-1.54255457,0.37308261,-0.22730651,0.40504785,0.16656077,0.83705151,-0.10754836,0.51841482,0.13792822
1755645699152,1.08465663,0.69037720,0.08659714,-0.11855167,0.18139198,0.09272171,0.83491291,-0.10931478,0.52111756,0.13930977
1755645699188,-0.23133776,-0.16976271,-0.04217787,-0.15680585,0.23357020,0.12708158,0.83158827,-0.11207456,0.52522839,0.14154641
1755645699220,-0.19227578,-0.11873834,-0.17326833,-0.12788906,0.25678367,0.10698525,0.82840567,-0.11412079,0.52933693,0.14325817
1755645699243,-0.33525163,-0.22517133,0.15909703,-0.14789454,0.36413808,0.16670289,0.82508596,-0.11585116,0.53359735,0.14520859
1755645699256,0.19826611,-1.25822476,0.37750279,-0.22649626,0.40923310,0.23946778,0.82289208,-0.11731206,0.53623690,0.14675316
1755645699294,0.75999474,0.72790611,-0.22933625,-0.12548186,0.12821428,0.09129825,0.82066126,-0.11967739,0.53865374,0.14847413
1755645699325,-0.06351966,0.08195234,-0.07616710,-0.17895154,0.11748497,0.09298676,0.81875424,-0.12250482,0.54051000,0.14994332
1755645699354,-0.45860309,-0.39772819,-0.25891263,-0.17025024,0.15463998,0.15399503,0.81652208,-0.12493089,0.54271362,0.15213775
1755645699374,-0.18262885,-0.96268364,-0.67504651,-0.28490976,0.11894733,0.23074532,0.81482125,-0.12783697,0.54392688,0.15449136
1755645699421,0.44758629,0.86621640,0.23404587,-0.07425612,0.00794168,0.04566800,0.81421401,-0.12958941,0.54411431,0.15556912
1755645699444,-1.29171226,-1.57148848,-1.92366932,-0.17537006,-0.01196049,0.19241056,0.81356215,-0.13158863,0.54397796,0.15776260
1755645699498,0.50761499,0.35954102,0.61470933,-0.16855835,-0.03359546,0.11520205,0.81280557,-0.13616499,0.54306584,0.16089034
1755645699502,-61.11507273,-139.26410055,-150.89814481,-3.82029653,-1.01472824,2.63637260,0.81202182,-0.14208645,0.54149301,0.16497671
1755645699536,5.18177006,11.71114074,12.86762413,-0.26790721,-0.08821217,0.22158045,0.81142216,-0.14674804,0.53995812,0.16883221
1755645699572,0.01891561,0.67109789,0.23703234,-0.24415623,-0.07656391,0.12758959,0.81105772,-0.15105739,0.53860677,0.17108417
1755645699587,-0.69149111,-0.06071029,-0.51231611,-0.11993444,-0.04410739,0.10099575,0.81094405,-0.15199888,0.53826052,0.17187699
1755645699602,0.00869390,-0.28989887,-0.37649987,-0.12438758,-0.01825420,0.08983368,0.81071945,-0.15291935,0.53812544,0.17254176
1755645699625,0.69635464,0.78420955,1.02672323,-0.06218826,-0.00772342,0.02217558,0.81058829,-0.15363762,0.53803624,0.17279788
1755645699638,-1.37996014,-0.03552436,-1.97434217,-0.11057886,-0.01835597,0.00063028,0.81053320,-0.15431768,0.53792335,0.17280176
1755645699640,-36.20683010,14.17254460,-48.16336163,-0.16244228,0.03669511,-0.19639080,0.81051435,-0.15454510,0.53797472,0.17252681
1755645699655,6.67262678,-1.69563974,9.25155868,0.07277888,0.02834902,-0.07966399,0.81060167,-0.15401382,0.53818167,0.17194527
1755645699668,0.63854129,-0.25009352,0.42620349,0.08760748,0.01231295,-0.09316728,0.81079035,-0.15342685,0.53826417,0.17132104
1755645699680,0.03531907,-0.12136140,-0.07252933,0.05605703,-0.01274153,-0.07198490,0.81099238,-0.15309611,0.53818899,0.17089633
1755645699711,0.54591346,0.05592281,0.83509028,0.00303651,-0.00715343,-0.01250527,0.81111525,-0.15304919,0.53807847,0.17070313
1755645699713,-131.51942089,-14.08529285,-199.75134036,0.19342692,-0.50288160,-0.26601046,0.81156227,-0.15284610,0.53755045,0.17042382
1755645699766,5.23404993,0.60122966,7.92805570,0.00374467,-0.00806743,-0.00550077,0.81175454,-0.15274611,0.53733504,0.17027695
1755645699779,-9.68587695,7.70450719,-16.15384621,0.64064422,-0.01103475,-0.39230742,0.81301222,-0.14887022,0.53726828,0.16790349
1755645699818,2.57380086,-2.09046874,4.44689779,0.17031213,0.03110065,-0.10921024,0.81365736,-0.14550655,0.53788252,0.16574658
1755645699836,-1.87529825,2.07043217,-2.71425273,0.21476620,0.00230719,-0.20843986,0.81436276,-0.14358439,0.53790317,0.16388105
1755645699870,1.01270300,-1.01486220,1.53506808,0.14493347,0.01613537,-0.10799368,0.81498835,-0.14108429,0.53818151,0.16201816
1755645699904,0.15582200,-0.01559321,-0.01145967,0.10824519,0.01590237,-0.07569683,0.81537066,-0.13929283,0.53844469,0.16076537
1755645699913,-3.82499383,7.93524793,-10.36946653,0.62975913,0.12933621,-0.37419059,0.81583718,-0.13617553,0.53908491,0.15891313
1755645699937,1.87659606,-3.04755637,4.51947720,0.20397093,0.07868816,-0.14983476,0.81596325,-0.13377887,0.54000949,0.15715257
1755645699965,0.38919117,-0.31844593,0.33328841,0.09353259,0.06904141,-0.07757141,0.81574268,-0.13245538,0.54098643,0.15605494
1755645699981,0.42773203,0.10833128,0.31443273,0.03888712,0.07049532,-0.05394576,0.81550889,-0.13215401,0.54153277,0.15563686
1755645699992,0.51573670,0.60454778,-0.46272654,0.06550660,0.11342964,-0.08666545,0.81524347,-0.13179372,0.54215663,0.15516020
1755645700004,0.27424205,0.07599917,0.26494806,0.09272510,0.11837210,-0.12160837,0.81498888,-0.13121419,0.54289645,0.15440014
1755645700025,-0.45294947,-0.49109782,0.25395566,0.06742750,0.05838414,-0.07915660,0.81485495,-0.13052643,0.54349197,0.15359275
1755645700026,126.55195847,104.83638913,-56.35093240,1.09674747,0.84892243,-1.41090742,0.81476015,-0.12970387,0.54412866,0.15253457
1755645700039,-13.60279645,-11.52951044,6.18418337,0.11737243,0.08907497,-0.13997330,0.81466494,-0.12894681,0.54470320,0.15163174
1755645700058,-0.65142782,-0.43905953,0.34064609,0.06332947,0.03787472,-0.05954248,0.81462459,-0.12834835,0.54506111,0.15106906
1755645700082,-0.04244041,-0.12750081,0.04611448,0.04144089,0.02991051,-0.04074429,0.81455188,-0.12784277,0.54542602,0.15057198
1755645700104,0.67012368,0.48699035,-0.16413570,0.10506496,0.05128109,-0.09845712,0.81455401,-0.12669231,0.54598755,0.14949388
1755645700106,241.13589770,123.88911603,-45.86926697,1.67888273,0.55567861,-1.38175112,0.81465895,-0.12543315,0.54640431,0.14845756
1755645700127,-17.02450400,-9.16697120,3.13893154,0.08385303,0.01309674,-0.04348596,0.81478725,-0.12453592,0.54654444,0.14799226
1755645700160,-0.29148143,-0.09691709,0.07353709,0.02928834,0.00473831,-0.00823473,0.81483264,-0.12405852,0.54662168,0.14785804
1755645700180,1.34765665,0.64175570,-0.95421643,0.10213555,0.02261040,-0.05930420,0.81494646,-0.12300653,0.54685457,0.14724720
1755645700192,0.31412908,-0.41870636,-0.86605651,0.12476145,0.01875633,-0.07429561,0.81506497,-0.12225172,0.54696804,0.14679772
1755645700205,-1.59657592,-0.86875589,1.09052534,0.01333398,0.00837435,-0.00924083,0.81505304,-0.12217038,0.54701913,0.14674135
1755645700226,-0.68801305,-0.10644160,0.56565539,-0.00041276,0.01125495,-0.01237424,0.81499564,-0.12217478,0.54713899,0.14660956
1755645700247,-0.19129355,0.11307567,0.00304215,-0.01509173,0.02215222,-0.02109499,0.81485481,-0.12233400,0.54737270,0.14638701
1755645700270,0.18460620,0.10956942,-0.36503561,-0.00515414,0.06149320,-0.05873810,0.81449789,-0.12239224,0.54806757,0.14572327
1755645700272,44.36002698,0.32216626,-111.29166660,0.01598050,0.72643605,-0.81728128,0.81413980,-0.12237546,0.54883033,0.14486512
1755645700317,-2.16808194,-0.21044131,5.27712604,-0.02400990,0.01638891,-0.02076730,0.81388942,-0.12292288,0.54920399,0.14439163
1755645700338,0.89682511,-0.74148994,-1.83727097,-0.18677267,0.01346719,-0.01087829,0.81352278,-0.12484664,0.54934271,0.14427958
1755645700360,-0.53863911,0.46124152,0.59537283,-0.08138052,-0.02017368,-0.00452047,0.81354336,-0.12573369,0.54912281,0.14423031
1755645700371,0.92827160,-1.78492350,-4.29448843,-0.09578802,-0.05963804,-0.02575531,0.81370369,-0.12624616,0.54880375,0.14409252
1755645700404,-0.38439602,0.55965574,1.69809840,-0.06653059,-0.04568922,0.01338522,0.81400963,-0.12737385,0.54802932,0.14431940
1755645700416,1.50002064,-0.82571199,-4.67633634,-0.19808101,-0.16675439,0.04702152,0.81443111,-0.12852272,0.54706214,0.14459212
1755645700456,-0.53045091,0.39584204,1.51574991,-0.01394070,-0.03907411,0.00984899,0.81487873,-0.12880293,0.54627675,0.14479009
1755645700488,0.22231902,-0.21785564,-1.41220373,-0.06502177,-0.14529850,0.06397121,0.81609289,-0.12984978,0.54393745,0.14582002
1755645700505,-1.10547576,0.10405820,-2.93517390,-0.05514151,-0.19155342,-0.01039123,0.81709287,-0.13030745,0.54234755,0.14573378
1755645700557,0.02841073,0.12731570,1.63142666,0.00770474,-0.03447058,-0.02270343,0.81782533,-0.13010674,0.54144960,0.14514235
1755645700568,-5.35367797,-5.43254176,-19.20712774,-0.10840302,-0.21864145,0.04826398,0.81850179,-0.13072464,0.54020334,0.14541746
1755645700594,1.34545367,2.18118511,6.64652926,-0.04416869,-0.02239032,0.03925094,0.81851085,-0.13128117,0.53992122,0.14591202
1755645700616,-0.51353980,-0.26966938,-0.80512794,0.05043050,-0.04495138,-0.03754980,0.81899904,-0.13072643,0.53942676,0.14549897
1755645700639,0.86287941,-0.00120869,1.42743854,-0.00687384,-0.04573011,0.04710549,0.81923617,-0.13080548,0.53890086,0.14604068
1755645700650,-3.61085414,-0.86257659,-8.76325787,-0.03750534,-0.11612368,0.38382377,0.81924414,-0.13101551,0.53825057,0.14819010
1755645700661,0.05883994,2.47933126,2.65861929,0.02680280,-0.05723093,0.29705846,0.81917790,-0.13086943,0.53793866,0.14980907
1755645700694,1.25800546,-0.10456508,2.78112747,0.04998523,-0.00122120,0.04851961,0.81917570,-0.13004968,0.53791863,0.15060479
1755645700704,-10.31871593,-2.61181203,-21.44814372,0.42789346,-0.02591908,0.23622036,0.81938163,-0.12788881,0.53778774,0.15179770
1755645700727,3.53429344,0.84752501,7.01342670,0.07342536,-0.02164938,0.13520700,0.81938681,-0.12704809,0.53753985,0.15334582
1755645700728,-232.42180369,-49.86092900,-542.60053198,0.90874379,0.04223760,1.80072602,0.81918335,-0.12623023,0.53757787,0.15496647
1755645700778,8.98375615,1.86191631,20.83357365,0.04580577,0.00606478,0.06927060,0.81893463,-0.12510569,0.53772676,0.15666707
1755645700819,-1.16841759,-0.75555181,-2.65731180,0.12170893,0.03106017,0.23903972,0.81792115,-0.12256198,0.53837592,0.16166300
1755645700839,-1.60828732,-2.86757590,-5.69276262,-0.02869130,0.12573549,0.47652378,0.81609174,-0.12284889,0.53963327,0.16642823
1755645700864,0.50085552,0.54280257,1.81705098,-0.19985362,0.12714339,0.42630237,0.81356161,-0.12533707,0.54121621,0.17173570
1755645700906,1.00631100,1.14441919,3.04057781,-0.09839160,0.06059217,0.13163596,0.81180306,-0.12740329,0.54248864,0.17450005
1755645700928,-4.87590483,-2.75569126,-9.14878455,-0.21619656,0.16847576,0.22976269,0.80969515,-0.12971659,0.54429133,0.17695852
1755645700964,2.18415447,1.71454156,4.69879796,-0.00962119,0.07715948,0.03536622,0.80857403,-0.12989266,0.54570335,0.17760572
1755645701007,-1.81411647,0.00022883,-2.06496319,-0.07635404,0.05958536,0.04760859,0.80722591,-0.13152282,0.54697550,0.17862216
1755645701070,0.46945294,0.33125233,0.93722424,-0.09447377,-0.02501726,0.00397984,0.80724146,-0.13451764,0.54618245,0.17874832
1755645701098,-11.01857649,0.46937507,-11.60681981,0.06066883,-0.11394217,0.00954800,0.80842980,-0.13366828,0.54458726,0.17888199
1755645701114,-14.96485836,-2.61784859,-10.29693617,0.55153053,-0.02082615,-0.35005265,0.80984630,-0.12933876,0.54442378,0.17613408
1755645701150,9.48158084,-0.22980838,9.42222071,-0.00868820,-0.11358606,-0.01773910,0.81125349,-0.12949428,0.54239058,0.17581655
1755645701182,0.16104426,-0.20916949,1.05093138,-0.01689307,-0.05592499,0.07279443,0.81155943,-0.12976879,0.54148180,0.17699946
1755645701205,3.17494008,0.42426868,2.76599073,0.03825005,-0.00692598,-0.02556322,0.81174032,-0.12934422,0.54140493,0.17671571
1755645701216,-26.28389660,-3.46355033,-21.20486073,-0.07513926,-0.10336290,-0.08800657,0.81217364,-0.12977251,0.54081576,0.17621407
1755645701227,11.28086732,1.72052906,9.41949817,0.01443896,-0.06394871,-0.03019572,0.81246412,-0.12969093,0.54045445,0.17604346
1755645701239,4.36851828,1.14608035,4.52767219,0.01988308,-0.02524815,-0.02406604,0.81261643,-0.12957064,0.54030170,0.17589787
1755645701273,7.39219489,0.87367883,5.90560708,0.01310174,-0.00112546,-0.01605771,0.81272210,-0.12935118,0.54028284,0.17562890
1755645701311,-4.20471992,-0.82874517,-3.15406247,0.06160824,0.02662787,-0.07599796,0.81288305,-0.12817139,0.54079277,0.17417354
1755645701360,-4.43772862,-0.70366075,-3.01571747,-0.00308166,0.02142773,-0.00935737,0.81257266,-0.12824642,0.54131453,0.17394569
1755645701370,-153.22006678,-32.82808439,-103.85657160,-0.63751322,0.15640015,0.48424018,0.81098728,-0.13149774,0.54211217,0.17641531
1755645701404,41.53283652,10.02547143,29.78657212,-0.05060393,0.10855670,0.15068050,0.80903084,-0.13236560,0.54397392,0.17899948
1755645701427,-4.31076279,0.95954950,-1.91697293,0.22082579,0.14089190,-0.06784150,0.80852561,-0.12983714,0.54558713,0.17822270
1755645701454,6.43463910,1.89866176,4.20100827,0.15918701,0.01589148,-0.08396311,0.80896544,-0.12771996,0.54579849,0.17710599
1755645701474,5.16682230,0.03629025,3.31611571,0.33073475,0.00204565,-0.13707337,0.80976954,-0.12439607,0.54581905,0.17572840
1755645701476,-2101.49904981,51.90978892,-1195.74212316,3.77539022,-0.19426028,-1.89902726,0.81088075,-0.12062068,0.54562479,0.17382937
1755645701494,219.33037558,-1.86098946,125.14473479,0.40430773,-0.14904257,-0.14396638,0.81259026,-0.11698191,0.54428340,0.17253367
1755645701520,13.72712884,-0.71711838,7.61543763,0.23467730,-0.11599754,-0.11628500,0.81432314,-0.11397804,0.54279864,0.17104523
1755645701540,-11.67639833,1.88064887,-6.80487543,0.64172076,-0.23692855,-0.32760627,0.81752448,-0.10740040,0.54037012,0.16768726
1755645701551,-73.28431857,22.10409206,-43.20567982,1.05619729,-0.71142654,0.00723171,0.82076968,-0.10169694,0.53652842,0.16772631
1755645701573,43.06757961,-10.14377913,25.16237420,0.30878221,-0.23481509,-0.03982742,0.82297414,-0.09826946,0.53392197,0.16728423
1755645701607,1.19070857,-0.17629319,0.46239685,0.35833719,-0.21442858,-0.16124419,0.82654915,-0.09223148,0.53030885,0.16456726
1755645701628,-42.70648979,10.22292289,-28.06270477,1.47159837,-0.64834545,-0.49930241,0.83372186,-0.07619105,0.52324188,0.15912487
1755645701662,26.41457069,-6.63832012,16.27625980,0.28535994,-0.28284837,-0.20850898,0.83773058,-0.07143981,0.51853246,0.15565319
1755645701673,-130.51550058,20.88462700,-99.25051900,0.41989285,-1.53785207,-0.45435675,0.84355735,-0.06913040,0.51007427,0.15315423
1755645701695,56.05263073,-9.73190389,41.79987709,0.11410324,-0.46901780,-0.13760382,0.84710775,-0.06784674,0.50479782,0.15160619
1755645701717,9.83651655,-1.91599815,6.93114549,0.02848349,-0.29098958,-0.09391254,0.84922534,-0.06753200,0.50158238,0.15056846
1755645701728,-58.83117939,8.91199309,-45.43065646,-0.02735048,-0.81648294,0.06631999,0.85166955,-0.06767559,0.49729585,0.15091664
1755645701740,35.08860604,-5.64641171,27.14188128,-0.10536221,-0.45225151,0.09456439,0.85308542,-0.06830249,0.49460495,0.15147929
1755645701752,7.04766734,-3.47079938,5.05425164,-0.06302457,-0.36032116,0.12517319,0.85416237,-0.06867749,0.49246104,0.15222407
1755645701774,12.10492214,-1.11811430,9.19675661,-0.04868293,-0.15347052,0.03440026,0.85503063,-0.06921787,0.49075752,0.15260592
1755645701796,-2.83118011,0.00694750,-2.22634822,-0.05959270,-0.16312624,0.00673472,0.85600465,-0.06988233,0.48893866,0.15268101
1755645701806,-93.15518884,9.48328663,-69.15193974,-0.08306424,-0.57405855,-0.01005125,0.85759674,-0.07029349,0.48609707,0.15263126
1755645701839,30.94764746,-3.13114483,23.26374447,0.00297837,-0.07463945,0.01872215,0.85824852,-0.07024390,0.48485432,0.15294298
1755645701861,-35.25996685,1.16853884,-26.94174674,-0.04859484,-0.16708894,0.03306900,0.85916297,-0.07077116,0.48304141,0.15330178
1755645701885,18.15360372,-0.86242426,13.31098189,0.11907055,-0.14709760,-0.15408368,0.86056707,-0.06937208,0.48131301,0.15149129
1755645701895,-73.42043107,3.38561956,-58.10425970,0.77994960,-0.31245301,-0.58894433,0.86230680,-0.06535534,0.47970388,0.14845823
1755645701918,40.29364909,-1.79336713,31.98633419,0.20024172,-0.03908727,-0.28538804,0.86330330,-0.06301251,0.47924656,0.14511919
1755645701929,-30.23940997,0.50437428,-25.06233415,0.31431306,-0.03120835,-0.63447484,0.86410936,-0.06126807,0.47907335,0.14159786
1755645701951,12.94598299,-0.82242267,9.28029018,0.18995794,-0.11083270,-0.23253531,0.86529432,-0.05926402,0.47790407,0.13914461
1755645701952,-2113.07828604,-79.28784806,-1878.61357833,2.40034247,-1.74538680,-0.35830580,0.86641563,-0.05698369,0.47624595,0.13880422
1755645701997,95.50671741,3.18759469,84.71509210,0.08869568,-0.03217325,0.01996687,0.86686797,-0.05499691,0.47552527,0.13925148
1755645702019,-41.25093980,-1.72636179,-34.36437805,0.69827426,0.35075959,-0.45305553,0.86597763,-0.04728098,0.47940116,0.13424521
1755645702030,-20.68333185,-3.78532446,-26.51679816,0.90249082,0.55246972,-0.47788470,0.86498802,-0.04249778,0.48232925,0.13171242
1755645702085,19.02587548,1.15744878,17.12436221,0.16936770,0.11154464,-0.05893575,0.86373276,-0.03784016,0.48539673,0.13009169
1755645702096,-167.35032449,-7.82873039,-167.55419947,2.05356295,0.84073383,-0.85455507,0.86220752,-0.02634021,0.49010484,0.12530618
1755645702130,43.41144710,2.46288877,42.49694777,0.66498610,0.20745150,-0.26267606,0.86108949,-0.01490245,0.49367300,0.12078815
1755645702152,-2.15597970,1.96009621,-1.47833326,1.21262584,0.27028602,-0.27305267,0.85994010,-0.00174546,0.49660561,0.11782553
1755645702173,11.09150392,-0.00019129,12.92921105,0.78416879,0.33667350,-0.18132041,0.85810773,0.00656673,0.50017435,0.11590354
1755645702186,-21.14213601,2.93038665,-16.83676448,1.13683625,0.79209799,-0.46621033,0.85552993,0.01361511,0.50508535,0.11301303
1755645702219,11.37676844,0.38007035,10.15969312,0.29804873,0.39724640,-0.08576673,0.85164987,0.01862233,0.51175909,0.11157215
1755645702253,-11.23186382,3.41213240,-10.20611071,1.09724287,0.77357374,-0.43292827,0.84397886,0.03716574,0.52483249,0.10425566
1755645702264,-148.27808416,42.11231273,-121.96942955,2.46133018,1.57551134,-1.02090576,0.83880702,0.04996465,0.53302515,0.09894695
1755645702286,70.92228985,-21.22111027,60.05317636,0.29564281,0.35952902,-0.15018771,0.83627400,0.05321672,0.53697997,0.09729489
1755645702308,11.44062566,-3.79133285,9.42006219,0.05886143,0.14777865,-0.00724970,0.83516627,0.05388186,0.53864987,0.09721297
1755645702319,-65.64429149,9.50839467,-51.65670782,-0.17953440,0.26721925,0.17975115,0.83416394,0.05289442,0.54011957,0.09820160
1755645702342,33.94187717,-4.96032641,28.13457523,-0.01903439,0.07036733,0.05140404,0.83358595,0.05267647,0.54092528,0.09879017
1755645702364,-1.93013301,0.15781335,-0.78466291,0.05618137,0.08717515,-0.01805389,0.83294712,0.05329447,0.54188421,0.09859158
1755645702386,-12.41648493,0.90490688,-8.15943253,0.08603915,0.16042819,0.00110864,0.83173378,0.05424090,0.54364892,0.09860378
1755645702397,-60.61706746,5.84156612,-35.08375718,-0.53771350,0.26231152,0.25613933,0.83079992,0.05125659,0.54510474,0.10002535
1755645702423,31.65716498,-3.31759886,21.16330230,-0.24319778,0.11140877,0.07191314,0.82992729,0.04810718,0.54654749,0.10095662
1755645702452,-2.51877507,-0.23893699,-0.65274103,-0.19378092,0.13612527,0.02611306,0.82874034,0.04530705,0.54851450,0.10133396
1755645702479,-13.09104308,-0.82075444,-5.90067745,-0.36571153,0.21957871,0.23887737,0.82658525,0.04027851,0.55153371,0.10461852
1755645702499,-5.42663966,-3.12258635,-0.34272891,-0.53554435,0.27225441,0.33316391,0.82486185,0.03567283,0.55387509,0.10748373
1755645702541,14.87468352,0.24196390,7.26796787,-0.17506590,0.05691464,0.04319805,0.82404547,0.03178637,0.55513860,0.10844273
1755645702580,-12.83565830,-1.27996239,-4.91197120,0.14143162,0.03229125,-0.04087910,0.82361891,0.03451600,0.55576182,0.10765376
1755645702614,-5.83290240,-1.53914720,0.28590124,0.01821027,0.33424686,0.14250882,0.81943357,0.03482466,0.56142730,0.11006929
1755645702624,-170.80969356,-23.35886402,-37.30148347,0.31029936,1.42994047,-0.24371977,0.81414374,0.03651579,0.56922048,0.10874101
1755645702675,44.92386224,5.28045900,12.14703563,0.03021139,0.22218760,-0.01817557,0.81019558,0.03728316,0.57486404,0.10827935
1755645702689,-75.54295464,-14.13999429,-12.04963218,0.01792629,0.64737543,0.13708172,0.80689858,0.03740596,0.57929857,0.10921836
1755645702739,25.35242437,4.33178036,4.94432765,0.07300331,0.14872597,0.00761179,0.80412020,0.03922009,0.58299441,0.10940752
1755645702763,-54.68320136,-7.84940785,-5.47360920,0.22180238,0.56404719,-0.16390720,0.79915892,0.04195935,0.58996039,0.10738326
1755645702776,-22.56732894,3.52283740,4.40749195,0.54021322,0.52387391,-0.50246168,0.79696349,0.04533568,0.59323460,0.10424288
1755645702796,40.95984131,7.15584777,4.16148882,0.43790147,0.18902812,-0.76498717,0.79626799,0.04964901,0.59509653,0.09670775
1755645702820,12.10799109,3.71292733,1.50838487,0.78994249,0.13578650,-0.53851627,0.79513899,0.05928631,0.59675312,0.09013786
1755645702832,-18.30162874,5.55401244,3.69968839,0.85484096,0.30711681,-0.45995940,0.79364910,0.06445810,0.59861118,0.08735510
1755645702875,20.75711069,-0.85448865,-0.49300580,0.17480658,0.05865551,-0.21495164,0.79287392,0.06823392,0.59987814,0.08271215
1755645702914,-20.92731690,2.74508074,-1.75898224,0.92257928,-0.23082757,-0.57586980,0.79560778,0.08627034,0.59536546,0.07145389
1755645702959,3.82995077,-1.03788256,-0.32775236,0.38735111,-0.31861816,-0.28112431,0.80045425,0.09494701,0.58822841,0.06515671
1755645702991,-9.44049421,2.34843985,-2.17306046,-0.32731080,-0.28120884,0.25720733,0.80393310,0.08980823,0.58381343,0.06919486
1755645703023,7.80784439,0.75965298,-0.77321129,0.03888186,-0.25489615,0.02259567,0.80677846,0.09043034,0.57973510,0.06955639
1755645703044,-22.02490459,3.95949364,-3.75238946,-0.53851916,-0.36053265,-0.01331855,0.81010898,0.08477589,0.57594950,0.06941655
1755645703088,22.60449584,-4.24796117,3.70289034,-0.20752902,-0.22858034,-0.01740882,0.81417435,0.08018950,0.57089788,0.06903181
1755645703098,-191.35308664,25.65698847,-38.07335868,-0.86926194,-1.21316566,0.13194462,0.81897894,0.07562587,0.56452876,0.06972452
1755645703131,57.22870754,-9.60914237,11.36870995,-0.28289504,-0.27399291,0.19001345,0.82223084,0.07094396,0.55999418,0.07286924
1755645703154,-11.43489902,-1.93169826,-2.68533858,-0.55963531,-0.34494396,0.49121386,0.82487120,0.06464806,0.55611356,0.07839540
1755645703165,-79.37473927,-10.97073707,-13.38615912,-1.53959485,-0.48069365,1.45119129,0.82649830,0.05602633,0.55342167,0.08652207
1755645703235,21.95401486,1.48877581,4.28045410,-0.19366904,-0.01093595,0.17471765,0.82652359,0.04929633,0.55304165,0.09259351
1755645703255,-139.68770445,-21.39972475,-24.50439328,-2.34440830,0.52898696,2.06719690,0.82118480,0.02479726,0.55856956,0.11419572
1755645703299,50.23552906,6.59700642,9.70955278,-0.30392242,0.50577891,0.27945022,0.81281406,0.01812617,0.56967141,0.12032965
1755645703322,-20.56126732,-5.86183241,-4.39748695,-0.79854204,0.73881851,0.24898783,0.80673777,0.00926235,0.57787229,0.12309341
1755645703355,19.00587826,4.19572035,2.54258997,-0.31610417,0.33601316,0.15064443,0.80231570,0.00395180,0.58351732,0.12562424
1755645703400,5.04145658,0.94448859,0.95919890,-0.25003645,0.27971645,0.14214337,0.79722128,-0.00164902,0.58978296,0.12880825
1755645703443,-12.51662984,-3.16700470,-2.42776050,-0.87146305,0.50257850,0.50876939,0.78696237,-0.02042904,0.60061353,0.13977223
1755645703455,-316.60394998,-59.97590247,-65.18977952,-2.73715739,1.74744346,3.13483778,0.77452326,-0.03698885,0.61118556,0.15873800
1755645703511,73.36574738,16.76421445,15.26931977,-0.76690285,0.24442360,0.65765957,0.76382338,-0.05823206,0.61795610,0.17695517
1755645703545,-2.43359575,2.55726509,0.04137299,-0.27280380,0.33042799,0.44619947,0.75696475,-0.06293792,0.62365598,0.18465211
1755645703566,-45.27803958,4.12546925,-4.87038054,-0.28453068,0.81113172,0.15186487,0.74936464,-0.06586859,0.63201064,0.18621632
1755645703589,12.71382033,-0.49496581,4.97358714,-0.48074573,0.51402157,-0.05138557,0.74388187,-0.07149331,0.63802469,0.18561511
1755645703611,18.09740100,3.24086015,3.87193985,-0.17325960,0.41595728,-0.08671498,0.74007414,-0.07335585,0.64249623,0.18468292
1755645703634,6.78941109,2.38195065,0.59886068,0.57735200,0.38535184,-0.59981830,0.73852954,-0.06671630,0.64692778,0.17778501
1755645703676,15.79624749,-3.71465396,0.61962269,0.25808415,0.16192868,-0.14509496,0.73673773,-0.06129654,0.65032828,0.17473802
1755645703699,-61.81874230,12.81497421,5.57940283,0.75517813,1.13682541,-1.09119880,0.72839262,-0.05242319,0.66368598,0.16191643
1755645703713,17.92725494,-3.95261842,0.73366509,0.90488994,0.96472063,-0.79113930,0.72373244,-0.04595323,0.67058373,0.15625979
1755645703731,17.85390675,-3.66367104,-0.74079985,0.96964672,0.76605838,-0.95679299,0.71960912,-0.03722641,0.67747825,0.14764865
1755645703755,26.79815271,-5.99957412,-2.89540308,0.45858772,0.28682576,-0.43607702,0.71768446,-0.03174629,0.68090582,0.14243753
1755645703766,-50.58342959,6.79779837,5.89883610,0.97564935,0.55548290,-0.73764284,0.71577028,-0.02633143,0.68398875,0.13834361
1755645703804,21.18027329,-3.62079348,-2.33403358,0.28441399,0.12625173,-0.20010420,0.71437953,-0.02094179,0.68638122,0.13455164
1755645703835,-29.03287973,1.80012298,4.20707797,1.02056505,0.37103894,-0.62809160,0.71095097,-0.00542920,0.69202101,0.12500464
1755645703856,-17.03095454,-6.68658677,3.29238677,0.84521562,0.41218120,-0.31099066,0.70720561,0.00365687,0.69645196,0.12166150
1755645703867,-43.84195834,-11.16390925,12.02917074,0.57366330,0.44533797,-0.00798882,0.70474697,0.00684070,0.69892359,0.12161716
1755645703908,36.59412422,2.64303407,-6.09339055,0.19312035,0.14696966,0.10920147,0.70135552,0.01074173,0.70189238,0.12382303
1755645703930,-20.41320990,-3.82490488,4.93671066,0.26997335,0.34294134,-0.17586304,0.69776810,0.01377893,0.70575047,0.12184457
1755645703932,-5926.02521463,-1056.60297121,1221.68409823,1.28332657,1.79441329,0.04251649,0.69600741,0.01499809,0.70745516,0.12188496
1755645703954,509.67948616,88.04652164,-104.47317544,-0.13075056,0.09357386,0.24978438,0.69450169,0.01355983,0.70848447,0.12463259
1755645703997,16.30105712,3.10339192,-3.76912121,-0.06980565,0.05020651,0.10684061,0.69300974,0.01205901,0.70956391,0.12692966
1755645704010,-168.91251340,-38.34177204,47.31550499,-0.84271980,0.23607175,1.11744331,0.69018146,0.00666561,0.71107477,0.13408130
1755645704035,61.27224953,14.97884180,-16.75223814,-0.43336744,0.00398302,0.37346111,0.68923003,0.00120518,0.71112496,0.13878691
1755645704046,-109.81910537,-10.94183428,32.09533960,-0.46041853,-0.02015059,0.22489589,0.68908879,-0.00141921,0.71101010,0.14006881
1755645704093,36.24018078,6.01705630,-10.08715669,-0.04811363,-0.00346554,0.11474364,0.68862315,-0.00253304,0.71092987,0.14272513
1755645704128,-16.93005189,3.13881650,5.90221563,-0.19042165,0.12410059,0.01652310,0.68630006,-0.00585590,0.71309543,0.14301346
1755645704142,-175.82062724,26.13494737,57.11949271,1.43644425,1.09257465,-0.83945969,0.67953841,0.00412739,0.72068882,0.13717921
1755645704167,104.74676023,-12.04623559,-34.47087789,0.23583147,0.46297548,-0.12593268,0.67364220,0.00707528,0.72647601,0.13560505
1755645704201,9.64313469,-0.39559399,-3.43062386,0.11372220,0.31301313,0.03486581,0.66766111,0.00902562,0.73184419,0.13620300
1755645704212,-70.42556415,19.50078059,19.57981922,0.22976922,0.63247682,-0.43612592,0.66438965,0.01025488,0.73522794,0.13386973
1755645704233,26.71585464,-5.13413361,-8.48918204,0.27020478,0.31566941,-0.66606686,0.66193977,0.01320012,0.73866874,0.12660960
1755645704246,-19.91519024,5.15149418,3.97674419,0.41002631,0.30150208,-0.90721727,0.66085569,0.01572178,0.74052297,0.12103021
1755645704283,19.67438622,-5.05685463,-5.07760576,0.08485659,0.08275885,-0.23297854,0.65985744,0.01731708,0.74207884,0.11665022
1755645704313,-29.35602475,6.42725016,6.97859212,0.18093456,0.24290394,-0.68099103,0.65743781,0.01998587,0.74566167,0.10660560
1755645704324,-145.01726173,21.70232208,33.03916583,0.28542861,0.28624487,-1.20682493,0.65665059,0.02154145,0.74722171,0.10002840
1755645704346,83.09935136,-16.68662588,-19.62121944,0.01095362,0.04864148,-0.17756251,0.65632626,0.02166413,0.74776649,0.09803970
1755645704391,10.37083448,-2.13612929,-2.50927986,0.03382465,0.00771432,-0.05653048,0.65629168,0.02242519,0.74794006,0.09676777
1755645704426,-11.70433769,-0.61679357,2.57445916,0.05281060,0.00893841,0.03812504,0.65597972,0.02335730,0.74809783,0.09744067
1755645704446,-35.60803845,0.80928256,7.41732150,-0.00272620,0.05434950,-0.16993787,0.65561449,0.02333031,0.74863589,0.09575829
1755645704482,26.78131264,-1.14508567,-5.69307978,0.19503658,0.06799935,-0.27098654,0.65477512,0.02684096,0.74985988,0.09088053
1755645704506,-30.85652052,-4.35835992,6.43748152,0.17784917,0.30820334,-0.32662474,0.65103961,0.02893069,0.75348127,0.08704269
1755645704547,12.64768542,0.44588710,-2.95011639,-0.13853921,0.18881493,-0.02780214,0.64666648,0.02604908,0.75740862,0.08646441
1755645704583,-3.40766662,-0.66567703,0.55794870,-0.05584854,0.24304275,-0.08543957,0.64182133,0.02505776,0.76172262,0.08494785
1755645704602,-71.35068779,-8.46583348,10.49366089,0.11334439,0.66978712,-0.45064527,0.63467020,0.02614020,0.76811909,0.08064419
1755645704635,36.45271782,4.76443049,-6.37464654,0.13246182,0.34940242,-0.29588832,0.62814087,0.02832582,0.77388423,0.07576203
1755645704658,-4.81346303,-1.70354141,0.86804403,0.12047102,0.42746960,-0.23633632,0.62234716,0.02969919,0.77875738,0.07306780
1755645704690,22.48438381,3.14509732,-3.55863303,-0.04236071,0.16031355,0.07400806,0.61894187,0.02900660,0.78137851,0.07427783
1755645704692,-7406.73148088,-42.83167331,1284.14729682,-6.56673902,4.20365580,11.51008089,0.61338072,0.02342487,0.78495162,0.08406140
1755645704713,585.65621473,7.92362573,-100.29006216,-0.13206564,0.40221040,0.61223215,0.60718773,0.02206459,0.78909439,0.09036739
1755645704726,-5.12871634,7.33153039,3.93447093,-0.17836051,0.45340550,0.54271670,0.60270586,0.02086958,0.79213220,0.09400359
1755645704751,21.92611901,-2.49528734,-4.97854103,-0.05374999,0.22771704,0.06228775,0.59881561,0.02019233,0.79500144,0.09478842
1755645704783,-5.02575732,-0.73013813,1.30160085,0.01569372,0.29877284,-0.22396360,0.59306171,0.02043950,0.79970711,0.09126099
1755645704817,-9.50547132,0.54933393,3.39515013,-0.44678037,0.35245838,0.35153387,0.58417506,0.01286657,0.80568128,0.09721949
1755645704831,-83.92573104,9.92343115,34.02200086,-1.51795365,0.86283038,1.54896936,0.57388147,0.00216500,0.81176423,0.10813973
1755645704858,52.94957971,-4.51798824,-17.26156348,-0.55482477,0.19707797,0.36169787,0.56916663,-0.00526965,0.81440508,0.11298648
1755645704897,6.50029252,-0.64773613,-2.13248670,-0.31298849,0.08429196,0.35052071,0.56525146,-0.01146682,0.81607406,0.11992679
1755645704937,-11.46628814,1.47831981,5.86538977,-0.00003090,0.21228966,0.09696704,0.55873559,-0.01146743,0.82026678,0.12184189
1755645704973,5.21986674,-2.65895196,-1.08605528,0.10700342,0.13131255,0.13101869,0.55469678,-0.00950927,0.82266980,0.12423953
1755645705013,-2.51220721,-1.65989426,2.90739897,0.02100142,0.26368385,0.51762405,0.54445117,-0.00909344,0.82789074,0.13448849
1755645705025,-105.86813860,-17.36688574,73.42096062,-0.32735637,0.80449958,1.44188376,0.53459694,-0.01109032,0.83279819,0.14328398
1755645705070,33.99096185,4.37833019,-21.46532135,0.07080916,0.25626791,0.13932951,0.52478441,-0.00951481,0.83850015,0.14638406
1755645705093,-6.69252005,-2.43674892,6.62393435,0.13184133,0.35891182,-0.15542138,0.51860457,-0.00798545,0.84266353,0.14458117
1755645705103,-75.79857983,-22.68246878,67.91443894,-0.07306973,0.60567810,0.24458879,0.51319285,-0.00835811,0.84575248,0.14582857
1755645705137,33.14662235,7.67893165,-26.43821619,-0.07066323,0.15540962,0.35801923,0.50706352,-0.00954878,0.84837114,0.15186120
1755645705148,-94.60307769,-17.27562258,91.94545347,0.49768608,0.73965099,0.96245083,0.49867948,-0.00683639,0.85240223,0.15710655
1755645705170,36.08312174,4.62417443,-31.62287974,0.31046278,0.53143070,0.20433436,0.48775754,-0.00339026,0.85830111,0.15937466
1755645705191,13.40412222,3.33519690,-13.06725712,0.01027387,0.38125975,-0.03445330,0.48056361,-0.00327930,0.86241872,0.15900257
1755645705204,-18.90349395,-6.32448356,21.10966549,-0.02050841,0.59456757,0.09607102,0.47357449,-0.00340850,0.86616450,0.15960782
1755645705241,11.21562718,3.34339551,-12.70665256,-0.01478006,0.17330444,0.12372797,0.46690977,-0.00368046,0.86935330,0.16188441
1755645705272,-18.13549971,-6.04815998,20.80129398,-0.25712520,0.45303298,0.48568272,0.45083820,-0.00765304,0.87635266,0.16938821
1755645705304,3.41935568,6.24515923,-3.75663358,-0.54722902,0.12615037,0.86597542,0.44102756,-0.01651815,0.87839629,0.18341701
1755645705314,-140.22521602,-4.96120875,163.46818270,0.60863878,1.30181364,-1.47926325,0.43112176,-0.01350539,0.88484027,0.17609466
1755645705379,28.11498183,1.63030841,-32.95953272,-0.08850314,0.09346229,0.11788073,0.42312099,-0.01638174,0.88787779,0.17992578
1755645705391,-181.79645609,34.67601776,187.64520864,-0.45232006,1.02750631,1.72103448,0.40497095,-0.01911828,0.89409421,0.19033804
1755645705451,34.77792921,-4.98939291,-36.37027333,0.01406031,0.16858024,-0.29480511,0.39783904,-0.01869928,0.89911790,0.18155285
1755645705486,-4.29676699,2.05229429,4.89210800,0.27275997,0.30119198,-0.49215343,0.38989157,-0.01395326,0.90435864,0.17298938
1755645705520,1.56684657,-0.98745540,-1.09302744,0.34219195,0.39347898,-0.57794105,0.37827757,-0.00799912,0.91120517,0.16293320
1755645705546,-2.69966039,0.38935966,2.96135469,0.23209730,0.44248761,-0.56454377,0.36740474,-0.00499346,0.91693539,0.15562236
1755645705561,-4.25908147,-1.14058589,4.66733365,0.13315629,0.54542085,-0.53457781,0.35875975,-0.00399478,0.92102604,0.15161303
1755645705580,6.63516562,-4.09522380,-9.62597712,0.32118916,0.46120131,-0.44371711,0.34928839,-0.00099167,0.92533828,0.14746427
1755645705631,5.80395897,-1.36170986,-5.75385718,0.08717046,0.13661121,-0.12729783,0.34121015,0.00125733,0.92886285,0.14417999
1755645705653,-16.37450638,1.11978705,13.70254547,0.22313240,0.42489536,-0.40411615,0.33015719,0.00370063,0.93351545,0.13975492
1755645705691,5.10737450,-0.96973495,-4.72391207,0.11648314,0.27707875,-0.34975422,0.31787763,0.00588469,0.93871068,0.13319703
1755645705704,-43.27196796,-3.39478728,27.76189119,0.49682651,0.67481450,-0.50540939,0.30567194,0.00918859,0.94319819,0.12983605
1755645705729,22.94007104,1.84833445,-15.91156327,0.13273036,0.22240417,0.13833759,0.29629390,0.01082117,0.94593376,0.13153761
1755645705791,3.15305358,-0.01545222,-2.28032677,0.03749565,0.10542139,0.00458484,0.28546853,0.01199103,0.94922291,0.13168065
1755645705823,-16.91369593,0.85444676,10.67216145,0.25852756,0.63829198,-0.17928376,0.25097160,0.01604992,0.95924410,0.12886590
1755645705850,5.98698836,-0.34870089,-4.48902572,0.15833943,0.46559696,-0.29862321,0.22713197,0.01823500,0.96566933,0.12474490
1755645705867,-3.84082840,-2.84494499,-0.88526514,0.20616229,0.53867798,-0.72043319,0.21000954,0.01999769,0.97027503,0.11858519
1755645705904,9.21761725,0.60776293,-4.49481099,0.02473671,0.16857992,-0.09704773,0.19603822,0.02045656,0.97340219,0.11678496
1755645705916,-32.56716445,6.75605177,21.91925153,0.03629713,0.41002450,0.00085255,0.18326280,0.02067615,0.97588284,0.11679012
1755645705939,17.42103130,-1.84047827,-10.59310363,0.10579743,0.17959482,-0.22912068,0.17390586,0.02184521,0.97786736,0.11425833
1755645705961,-1.08909872,0.13764884,0.69811352,0.05019344,0.20828668,-0.31018026,0.16258035,0.02240738,0.98020017,0.11078431
1755645705972,-10.74433681,-0.25341431,5.54632246,0.03890724,0.26495749,-0.20402311,0.15392156,0.02263110,0.98172368,0.10961118
1755645705980,-34.13224350,-0.91156234,15.75247101,0.36474285,0.37470509,0.13160291,0.14339771,0.02409007,0.98322250,0.11013759
1755645705994,29.65318187,-1.01053333,-16.16389281,0.14499449,0.13220540,0.17123755,0.13597038,0.02507603,0.98412149,0.11130201
1755645706007,2.44869905,-0.01519428,-0.38472344,0.10043508,0.12391457,0.10126733,0.12957561,0.02570375,0.98489596,0.11193493
1755645706049,3.64538755,-0.14934896,-2.13332588,0.01807180,0.03449359,0.02472247,0.12334967,0.02608597,0.98562550,0.11245781
1755645706076,-10.77347226,1.16593775,6.26896362,0.15411862,0.21356910,-0.19270652,0.09965211,0.02818969,0.98854072,0.10982737
1755645706081,-119.15103926,8.14674138,52.26755136,0.11664240,0.51963451,-0.54085695,0.08792555,0.02846963,0.98978784,0.10852931
1755645706129,17.75475084,-1.53014613,-8.91247841,0.01068863,0.03761148,-0.00756690,0.07734718,0.02872402,0.99068299,0.10834922
1755645706148,-7.25929934,2.13505197,2.59874164,0.09154332,0.13300497,-0.20555107,0.06128487,0.02963030,0.99199974,0.10631426
1755645706165,5.81751193,-0.20193055,-2.48301490,-0.02318767,0.12173557,-0.46450191,0.05051645,0.02943552,0.99302232,0.10241245
1755645706216,1.83045364,-0.66854921,-0.85927306,0.02180945,0.03271986,-0.14517433,0.04011747,0.02998948,0.99385340,0.09872502
1755645706255,0.25425025,1.05316050,-0.65853555,0.04075981,0.07572556,-0.45965657,0.01789742,0.03078022,0.99532248,0.08980768
1755645706292,0.88435849,0.04445426,-1.21299692,-0.12078879,0.05912232,-0.55201970,-0.00209814,0.02854563,0.99641624,0.07959532
1755645706307,6.86623521,6.13995326,-5.84334505,-7.90174990,-269.36744960,-20.23922756,0.01909111,-0.02992732,-0.99690288,-0.07017497
1755645706356,-1.30448534,-1.98881889,1.76734647,-0.01640418,-0.00931916,0.48138977,0.03745667,-0.03033004,-0.99713167,-0.05835685
1755645706391,0.42868747,0.48899253,-1.40186359,-0.11559000,0.01653775,0.53501219,0.05360924,-0.03237598,-0.99683895,-0.04888713
1755645706442,-0.08605831,-0.29935624,0.76820502,-0.07191081,0.02515585,0.37938517,0.06987589,-0.03420971,-0.99619748,-0.03921281
1755645706480,1.94391413,1.36956652,-2.69744496,-0.11292878,0.07327325,0.85641525,0.09232166,-0.03636100,-0.99480162,-0.02289810
1755645706513,0.42677379,-0.40699953,-1.10828619,-0.03388645,0.11118359,0.98730866,0.11229247,-0.03692013,-0.99296709,-0.00660751
1755645706543,-0.09335988,-1.02528880,0.65296068,-0.01170444,0.12643920,0.72333951,0.12809966,-0.03709687,-0.99105786,0.00431492
1755645706609,-1.22492147,-0.63087783,1.69203610,-0.00063989,0.06147887,0.20617758,0.14242561,-0.03711779,-0.98904750,0.01105692
1755645706649,1.89519015,0.68472201,-1.81781661,-0.05089690,0.13335388,0.46999312,0.15887361,-0.03814845,-0.98634708,0.02057429
1755645706673,4.02651987,0.54205664,-3.58232340,-0.06006118,0.24343602,0.71964422,0.17460798,-0.03886618,-0.98343802,0.02917403
1755645706722,-2.80390150,-0.49767752,3.05291788,-0.02132298,0.11467705,0.36878502,0.18785147,-0.03938113,-0.98066857,0.03808019
1755645706758,0.70914348,0.19793247,-0.14122733,-0.02146649,0.14375291,0.52403218,0.19887947,-0.03977075,-0.97805946,0.04759138
1755645706794,-0.11467919,-0.35615692,0.19144197,-0.05486089,0.14269606,0.36342867,0.20926211,-0.04075002,-0.97551233,0.05407858
1755645706828,-0.27665970,-0.21674198,0.38551073,-0.07511637,0.11648180,0.28210380,0.21695216,-0.04205329,-0.97349137,0.05897308
1755645706840,27.04871723,4.23403617,-14.62816690,-0.51610621,0.35844309,1.25245905,0.22342145,-0.04502090,-0.97143033,0.06617472
1755645706898,-6.25721374,-0.99803797,3.80440078,-0.05272700,0.04079836,0.11637733,0.22721791,-0.04656053,-0.97023901,0.06957294
1755645706941,0.10792191,-0.06588927,0.03743351,-0.01586296,0.03603966,0.14450264,0.22948175,-0.04690317,-0.96946056,0.07269419
1755645706969,0.76178911,-0.43015447,0.05670179,-0.11161773,0.04032045,0.10781232,0.23104704,-0.04846023,-0.96889809,0.07419818
1755645706983,4.16817666,0.12223072,-1.65535322,-0.12711515,0.05605068,-0.00305783,0.23250597,-0.04935004,-0.96850573,0.07417677
1755645707009,-3.70390648,0.26697264,1.66230476,-0.02613288,0.02094084,-0.01028116,0.23357785,-0.04968062,-0.96824083,0.07404671
1755645707032,0.28430222,-0.31955041,0.46345378,-0.02223644,0.01810763,-0.01822933,0.23448525,-0.04994635,-0.96802444,0.07382887
1755645707083,-0.74704256,0.06106769,-0.04470626,-0.00567351,0.00661648,-0.05087595,0.23554082,-0.05008932,-0.96785771,0.07254680
1755645707096,7.88895602,1.54767641,0.56536070,0.01914909,0.06810634,-0.02517729,0.23741422,-0.04996581,-0.96741842,0.07238441
1755645707135,-2.57681518,-0.42814817,0.04316698,-0.00402725,0.01086154,0.05418329,0.23793823,-0.05004474,-0.96720554,0.07344640
1755645707139,50.52363173,-3.34583842,17.59396291,-0.03636571,0.04850128,0.02731747,0.23829102,-0.05011565,-0.96711096,0.07349967
1755645707163,-8.13409973,0.32101973,-2.48480047,-0.03286254,0.00406096,-0.05628150,0.23861268,-0.05051001,-0.96706223,0.07282429
1755645707199,-0.38042934,0.03052282,-0.20082220,-0.01459403,-0.00180599,-0.04510769,0.23867238,-0.05077635,-0.96709519,0.07200107
1755645707211,3.94549811,-1.56354728,5.21316605,-0.10478324,-0.01849639,-0.24184587,0.23852789,-0.05137885,-0.96720154,0.07061046
1755645707260,-0.85872852,0.35161560,-1.08043945,-0.01621971,-0.00423073,-0.04820104,0.23836858,-0.05177542,-0.96730498,0.06943194
1755645707271,5.39416907,-3.54322563,9.90756179,-0.06379270,-0.04139269,-0.47712526,0.23809856,-0.05215180,-0.96754920,0.06661691
1755645707308,-1.84898907,1.05286956,-2.94835165,-0.01362600,-0.00774141,-0.05921627,0.23776676,-0.05240252,-0.96769164,0.06552733
1755645707319,2.29247110,-1.96981786,5.32817978,-0.06356910,-0.03308305,-0.25443262,0.23732997,-0.05275215,-0.96787360,0.06412795
1755645707363,-0.56970880,0.49379259,-1.44441076,-0.01668677,-0.00775378,-0.07060872,0.23697008,-0.05311592,-0.96804263,0.06258868
1755645707377,0.94279670,-0.41867386,5.37796583,-0.03209228,-0.03794434,-0.27173983,0.23634692,-0.05333415,-0.96830065,0.06074085
1755645707413,-0.48969744,0.21623414,-1.95999911,-0.00365569,-0.00868198,-0.04938113,0.23591693,-0.05340013,-0.96845736,0.05984952
1755645707429,0.60466946,-0.33376867,1.49428844,-0.01601884,-0.01821096,-0.14891914,0.23557842,-0.05353229,-0.96860760,0.05862093
1755645707453,-0.10725820,0.11558105,-0.59162784,0.01127160,-0.00625277,-0.07674869,0.23552949,-0.05340097,-0.96868045,0.05772681
1755645707463,0.33847095,0.05183610,3.63024174,0.07600676,-0.02717841,-0.14066565,0.23520326,-0.05299054,-0.96882721,0.05696722
1755645707532,-0.19226983,0.09088008,-0.96949916,0.00640620,-0.00385798,-0.01475577,0.23482984,-0.05277112,-0.96895935,0.05646183
1755645707547,5.20425603,-1.66282944,7.78917898,-0.02348163,-0.00974786,-0.35550974,0.23511967,-0.05295076,-0.96903392,0.05374218
1755645707582,-1.24461536,0.27408124,-2.88497344,-0.02667571,0.02969700,-0.17507965,0.23782788,-0.05341892,-0.96851274,0.05066953
1755645707606,0.50728282,-0.05498178,0.06180694,-0.09132286,0.04749414,-0.21186314,0.24044541,-0.05452849,-0.96793568,0.04809540
1755645707634,-0.15069712,0.33221602,-0.25862153,-0.06313739,0.04685382,-0.02309929,0.24292578,-0.05540926,-0.96728207,0.04777316
1755645707657,0.05377971,-0.20422983,-0.33961837,-0.04538096,0.04902182,-0.11555306,0.24530664,-0.05593341,-0.96671587,0.04643852
1755645707668,2.45619873,-0.87604784,0.00827359,-0.06487747,0.08067127,-0.23479249,0.24706941,-0.05626428,-0.96630445,0.04524108
1755645707680,-1.06405298,0.53707737,-0.12066002,-0.02735991,0.07234247,-0.17097442,0.24889284,-0.05642707,-0.96587401,0.04422379
1755645707700,-1.49776473,0.67756258,-0.21417148,-0.00385114,0.03840858,-0.07181685,0.25056755,-0.05646732,-0.96547264,0.04347330
1755645707712,1.75275511,0.04890246,0.34721933,0.05226087,0.06551164,0.00531020,0.25210257,-0.05616159,-0.96508939,0.04350436
1755645707723,-0.61038207,0.26532889,0.67305781,0.04313212,0.06570078,0.06813133,0.25345733,-0.05592652,-0.96473133,0.04387568
1755645707734,0.22990191,-0.54970300,-0.21164661,0.03524138,0.05180274,0.06966997,0.25447712,-0.05573974,-0.96445677,0.04424493
1755645707744,-0.57278402,-0.33048915,-0.21618087,0.05352465,0.04577816,0.00849779,0.25545797,-0.05545339,-0.96421186,0.04429039
1755645707755,0.93160398,-0.25400225,-0.33994029,0.03120709,0.04554102,-0.02274452,0.25646015,-0.05528175,-0.96396138,0.04416530
1755645707758,60.96666509,-10.82203605,5.34751199,0.00762446,0.17212239,-0.46594560,0.25736884,-0.05527222,-0.96374623,0.04358287
1755645707768,-14.99283860,2.89084731,-1.59927374,-0.01388929,0.03598768,-0.13026260,0.25816658,-0.05534444,-0.96355909,0.04290550
1755645707779,-0.19774267,-0.08020951,0.16839869,0.00677478,0.02557611,-0.08277619,0.25876307,-0.05530786,-0.96342098,0.04245851
1755645707789,-0.43846733,0.22401675,-0.05622570,0.00777368,0.01785017,-0.10280924,0.25920830,-0.05526704,-0.96332727,0.04191876
1755645707800,0.37594987,-0.19078623,0.11903625,0.03617563,0.01281918,-0.07266480,0.25956670,-0.05507350,-0.96325869,0.04153000
1755645707811,0.26304578,0.48583580,-0.03566843,0.04037060,0.00592434,-0.07791671,0.25980702,-0.05484743,-0.96322551,0.04109367
1755645707822,-0.15504597,0.06102087,-0.15059497,-0.00619295,0.00378264,-0.06728570,0.25993519,-0.05488149,-0.96320471,0.04072360
1755645707834,-0.18603989,0.02844940,-0.14859692,-0.01956301,0.00033383,-0.03052467,0.25994569,-0.05499104,-0.96320284,0.04055266
1755645707844,-0.48971742,0.64737395,0.05198663,-0.03650970,-0.00068614,-0.02419957,0.25991086,-0.05518637,-0.96320651,0.04042319
1755645707857,-0.58026102,-0.08335051,0.09582504,-0.03350376,-0.00293654,0.02898743,0.25976663,-0.05540079,-0.96322530,0.04060871
1755645707868,0.47925369,-0.21187765,0.33045059,-0.04128288,-0.00424217,0.08166947,0.25956278,-0.05562579,-0.96324842,0.04105381
1755645707879,-0.17297472,-0.32998076,-0.31213029,0.01022784,0.00232459,0.04691961,0.25958150,-0.05556902,-0.96323552,0.04131422
1755645707890,0.06560639,0.41329102,-0.37370801,0.03115364,-0.01518899,0.08475244,0.25924913,-0.05540546,-0.96331526,0.04175917
1755645707901,-0.05214731,0.03149733,0.08510726,0.00472394,-0.01206384,0.06233604,0.25894441,-0.05537877,-0.96338342,0.04211136
1755645707912,-0.17507404,0.18263549,0.17436376,0.03568066,-0.00531733,0.07427462,0.25880583,-0.05517539,-0.96341373,0.04253473
1755645707924,0.38571488,-0.28802491,0.20547000,0.01218915,-0.00284181,0.11126034,0.25865528,-0.05510592,-0.96342993,0.04316891
1755645707934,0.55555842,0.56153470,-0.16352255,0.01987077,-0.00316268,0.10377125,0.25852913,-0.05500557,-0.96344590,0.04369296
1755645707947,-0.84399674,-0.12297865,-0.08579386,0.01177990,-0.00571448,0.08714916,0.25830378,-0.05492664,-0.96348419,0.04427686
1755645707959,-0.41167553,0.08867651,-0.13529995,-0.01541500,-0.00286448,0.07234805,0.25815444,-0.05501374,-0.96350037,0.04468562
1755645707971,-0.00828291,-0.21611978,-0.10275723,0.01705813,-0.00900910,0.07574223,0.25788230,-0.05490627,-0.96355713,0.04516280
1755645707998,-0.55559262,-0.08506071,0.00241087,-0.00102945,-0.00467141,0.03052902,0.25757793,-0.05491986,-0.96361879,0.04556578
1755645708012,2.07407756,0.57980889,-0.03822876,0.01951871,-0.03381135,0.11686628,0.25653751,-0.05477835,-0.96386392,0.04641306
1755645708014,68.28938839,34.16653210,-5.52370631,0.00672790,-0.21623459,0.45896799,0.25582096,-0.05477297,-0.96403691,0.04678024
1755645708053,-3.65315258,-1.58713349,0.18300230,0.00112484,-0.00908571,0.01942137,0.25508170,-0.05475087,-0.96421545,0.04716187
1755645708064,4.25281643,1.55225695,-0.47787198,-0.06030072,-0.06429434,0.13484457,0.25355877,-0.05507649,-0.96456264,0.04789003
1755645708077,-1.30214041,-0.69861320,0.41758607,0.00747073,-0.02479415,0.14586212,0.25278624,-0.05502868,-0.96472132,0.04882355
1755645708098,-0.93823489,-0.29376846,-0.00055315,0.01062688,-0.00630432,0.04974364,0.25244994,-0.05491497,-0.96478877,0.04935580
1755645708109,0.86847251,0.18789600,-0.32493887,0.04062896,-0.00938098,0.07717573,0.25220935,-0.05468338,-0.96484225,0.04979571
1755645708120,0.29586029,0.05738977,0.34077402,0.01493721,-0.00967168,0.05565829,0.25196066,-0.05460048,-0.96489592,0.05010461
1755645708132,-0.29804559,-0.39123787,-0.23860924,0.01226717,-0.00902958,0.04859085,0.25171501,-0.05452811,-0.96494920,0.05039130
1755645708143,0.28208146,0.31569684,-0.23846440,0.01864757,-0.00759788,0.03296808,0.25154852,-0.05443021,-0.96498909,0.05056438
1755645708154,-1.00204213,-0.23523264,0.01187975,0.00513653,-0.00083656,0.02190156,0.25151078,-0.05440041,-0.96499394,0.05069141
1755645708166,0.16982369,-0.17245543,0.01931552,-0.00618333,-0.00164701,0.02578581,0.25143810,-0.05443535,-0.96500324,0.05083710
1755645708176,0.44196568,0.33500566,-0.03490391,-0.00429414,-0.00026747,0.03282994,0.25139206,-0.05445832,-0.96500468,0.05101274
1755645708179,26.25177032,2.39120663,-8.88647472,-0.02310989,0.01469786,0.18053425,0.25141116,-0.05448837,-0.96498557,0.05124743
1755645708212,-2.53985172,-0.31934652,0.84099882,-0.00671455,0.00148999,0.01438558,0.25143286,-0.05459849,-0.96496113,0.05148335
1755645708246,0.30017135,0.04086927,-0.10449972,-0.01035934,0.00662374,0.00757508,0.25180649,-0.05477770,-0.96484654,0.05161440
1755645708280,0.37481391,0.14983065,-0.17328584,0.03979141,0.00679469,0.01672992,0.25233008,-0.05410921,-0.96473239,0.05189547
1755645708303,0.35121635,-0.17466050,-0.25028830,0.02082366,0.02206653,0.01844402,0.25330158,-0.05387078,-0.96447973,0.05210665
1755645708317,0.81860202,-0.36666785,-0.49487718,0.04486171,0.02553012,0.01738125,0.25401735,-0.05355899,-0.96430229,0.05222745
1755645708341,-0.57850854,0.04188260,0.31745227,0.01214698,0.01797110,-0.01736886,0.25490412,-0.05341383,-0.96408754,0.05201989
1755645708364,0.18855725,0.09409481,-0.19763444,0.01347164,0.03790192,0.01354222,0.25659741,-0.05325419,-0.96363840,0.05218037
1755645708376,3.27539469,-0.22999345,-1.54284653,0.07914194,0.10000417,0.08954329,0.25882866,-0.05277934,-0.96303838,0.05271763
1755645708394,-2.78771389,0.36091921,1.15211615,0.02557058,0.03736399,-0.00708374,0.26008543,-0.05255815,-0.96271518,0.05265635
1755645708407,0.33692853,-0.06893831,-0.22133686,0.00429732,0.03849741,0.00446020,0.26105936,-0.05252872,-0.96245147,0.05268691
1755645708422,-0.28098403,-0.14478765,-0.08017477,0.00039458,0.02826111,0.01008571,0.26181980,-0.05252578,-0.96224093,0.05276204
1755645708439,-0.32736395,0.16387331,0.16977513,0.00630501,0.02840544,0.01084334,0.26268743,-0.05247282,-0.96200232,0.05285313
1755645708441,83.34871760,12.76357091,-66.28622406,-0.02185524,0.26073619,0.14056424,0.26374562,-0.05249795,-0.96170247,0.05301478
1755645708454,-14.25058152,-2.35200225,11.78565296,-0.00280281,0.03653633,0.05214843,0.26454438,-0.05251631,-0.96146316,0.05335635
1755645708469,-0.44913648,0.04946691,0.07497274,-0.00244993,0.02692041,0.03387421,0.26519515,-0.05253395,-0.96126933,0.05360024
1755645708480,0.74518581,-0.07154193,-0.35055544,0.01576111,0.03103771,0.04592294,0.26576860,-0.05244884,-0.96110173,0.05384823
1755645708490,0.52505452,0.07643327,-0.60614435,-0.00778355,0.03139170,0.03515337,0.26632891,-0.05249048,-0.96093379,0.05403630
1755645708492,114.49939884,4.34809552,-84.93107717,0.00152937,0.20028927,0.20329807,0.26690763,-0.05248918,-0.96076354,0.05420910
1755645708503,-18.11904237,-0.98736599,13.28544054,-0.01747223,0.02577143,0.01846602,0.26737356,-0.05258440,-0.96062308,0.05430974
1755645708516,-0.37417924,0.14841445,0.37292726,-0.01754481,0.01843956,-0.00113279,0.26777974,-0.05269757,-0.96050415,0.05430243
1755645708529,0.15094651,0.04987320,-0.06761033,-0.03221967,0.02460659,0.02049533,0.26831172,-0.05291827,-0.96033559,0.05444283
1755645708541,1.11920954,-0.04540993,-0.57827743,-0.03552401,0.03676401,0.08332741,0.26894561,-0.05312786,-0.96011869,0.05493446
1755645708543,154.75474836,47.50255712,-97.48271682,-0.13186842,0.26220356,0.58144074,0.26965615,-0.05324654,-0.95988270,0.05545776
1755645708553,-27.02311132,-7.51407708,17.15005110,0.01097164,0.04920964,0.15318774,0.27041211,-0.05318949,-0.95962681,0.05625433
1755645708574,-0.92505397,-0.20830085,0.61713525,0.02918844,0.02187576,0.09301519,0.27105609,-0.05289469,-0.95940587,0.05719379
1755645708576,104.09649250,26.07437243,-68.63185597,0.36898655,0.21101401,0.72605912,0.27175273,-0.05250725,-0.95918430,0.05795615
1755645708600,-9.17480443,-2.30924520,5.99055628,0.02148808,0.02088567,0.07010706,0.27251767,-0.05224510,-0.95892950,0.05881145
1755645708602,259.49126384,29.08283244,-170.89444214,-0.07882578,0.46224468,1.30713192,0.27351087,-0.05230422,-0.95858282,0.05979180
1755645708614,-30.78970530,-3.71692816,20.06000249,-0.02396002,0.03846133,0.09092501,0.27418790,-0.05245157,-0.95834628,0.06035099
1755645708627,0.34666531,0.41348762,-0.30163953,-0.01324279,0.03606262,0.08294579,0.27486533,-0.05253699,-0.95811367,0.06088599
1755645708638,1.38641598,0.00663129,-0.80820985,-0.01041200,0.05145934,0.13333791,0.27566147,-0.05259321,-0.95783579,0.06160602
1755645708652,-1.11643493,-0.21232780,0.61190009,-0.01209737,0.03737381,0.07467641,0.27646891,-0.05268152,-0.95756296,0.06215115
1755645708666,0.42640466,-0.00232087,0.09132085,0.01536470,0.03891428,0.08023244,0.27728677,-0.05257628,-0.95729640,0.06270075
1755645708678,0.48236867,-0.00693353,-0.30591728,0.01119991,0.04820769,0.10064760,0.27817386,-0.05250796,-0.95700234,0.06331470
1755645708692,1.51609968,-0.24902238,-1.37339950,-0.00221822,0.07764504,0.12117860,0.27984089,-0.05252348,-0.95645882,0.06416295
1755645708703,-2.57404805,-0.15583765,1.67709315,0.00009529,0.04036777,0.04668698,0.28053988,-0.05252296,-0.95623680,0.06441972
1755645708714,0.38697215,-0.19836550,-0.62600907,-0.02805743,0.04726671,0.02422875,0.28137259,-0.05267868,-0.95597447,0.06455419
1755645708725,0.00271400,-0.32660502,0.48923972,-0.03597655,0.03660520,0.01450417,0.28201181,-0.05288015,-0.95576948,0.06463542
1755645708737,-0.78295766,0.21134491,0.10383786,-0.06605016,0.03301071,-0.01715514,0.28262099,-0.05326984,-0.95557471,0.06453420
1755645708751,-0.10698519,-0.01764340,0.28503101,-0.05488134,0.02127986,-0.01270192,0.28304613,-0.05363206,-0.95543427,0.06445037
1755645708763,-0.17010814,0.03745459,-0.25393551,-0.04265969,0.01761424,-0.02393536,0.28339521,-0.05389442,-0.95532594,0.06430317
1755645708776,-0.08741324,0.00338855,0.23979625,-0.03353139,0.01161325,-0.01554930,0.28363276,-0.05411405,-0.95524987,0.06420132
1755645708788,-0.09316990,0.41635737,-0.20034065,-0.02481745,0.00976961,-0.02710123,0.28384183,-0.05426543,-0.95519028,0.06403600
1755645708800,0.36435918,-0.05763682,0.02969375,-0.00293064,0.00635687,-0.00445512,0.28397282,-0.05428302,-0.95515214,0.06400927
1755645708823,-0.87960691,0.01984254,0.63186494,0.00687822,0.00379786,0.00909665,0.28410879,-0.05420529,-0.95510922,0.06411206
1755645708857,0.09750318,0.00849235,-0.18085207,-0.01210379,0.00220612,0.00113273,0.28419190,-0.05441287,-0.95507139,0.06413149
1755645708878,1.57406240,-0.24047582,-1.99831440,-0.06672804,-0.00162661,-0.01205592,0.28403034,-0.05510351,-0.95508822,0.06400671
1755645708889,-0.22829753,-0.09759663,0.57773916,-0.02580063,0.01597178,0.07024548,0.28422058,-0.05525315,-0.95499559,0.06441413
1755645708922,-1.09857973,0.22478732,1.26349229,-0.01425014,0.00654221,0.01104915,0.28449095,-0.05548400,-0.95488960,0.06459313
1755645708934,2.74740331,0.39461084,-2.10336546,0.04125656,0.01937211,0.09054182,0.28481303,-0.05523028,-0.95477046,0.06514996
1755645708955,-0.97724010,-0.25634628,0.66444957,0.02384343,0.01900237,0.03221866,0.28546107,-0.05497634,-0.95456809,0.06549309
1755645708978,-0.32563739,0.01848491,0.28450179,0.00242475,0.01393980,0.01252319,0.28596892,-0.05494846,-0.95440778,0.06563711
1755645709017,-0.11683416,-0.02232430,0.12064325,-0.00153298,0.01446231,0.00888590,0.28686532,-0.05497843,-0.95412504,0.06581083
1755645709045,0.65069131,0.27887312,-1.42823518,0.03231093,0.03036629,0.07233674,0.28811496,-0.05453092,-0.95370447,0.06681269
1755645709056,0.67328566,0.26104952,-0.73672890,-0.02879413,0.02994388,0.08150128,0.28853663,-0.05469361,-0.95353529,0.06727317
1755645709105,-0.58221617,-0.21200706,1.01709103,0.00312322,0.00695300,0.02165600,0.28898487,-0.05461787,-0.95336668,0.06779833
1755645709142,0.11086237,-0.00688701,-0.22855665,-0.00408372,0.00710258,0.01438764,0.28934221,-0.05469362,-0.95323492,0.06806522
1755645709157,1.75628798,0.04872347,-2.50876424,0.05876984,-0.00215920,0.10557426,0.28918763,-0.05426167,-0.95325079,0.06884119
1755645709213,-0.49680674,-0.02274183,0.81094755,0.01814207,-0.00109983,0.00171409,0.28916956,-0.05375369,-0.95328159,0.06888919
1755645709234,0.28232114,-0.24664335,-0.91845506,0.00104460,-0.01007362,-0.09797802,0.28906261,-0.05374235,-0.95339089,0.06782613
1755645709268,-0.16698868,0.25712786,0.26916734,0.01145336,-0.00605883,-0.02790651,0.28887271,-0.05355051,-0.95349237,0.06735869
1755645709302,-0.02950219,-0.01913533,0.29906060,0.03657471,-0.01008876,-0.00838534,0.28845405,-0.05292874,-0.95366388,0.06721614
1755645709313,2.33824005,-0.10091275,-4.45907099,0.11296151,-0.03029021,0.02014108,0.28800724,-0.05233004,-0.95382442,0.06732289
1755645709358,-0.62281042,0.01006164,1.13178971,0.00522087,-0.00865082,0.00574003,0.28734854,-0.05221179,-0.95402036,0.06745290
1755645709368,3.81330359,1.23015086,-5.08718561,0.04861317,-0.03673039,0.06735620,0.28666402,-0.05195414,-0.95421503,0.06780989
1755645709391,-1.48844348,-0.42145487,1.83191639,0.00861384,-0.00517458,0.01761333,0.28644373,-0.05185853,-0.95427247,0.06800540
1755645709434,-0.13750449,-0.06428440,0.29372052,0.00326892,-0.00471719,0.01736091,0.28602264,-0.05178710,-0.95437554,0.06838473
1755645709446,2.93792725,0.71671927,-4.51470565,-0.02526769,-0.03083509,0.04129201,0.28533521,-0.05193492,-0.95455593,0.06862629
1755645709490,-0.77242643,-0.16919359,1.18843613,0.00031862,-0.00110767,0.01784343,0.28515863,-0.05192785,-0.95458052,0.06902242
1755645709525,0.27620068,0.24129106,-0.22867047,0.01588764,-0.00005685,0.04900697,0.28500014,-0.05165537,-0.95458149,0.06986288
1755645709545,0.36983300,-0.37974489,-0.71492414,-0.01004765,-0.01571437,-0.00487701,0.28445097,-0.05175886,-0.95474335,0.06981265
1755645709625,-0.25690510,-0.03161180,0.36072510,-0.00471147,-0.00317605,0.00317047,0.28396291,-0.05194567,-0.95486928,0.06993836
1755645709674,0.46964166,0.02037086,-0.26469463,-0.06187750,-0.01518214,0.05477355,0.28207526,-0.05347405,-0.95524428,0.07129127
1755645709696,0.71538433,-0.32029872,0.47859502,0.02674839,-0.01030078,0.05628936,0.28158734,-0.05317848,-0.95535810,0.07191326
1755645709746,-0.57084034,-0.11864157,0.11608372,-0.03830911,-0.00600180,-0.03809299,0.28113788,-0.05413429,-0.95550785,0.07096284
1755645709779,0.13834986,-0.11682839,0.02702821,-0.05389974,-0.01714516,-0.08772537,0.28035472,-0.05503442,-0.95579417,0.06949783
1755645709812,-0.15013660,0.20834210,-0.00829325,-0.04974277,-0.00752400,-0.02865300,0.27988554,-0.05585517,-0.95591832,0.06902506
1755645709836,-0.08664558,-0.03450186,-0.17377977,-0.03923398,-0.01113489,-0.04375285,0.27947757,-0.05631028,-0.95604748,0.06851752
1755645709881,-0.20063134,0.11291361,0.06910047,-0.00633658,-0.00402506,-0.01212759,0.27920260,-0.05645444,-0.95613905,0.06824162
1755645709891,1.65641800,-0.67479476,0.15171234,-0.12987308,0.00330124,0.04686125,0.27907636,-0.05707134,-0.95612337,0.06846421
1755645709925,-0.46042316,0.28769662,0.00353682,0.01445423,0.00242928,0.00861364,0.27923335,-0.05682345,-0.95608171,0.06861194
1755645709959,-0.07059763,-0.05306269,0.00289416,0.00517495,0.00277617,-0.00144455,0.27941989,-0.05673496,-0.95603424,0.06858723
1755645709970,0.35270708,-0.56851625,0.46217160,-0.01791465,0.01684635,-0.06336258,0.27979500,-0.05683170,-0.95594327,0.06824508
1755645709993,-0.12321142,0.31684790,-0.09864867,0.02163414,0.00591431,0.00378342,0.28006232,-0.05658723,-0.95587643,0.06828783
1755645710035,-0.04397701,0.03935819,-0.04454334,0.01301338,0.00146222,0.00453445,0.28020186,-0.05630809,-0.95584507,0.06838509
1755645710068,-0.20118848,0.24237804,0.08759415,0.01825582,0.01063273,0.01195113,0.28080994,-0.05600779,-0.95567016,0.06858169
1755645710092,0.28170200,-0.20246165,0.18239653,0.05176097,0.00530898,0.00847483,0.28111575,-0.05540477,-0.95560831,0.06868042
1755645710124,-0.01524326,-0.12776446,-0.11344431,0.02002658,0.00485297,0.01213489,0.28140025,-0.05507834,-0.95552921,0.06887822
1755645710148,-0.23325745,0.01540824,0.49533632,0.02722878,0.00322624,0.09802033,0.28130713,-0.05475840,-0.95549130,0.07002996
1755645710181,0.16529363,-0.02371702,-0.25468953,0.00178800,-0.00071937,0.01419691,0.28121412,-0.05472890,-0.95550317,0.07026421
1755645710214,0.01610088,-0.17253946,0.09157717,-0.00574620,-0.00315094,-0.02985928,0.28114033,-0.05482543,-0.95555611,0.06976257
1755645710251,-0.03735016,0.10045378,-0.06274528,0.01573336,0.00591026,-0.02256462,0.28166560,-0.05453751,-0.95544795,0.06934964
1755645710270,0.07497283,-0.07036044,0.53324570,0.03122405,0.00910679,-0.06968069,0.28217000,-0.05424557,-0.95536280,0.06869812
1755645710306,-0.01818002,0.08143062,-0.27078963,0.01960047,-0.00425359,0.00859922,0.28193480,-0.05388394,-0.95544128,0.06885678
1755645710326,-0.36630844,0.11598137,0.64893439,0.05183293,-0.01440528,0.03581396,0.28148101,-0.05339153,-0.95557813,0.06919701
1755645710347,-0.08181497,-0.10241081,-0.49205426,0.01440574,-0.00996807,0.00496508,0.28113644,-0.05323810,-0.95568429,0.06924989
1755645710370,0.26085185,-0.08389501,-0.03233147,0.01059941,-0.01332044,-0.04027351,0.28074547,-0.05311409,-0.95584014,0.06877869
1755645710380,-0.52764716,-0.21010900,1.54894959,0.00478081,-0.03391893,-0.01083445,0.28017963,-0.05308995,-0.95601143,0.06872398
1755645710403,0.25708979,0.22092239,-0.58083373,0.00662952,-0.01095152,0.01404015,0.27974013,-0.05301636,-0.95613299,0.06887982
1755645710425,0.04727074,0.02234003,-0.23112896,0.01519645,-0.00478387,0.01633697,0.27954052,-0.05284312,-0.95618753,0.06906606
1755645710438,0.05034307,-0.00384100,0.32134353,0.06019913,-0.01343483,-0.03659847,0.27937540,-0.05245484,-0.95627418,0.06883000
1755645710473,0.03777674,-0.03208504,-0.21262428,0.00184443,-0.00475279,-0.02894753,0.27922371,-0.05242311,-0.95635593,0.06833211
1755645710492,0.18537014,-0.44761992,0.95301450,-0.00836075,-0.03039620,-0.12949206,0.27849835,-0.05250463,-0.95665229,0.06706956
1755645710503,-0.16717996,0.33801957,-0.07751827,-0.04882187,-0.04349138,-0.06020786,0.27774041,-0.05276095,-0.95688062,0.06675347
1755645710526,-0.14326957,0.11142852,-0.74257379,0.00141939,-0.01216078,-0.02113189,0.27730682,-0.05274413,-0.95702473,0.06650305
1755645710537,-0.08274087,-0.82673779,0.52761852,-0.06442808,-0.02401652,-0.09959439,0.27693892,-0.05307593,-0.95714841,0.06599014
1755645710560,0.18239653,0.33301539,-0.28004265,-0.01177036,-0.00447775,-0.01751268,0.27678080,-0.05321305,-0.95720058,0.06578612
1755645710570,0.32275599,-0.24043686,0.40435861,-0.03938441,-0.00432362,-0.03963143,0.27671645,-0.05340604,-0.95722176,0.06559193
1755645710581,-0.00925308,0.22252922,-0.07939621,-0.02156831,-0.00117783,-0.00135349,0.27667090,-0.05353006,-0.95722854,0.06558414
1755645710593,-0.03365608,0.22446959,-0.10149069,0.00479469,-0.00005594,-0.02918542,0.27671446,-0.05350273,-0.95722885,0.06541779
1755645710604,0.09623098,-0.07829349,-0.03758088,0.04601989,-0.00056253,-0.02028262,0.27677951,-0.05324732,-0.95723198,0.06530522
1755645710637,-0.13473856,0.02531198,-0.10686434,0.00169986,-0.00052806,-0.01345515,0.27680739,-0.05321893,-0.95724079,0.06508052
1755645710647,0.07258640,-1.17248589,0.01258174,-0.02834021,-0.00386067,-0.18083630,0.27692560,-0.05336205,-0.95726029,0.06416729
1755645710659,0.34785804,0.57424153,0.25940370,0.03416882,-0.00268364,-0.01931437,0.27693637,-0.05315362,-0.95727666,0.06404948
1755645710681,-0.19663349,0.24960928,-0.10258811,0.00963043,-0.00492688,0.00263597,0.27676574,-0.05304961,-0.95732987,0.06407794
1755645710693,-0.01800132,-0.08628422,0.11783507,-0.00705047,-0.00795913,-0.01983623,0.27661871,-0.05309226,-0.95737802,0.06395794
1755645710715,-0.03883706,-0.01380401,-0.13667421,0.00040829,-0.00469837,-0.02206016,0.27649667,-0.05308777,-0.95742971,0.06371527
1755645710726,-0.30561664,-0.72917700,0.02496735,-0.04720109,-0.01218083,-0.03450763,0.27626913,-0.05333558,-0.95749366,0.06353411
1755645710737,-0.16003543,0.41171427,-0.27546875,-0.00126697,-0.00885852,-0.01831777,0.27611936,-0.05334267,-0.95754326,0.06343153
1755645710748,0.23267220,0.21150152,0.11289954,-0.00050600,-0.00772963,0.00722523,0.27595506,-0.05334558,-0.95758771,0.06347307
1755645710759,0.14871551,0.27087250,-0.04009953,0.00037495,-0.00467270,-0.00048502,0.27586768,-0.05334354,-0.95761318,0.06347043
1755645710782,0.01139864,-0.01579462,0.01703274,0.00590895,-0.00193717,-0.00322083,0.27581248,-0.05327618,-0.95763526,0.06343371
1755645710792,0.28692387,0.07896613,-0.26218605,0.00213293,-0.00386075,0.01153937,0.27573579,-0.05326573,-0.95765418,0.06349026
1755645710804,-0.09145311,-0.10319329,0.11341452,0.00339984,0.00335375,0.02127790,0.27578167,-0.05324465,-0.95763338,0.06362218
1755645710816,-0.12594342,-0.04182396,-0.25285849,-0.00315207,0.00485361,0.00869527,0.27586424,-0.05326293,-0.95760523,0.06367261
1755645710827,-0.32303301,-0.16720461,-0.41115976,-0.00230166,0.00515342,0.00127514,0.27596283,-0.05327616,-0.95757560,0.06367994
1755645710837,-0.02199008,0.06658502,-0.02975367,0.00976995,0.00241574,-0.00699078,0.27602282,-0.05322682,-0.95756340,0.06364464
1755645710849,0.19312817,0.12515092,0.40555278,0.00738006,-0.00039765,0.00537598,0.27601582,-0.05318365,-0.95756573,0.06367609
1755645710860,0.08205163,0.14959281,0.27120205,0.01599078,0.00297429,0.01292204,0.27607465,-0.05309330,-0.95754892,0.06374910
1755645710871,0.04323835,0.00785447,0.04479993,0.01648075,0.00332012,0.01699498,0.27612896,-0.05301008,-0.95753216,0.06383492
1755645710881,0.00760529,-0.01839870,-0.06458191,0.01504045,0.00086820,-0.00299506,0.27616388,-0.05293036,-0.95752755,0.06381905
1755645710893,-0.08151123,-0.24148066,0.00342457,0.01226303,0.00228684,-0.01404405,0.27624364,-0.05285801,-0.95751406,0.06373619
1755645710926,-0.00097963,0.03013026,0.01891734,0.00471249,-0.00036993,-0.01694458,0.27630171,-0.05278025,-0.95752017,0.06345660
1755645710927,-103.60627473,-27.63894201,-171.07227724,0.24280969,0.15038640,-0.08483637,0.27668295,-0.05262243,-0.95742241,0.06340146
1755645710949,6.10943904,1.74004899,10.12170061,0.01828938,0.00139277,0.00100035,0.27676920,-0.05242673,-0.95740751,0.06341216
1755645710971,0.08789454,-0.01935998,0.20788167,0.00629509,-0.00120341,0.00740293,0.27671574,-0.05235465,-0.95742129,0.06349693
1755645710993,-0.01285483,0.03224372,-0.01567305,0.00732531,-0.00355803,0.00690152,0.27657872,-0.05227444,-0.95746025,0.06357250
1755645711004,-1.04558202,0.30084102,-0.62852132,0.03638650,-0.01565058,0.09723107,0.27621576,-0.05208523,-0.95754163,0.06407810
1755645711039,0.28946214,-0.06125904,0.19993780,0.01273973,-0.00333748,0.02118907,0.27596955,-0.05186292,-0.95759987,0.06444785
1755645711050,-3.26731742,1.53644399,-2.39004788,0.13742249,-0.04698681,0.09784531,0.27506998,-0.05109336,-0.95786300,0.06499578
1755645711083,1.02552727,-0.51737988,0.77814150,0.01617836,-0.01079464,0.01217111,0.27445468,-0.05082803,-0.95804003,0.06519539
1755645711094,-0.53067538,0.25343127,-0.32601359,0.02738171,-0.01678896,0.06711140,0.27405805,-0.05067195,-0.95813573,0.06557793
1755645711116,0.25854421,-0.01463601,0.16384797,0.00486496,-0.00994584,0.04729844,0.27355772,-0.05061820,-0.95824563,0.06610057
1755645711127,-0.29509929,0.23135123,-0.64920816,0.01993081,-0.01271710,0.08997084,0.27322844,-0.05051356,-0.95831239,0.06657292
1755645711137,0.22858252,-0.07025261,0.03137543,-0.01002870,-0.01550839,0.03176096,0.27288583,-0.05056721,-0.95839536,0.06674284
1755645711149,0.00893605,-0.18180809,0.35945376,0.02142378,-0.01646854,0.06487222,0.27246677,-0.05043867,-0.95849418,0.06713207
1755645711172,0.17637561,-0.11386768,0.18692174,0.01654548,-0.00573840,-0.00456638,0.27228985,-0.05025584,-0.95855759,0.06708162
1755645711183,-0.11796948,0.11783219,-0.13419947,0.02203143,-0.01347081,-0.00417920,0.27205056,-0.05013137,-0.95863370,0.06705800
1755645711194,-0.07271594,0.14520843,0.04688316,-0.00648097,-0.00745765,0.00414633,0.27188523,-0.05016896,-0.95867695,0.06708205
1755645711205,0.09956625,0.04425599,-0.03774712,0.01360537,-0.00759148,0.01802267,0.27172872,-0.05009481,-0.95871832,0.06718028
1755645711228,0.05653822,-0.14616631,0.06096311,0.01142611,-0.00253642,0.01112887,0.27162167,-0.04996741,-0.95874660,0.06730436
1755645711240,-1.37599545,0.22990424,-1.14845807,0.05583467,-0.01200399,0.02412555,0.27138903,-0.04962681,-0.95881983,0.06745153
1755645711261,0.68255818,-0.23999697,0.55802570,0.01874852,-0.00826067,-0.01016045,0.27114023,-0.04942620,-0.95890822,0.06734281
1755645711272,-0.51206917,-0.26456595,-0.10046655,0.02610742,-0.02470021,-0.03327426,0.27074959,-0.04928914,-0.95903789,0.06716812
1755645711283,0.40471351,0.30239474,0.20375057,0.00548683,-0.01469232,0.00594375,0.27045531,-0.04925841,-0.95912017,0.06720141
1755645711295,0.09555817,0.14175006,0.14615740,0.01001301,-0.01539237,0.02621176,0.27008451,-0.04919583,-0.95921637,0.06736523
1755645711328,0.09891828,-0.03848536,0.02719265,0.00454444,-0.00570266,0.01704213,0.26970289,-0.04912267,-0.95930819,0.06763961
1755645711339,-2.01258632,-0.51730329,-0.38347855,0.01250079,-0.04699636,-0.00201590,0.26875590,-0.04905079,-0.95957842,0.06762802
1755645711350,0.76276616,-0.18636934,0.25938151,-0.02555106,-0.04677713,-0.09667503,0.26796576,-0.04918749,-0.95982867,0.06711081
1755645711371,0.55739655,0.23121207,0.11205639,-0.00040112,-0.01954087,-0.02775901,0.26729250,-0.04919176,-0.96003678,0.06681517
1755645711383,-0.21063196,0.02323945,0.12440077,0.02895419,-0.02903835,-0.01584607,0.26674552,-0.04902527,-0.96020375,0.06672406
1755645711393,0.00954332,0.21472481,0.02670250,0.02681204,-0.02172526,-0.01580388,0.26638125,-0.04888451,-0.96031781,0.06664109
1755645711406,0.25725361,0.01520675,-0.02314447,0.00496681,-0.01709708,0.00731374,0.26598058,-0.04885272,-0.96042723,0.06668790
1755645711443,0.00067843,-0.00668357,-0.10262896,0.00307251,-0.00496298,-0.00726253,0.26569062,-0.04879542,-0.96051979,0.06655245
1755645711482,-0.14120625,-0.02249045,-0.02481065,0.00809704,-0.02068964,-0.03743198,0.26445893,-0.04863996,-0.96091703,0.06583376
1755645711493,-0.92239346,-0.04676678,0.36725469,0.02625713,-0.06671818,-0.01371994,0.26312041,-0.04849029,-0.96129733,0.06575555
1755645711539,0.34046787,0.00854699,-0.05361075,-0.00284039,-0.00662082,-0.00729031,0.26259444,-0.04855548,-0.96144927,0.06558824
1755645711552,-1.24243195,-0.55049746,-0.60779087,0.03850274,-0.03507862,-0.08418070,0.26193088,-0.04830136,-0.96168079,0.06503265
1755645711572,0.80927755,0.36532229,0.32164834,-0.00298487,-0.01194422,-0.00498430,0.26149883,-0.04833121,-0.96180024,0.06498280
1755645711619,0.07289040,0.03467250,0.04726049,-0.00188626,-0.00199370,0.01077876,0.26125616,-0.04837535,-0.96184689,0.06523503
1755645711640,-0.52032448,-0.02232618,-0.54182112,-0.02765676,-0.01510263,-0.02987862,0.26070659,-0.04866021,-0.96200245,0.06492728
1755645711651,0.11851753,-0.28119901,-0.06957464,-0.02987723,-0.01090640,-0.03050973,0.26049043,-0.04882902,-0.96206407,0.06475490
1755645711672,0.44412210,0.17237331,0.47551474,-0.00352502,-0.00172605,0.01844715,0.26036422,-0.04886726,-0.96208279,0.06495505
1755645711695,0.05265850,0.00418125,0.05864839,-0.00258013,0.00121615,0.00550234,0.26039414,-0.04889655,-0.96206899,0.06501750
1755645711706,0.13040981,-0.00838333,-0.01583017,-0.00442983,0.00686243,-0.00910385,0.26053879,-0.04892047,-0.96203193,0.06496834
1755645711728,-0.15924006,-0.12931510,0.03273104,0.00575364,0.00413434,-0.00547187,0.26073794,-0.04885574,-0.96198542,0.06490678
1755645711740,-0.37947740,-0.54810345,0.10112059,-0.00613966,0.01219740,-0.06204001,0.26107545,-0.04889074,-0.96191590,0.06455315
1755645711750,0.56035772,0.20723948,0.27233916,0.00346379,0.00707444,-0.01910099,0.26123571,-0.04887307,-0.96187982,0.06445574
1755645711761,0.34873466,0.10431881,0.19557661,0.01243503,-0.00124339,-0.03204852,0.26126759,-0.04880281,-0.96188684,0.06427466
1755645711792,-0.08465003,0.09003650,-0.09714743,-0.00875549,-0.00110067,-0.01637357,0.26124246,-0.04893458,-0.96190341,0.06402824
1755645711843,0.01200675,-0.04555768,0.03719501,-0.01313931,-0.00113402,-0.03712863,0.26130426,-0.04927489,-0.96193278,0.06306661
1755645711874,0.13982596,-0.36804590,0.46953265,-0.03585960,0.00627921,-0.12643996,0.26201723,-0.04982713,-0.96183608,0.06111943
1755645711895,0.21698893,-0.07878454,0.87747434,0.02852304,-0.00113133,-0.14615490,0.26238019,-0.04953049,-0.96184785,0.05959942
1755645711940,-0.21253592,0.23319534,-0.58226645,-0.01173045,-0.00299124,-0.07344156,0.26245318,-0.04979266,-0.96191470,0.05795800
1755645711950,-0.67920788,-2.80067275,4.41864806,-0.06027145,-0.01915946,-0.30010346,0.26236400,-0.05012114,-0.96201912,0.05632244
1755645711973,0.35289659,1.05303848,-1.57427960,0.01473597,-0.01506658,-0.11042615,0.26203027,-0.04995168,-0.96219238,0.05505254
1755645711995,-0.18943592,0.14742532,-0.01150700,-0.01801721,-0.01365124,-0.06210357,0.26158526,-0.05014897,-0.96234187,0.05437251
1755645712042,0.03639423,0.16229580,-0.37627915,-0.00352075,-0.00189095,-0.00611477,0.26143600,-0.05023153,-0.96238621,0.05422911
1755645712101,-0.03836617,-0.09360701,0.16173995,-0.00116177,-0.00683311,-0.04479022,0.26096332,-0.05026540,-0.96258539,0.05292348
1755645712127,-0.05780045,-0.41690085,1.26079891,0.00265822,-0.01391647,-0.21881710,0.26086264,-0.05023044,-0.96276839,0.05004603
1755645712141,-0.53040969,-0.59599639,0.67131469,0.03350611,-0.01075958,-0.22654211,0.26093087,-0.04998920,-0.96284586,0.04841493
1755645712185,0.14829650,0.43086040,-0.88955633,-0.00799313,-0.01112099,-0.09964731,0.26039369,-0.05016425,-0.96308941,0.04623266
1755645712208,-0.14396510,-0.16302701,0.26332796,0.01455755,-0.02703863,-0.11482377,0.25952854,-0.05000120,-0.96339225,0.04494663
1755645712229,-0.17238929,0.42145546,-0.50397560,-0.00828468,-0.02379772,-0.06830809,0.25867064,-0.05009192,-0.96365283,0.04419866
1755645712253,0.35474307,0.10007724,-0.25166447,0.00460099,-0.01181952,-0.01967269,0.25820265,-0.05003786,-0.96379171,0.04396750
1755645712263,-0.61245290,-0.37790663,1.14968749,0.00523834,-0.02298182,-0.04956191,0.25781675,-0.05001140,-0.96390777,0.04371721
1755645712285,0.28829754,0.09883615,-0.53059771,0.00320974,-0.00874248,-0.01962990,0.25750181,-0.04997626,-0.96400350,0.04350227
1755645712286,-70.53488466,-37.97822891,126.32338061,0.07829473,-0.20376849,-0.55577918,0.25701063,-0.04991754,-0.96415633,0.04308543
1755645712308,4.82270563,2.68774557,-8.70199727,0.01142518,-0.00576052,-0.00614398,0.25680945,-0.04979243,-0.96421940,0.04301816
1755645712319,-0.41005017,0.21656125,0.52412341,0.02229927,-0.01003682,-0.02192121,0.25665497,-0.04967647,-0.96427159,0.04290416
1755645712331,0.09486192,0.02021163,-0.17056448,0.00023964,-0.00478885,-0.00004697,0.25654822,-0.04967505,-0.96430009,0.04290389
1755645712363,0.15083512,-0.03387077,-0.21840528,0.00935336,-0.00073704,0.00025610,0.25653199,-0.04952399,-0.96431199,0.04290802
1755645712365,-42.16419764,11.75900561,65.47785399,0.29937641,-0.01270230,-0.02832874,0.25654515,-0.04925455,-0.96432342,0.04288253
1755645712386,3.51859522,-0.98811185,-5.40311745,0.01464422,-0.00046324,0.00246558,0.25655211,-0.04909859,-0.96432836,0.04290878
1755645712419,0.06834537,-0.02446517,-0.11514668,0.00918577,0.00153317,0.00103659,0.25667400,-0.04894611,-0.96430291,0.04292599
1755645712431,-0.59009691,0.13401930,0.18990692,0.02400762,0.01606533,0.02750703,0.25702360,-0.04880686,-0.96420973,0.04308553
1755645712441,0.09482350,0.20475415,-0.26466968,0.03239653,0.01134072,0.01282901,0.25726545,-0.04863840,-0.96415076,0.04315224
1755645712463,0.28281162,-0.15823058,-0.00359102,0.01246243,0.00096777,0.00787403,0.25731714,-0.04850007,-0.96414001,0.04323964
1755645712474,-0.23659663,-0.01265891,0.15308122,0.01009649,-0.00015016,0.00259964,0.25732179,-0.04844807,-0.96414079,0.04325303
1755645712485,-0.15328277,0.03206379,-0.06081106,0.00082120,0.00085483,0.00342296,0.25733820,-0.04844323,-0.96413574,0.04327323
1755645712497,0.13639023,0.03354967,-0.00186717,-0.00382236,-0.00644734,0.01298414,0.25718526,-0.04846482,-0.96417217,0.04334659
1755645712508,-0.07683977,0.01203439,-0.02653054,-0.00241294,-0.00365241,0.01906255,0.25708453,-0.04847882,-0.96419335,0.04345715
1755645712529,0.07260777,-0.03600794,-0.08057277,0.00129544,-0.00394969,0.00896568,0.25691557,-0.04846522,-0.96423483,0.04355129
1755645712564,-0.01714996,0.00939198,-0.01368659,0.00176803,-0.00189769,0.00406527,0.25678615,-0.04843463,-0.96426766,0.04362162
1755645712587,-0.22429611,0.20259322,0.04094656,0.00064373,-0.00897354,0.06448678,0.25627917,-0.04842732,-0.96436951,0.04435355
1755645712597,-0.85232850,1.43273592,0.28960711,0.14072353,-0.02249525,0.19574008,0.25579291,-0.04768852,-0.96448761,0.04538118
1755645712620,0.41131588,-0.60217010,-0.29871127,0.02395699,-0.00901638,0.01372614,0.25543603,-0.04742140,-0.96458814,0.04553423
1755645712653,0.11887537,-0.15085194,0.01169398,-0.00063390,-0.00229154,0.00746328,0.25526826,-0.04743193,-0.96462618,0.04565812
1755645712663,-1.32226986,0.61143057,-0.68924851,0.00621405,-0.01365765,0.00005317,0.25501075,-0.04740023,-0.96469583,0.04565839
1755645712675,0.33364698,0.05263459,0.00594220,0.04204959,-0.01159272,0.03800041,0.25475977,-0.04715424,-0.96476365,0.04588069
1755645712726,0.24106014,-0.13523453,0.15562065,0.01259885,-0.00324430,0.01694772,0.25442274,-0.04682856,-0.96484751,0.04631879
1755645712767,-0.25812871,0.09525564,-0.16624441,-0.00274516,-0.00250094,0.07335200,0.25394166,-0.04688457,-0.96489853,0.04781517
1755645712799,0.16759849,0.00458708,0.00514530,-0.00045473,-0.00483511,0.03839192,0.25353220,-0.04689180,-0.96497541,0.04842560
1755645712836,0.02303860,-0.00906705,0.02549858,-0.00120541,0.00203483,0.05395956,0.25347841,-0.04691422,-0.96493756,0.04942925
1755645712871,-0.15343366,0.09663008,-0.10752845,0.03110003,-0.00316191,0.04126527,0.25322520,-0.04636841,-0.96499306,0.05015346
1755645712910,0.13080498,-0.09403900,0.13516859,0.01729370,-0.00228125,0.03788863,0.25296901,-0.04603032,-0.96503765,0.05089418
1755645712930,-0.66388286,0.34041344,-0.02281019,0.02344818,-0.01784202,0.11847436,0.25207934,-0.04579349,-0.96521786,0.05209077
1755645712997,0.22960709,-0.15707738,0.07558740,0.00832399,-0.00563071,0.00965856,0.25134157,-0.04551547,-0.96540592,0.05241336
1755645713039,-0.00747227,0.01780326,0.03938920,0.00971367,-0.00687707,0.01761464,0.25074413,-0.04531100,-0.96555069,0.05278415
1755645713086,0.03374684,-0.07900693,-0.01187685,0.00392342,-0.00875272,-0.01521127,0.25004713,-0.04521939,-0.96575506,0.05242897
1755645713111,-0.12854202,-0.15353421,0.14747113,-0.03186285,-0.02300801,-0.08340814,0.24907839,-0.04561767,-0.96604266,0.05138637
1755645713155,0.11472293,0.04727486,-0.08178151,0.00856936,-0.00664964,-0.01428790,0.24860962,-0.04542915,-0.96618895,0.05107203
1755645713200,0.03436514,0.08116619,0.00811320,0.01813093,-0.00298772,0.01208757,0.24836914,-0.04502573,-0.96625543,0.05134098
1755645713210,0.72562788,0.29287480,0.47401152,0.00149650,-0.01174862,0.05763786,0.24808492,-0.04501833,-0.96631359,0.05162629
1755645713243,-0.13073512,-0.12371562,-0.22960286,-0.01919649,-0.00199536,-0.01232808,0.24793815,-0.04534179,-0.96634721,0.05141856
1755645713290,0.00310552,0.02424535,0.04456401,-0.01619004,0.00391823,0.00990164,0.24817764,-0.04572063,-0.96625552,0.05165026
1755645713327,0.07895075,0.03886813,-0.00731098,-0.00434091,0.01012347,0.02536636,0.24878642,-0.04580007,-0.96607026,0.05211447
1755645713369,0.01850168,0.00987705,0.02094726,0.00285104,0.00552310,0.02430761,0.24914009,-0.04574020,-0.96595428,0.05262492
1755645713372,11.47537825,13.93343115,-3.67144055,-0.06878508,0.01714938,0.45303902,0.24907423,-0.04584682,-0.96592770,0.05332714
1755645713421,-0.83885441,-0.87866749,0.20411025,0.00428705,-0.00402336,0.00805819,0.24866277,-0.04574028,-0.96602768,0.05352738
1755645713432,-0.33569835,0.56301243,-0.41297540,-0.00794957,-0.00354806,0.06369375,0.24850902,-0.04578242,-0.96604648,0.05386496
1755645713503,0.03959219,-0.09914818,0.06937983,0.00203541,-0.00048701,0.00651919,0.24840452,-0.04570996,-0.96606382,0.05409704
1755645713523,-0.07510550,-0.12643469,-0.01666942,-0.02268112,-0.02598110,0.00248116,0.24735508,-0.04593450,-0.96632103,0.05412160
1755645713545,0.18160818,0.15227995,-0.04247201,0.00469417,-0.01935215,0.00859073,0.24655695,-0.04588568,-0.96652229,0.05421095
1755645713582,-0.11248817,0.00305652,-0.01151716,-0.00542289,-0.00409058,-0.00317880,0.24624288,-0.04598980,-0.96660083,0.05414992
1755645713601,-0.10919850,0.15355721,-0.29811342,-0.00004294,-0.00633110,0.02210223,0.24596474,-0.04599020,-0.96666003,0.05435657
1755645713639,0.10117749,-0.03826909,0.10491403,0.00987362,0.00004021,0.04072996,0.24583119,-0.04580359,-0.96665927,0.05512637
1755645713643,0.22527494,4.89170202,-5.94863816,0.00381216,-0.00899047,0.31632841,0.24557650,-0.04579444,-0.96668085,0.05588556
1755645713691,-0.04740889,-0.49938528,0.61941914,-0.00360827,-0.00035197,0.02461826,0.24539493,-0.04587960,-0.96668915,0.05646655
1755645713700,-0.89846710,1.57258935,-1.65653141,0.04571403,-0.01382318,0.21602532,0.24494776,-0.04566703,-0.96675343,0.05747106
1755645713722,0.34989604,-0.59785930,0.64125124,-0.00414648,-0.00274007,0.04050285,0.24472054,-0.04571160,-0.96678289,0.05790647
1755645713745,0.05300717,-0.12662946,0.09427921,-0.00076209,-0.00419536,0.00227253,0.24451685,-0.04572059,-0.96683239,0.05793329
1755645713755,-0.41526601,-0.22137292,-0.19187336,0.00705243,-0.00954963,-0.00666568,0.24433898,-0.04568463,-0.96688109,0.05789929
1755645713766,-0.00423841,-0.01028039,-0.06372642,0.01019012,-0.01260051,-0.00162048,0.24408193,-0.04562960,-0.96694914,0.05789054
1755645713778,0.05975033,0.11162582,0.15723425,-0.01229487,-0.00589972,-0.00511170,0.24394002,-0.04570091,-0.96698336,0.05786089
1755645713788,-0.12624491,0.10064471,-0.07909628,0.00161043,-0.00185333,-0.00601254,0.24391024,-0.04569237,-0.96699318,0.05782903
1755645713800,0.08441792,0.02861746,0.05716320,-0.00900730,-0.00962057,0.01163400,0.24367161,-0.04574281,-0.96704705,0.05789418
1755645713812,0.19860949,0.14648438,0.12258802,0.00682408,-0.00753392,0.00544962,0.24348457,-0.04570016,-0.96709414,0.05792824
1755645713821,-0.06143365,0.18214529,0.11970272,-0.00452662,-0.00980415,0.03366081,0.24326215,-0.04572121,-0.96713973,0.05808476
1755645713833,0.03727757,0.02049283,0.05090200,0.00693982,-0.01031325,0.03010298,0.24298764,-0.04568061,-0.96720006,0.05826086
1755645713844,-0.31773948,0.15327836,-0.21754919,0.00598030,-0.01281655,0.01244139,0.24269928,-0.04564802,-0.96726991,0.05832867
1755645713856,-0.06928714,-0.20325426,0.05061242,0.01220589,-0.01241348,0.03992463,0.24235257,-0.04557357,-0.96734564,0.05857221
1755645713866,-0.20244868,-0.01091178,-0.06348673,0.00191714,-0.01362456,0.04362697,0.24203266,-0.04556408,-0.96741308,0.05878816
1755645713877,0.00842894,-0.00421447,-0.04422457,-0.01474840,-0.00815633,0.00434706,0.24183217,-0.04564519,-0.96745794,0.05881207
1755645713896,0.21617101,-0.11682824,0.08201005,0.00304957,-0.00576472,0.02362849,0.24155945,-0.04561576,-0.96751357,0.05904008
1755645713904,-0.76890571,0.66182774,-0.26354981,0.02088546,-0.01377247,0.05810216,0.24129750,-0.04553222,-0.96756866,0.05927249
1755645713936,0.27504536,-0.19118459,0.10359280,0.00357988,-0.00384497,0.02115273,0.24098503,-0.04547620,-0.96762883,0.05960353
1755645714005,0.00540428,0.00051400,0.00807422,0.00566065,-0.00441871,0.01699758,0.24025650,-0.04527921,-0.96778260,0.06019505
1755645714047,-0.23509905,0.18183576,0.14831019,0.03484949,-0.01248554,0.06181914,0.23900499,-0.04454737,-0.96804480,0.06149325
1755645714101,0.14821661,-0.13055552,-0.01165423,0.00462576,-0.00566327,0.00252675,0.23839848,-0.04442409,-0.96819572,0.06156059
1755645714128,-0.21347859,-0.09961290,0.13669913,0.00004376,-0.01809289,-0.01499736,0.23744284,-0.04442349,-0.96844360,0.06135513
1755645714156,0.22346858,-0.04480060,-0.01954265,-0.00577248,-0.00441758,0.02074525,0.23709998,-0.04450431,-0.96850544,0.06164556
1755645714186,0.04835145,-0.06007436,-0.02849539,0.01101604,-0.00568830,-0.00018852,0.23677974,-0.04433741,-0.96859162,0.06164270
1755645714212,0.00839287,0.04860274,0.02846748,-0.00155674,-0.00302553,-0.00290287,0.23662721,-0.04435734,-0.96863035,0.06160555
1755645714231,0.08779482,-0.12106206,-0.00464549,0.01310749,0.00243698,0.00518496,0.23673409,-0.04423085,-0.96860683,0.06165558
1755645714245,0.00499647,-0.11020903,0.18145477,0.02363102,0.00085341,-0.02316182,0.23683153,-0.04406544,-0.96860086,0.06149345
1755645714268,-0.03664582,0.19049939,-0.36865315,0.00644674,0.00017367,-0.02208784,0.23691738,-0.04399291,-0.96859890,0.06124496
1755645714278,-0.07678356,-0.26804080,0.44365168,0.00618436,-0.00317780,-0.06864953,0.23694751,-0.04396106,-0.96861527,0.06089141
1755645714301,0.03981779,0.16032146,-0.19907084,0.00447516,-0.00033516,-0.00429179,0.23695387,-0.04391049,-0.96861906,0.06084292
1755645714310,-0.47701665,0.03877077,1.26172689,0.00915212,-0.00171212,0.01667422,0.23690784,-0.04386656,-0.96862727,0.06092295
1755645714321,0.12380896,0.02782946,-0.70391087,0.01462308,-0.00701720,0.02241263,0.23674266,-0.04379052,-0.96866376,0.06103950
1755645714331,-0.07384451,-0.16256814,-0.12344157,0.00617418,-0.00622761,0.01825207,0.23659155,-0.04375841,-0.96869615,0.06113441
1755645714344,0.11201615,0.03977632,-0.16049821,-0.00449564,-0.00491650,-0.01310255,0.23647990,-0.04378696,-0.96872737,0.06105121
1755645714354,-0.08398197,0.03384562,0.20112001,-0.00232770,-0.00231749,-0.01291842,0.23644727,-0.04379848,-0.96873884,0.06098726
1755645714366,0.14011527,0.02572289,-0.07695589,0.01261148,-0.00107918,0.00571269,0.23642465,-0.04371840,-0.96874569,0.06102354
1755645714376,0.05293247,0.21583039,0.09498432,0.00697327,-0.00349393,0.00626562,0.23634995,-0.04368284,-0.96876351,0.06105549
1755645714379,-3.40448899,3.72409773,6.14412024,0.07594646,0.00541840,0.07433451,0.23637376,-0.04357651,-0.96875592,0.06115956
1755645714390,0.86365914,-0.69687426,-1.58729467,0.03962908,0.00080170,0.06664651,0.23633848,-0.04336846,-0.96875171,0.06150946
1755645714401,-0.09529221,0.09305606,-0.08976629,0.01861496,0.00068834,0.04596200,0.23630597,-0.04326329,-0.96874783,0.06176914
1755645714412,0.07389441,0.05124788,-0.16994277,0.01565261,-0.00084609,0.01450592,0.23628177,-0.04317720,-0.96875248,0.06184892
1755645714423,0.01625581,-0.23102957,-0.00394080,0.02086734,0.00041050,0.05330926,0.23623504,-0.04306243,-0.96875022,0.06214212
1755645714434,0.02518372,-0.06037182,-0.05238905,0.02299363,-0.00293974,0.00821226,0.23617886,-0.04293366,-0.96876668,0.06218811
1755645714445,-0.14973812,-0.09486971,0.04941311,0.00097028,-0.00024736,0.00322464,0.23616949,-0.04292828,-0.96876806,0.06220601
1755645714456,0.00821888,-0.03244949,0.02318328,0.00539508,-0.00423788,-0.01664507,0.23610336,-0.04289860,-0.96879137,0.06211446
1755645714467,-0.05168366,-0.00944660,0.03507734,0.04077691,-0.00268833,0.00982712,0.23606879,-0.04267229,-0.96880629,0.06216900
1755645714479,-0.02501164,0.12781516,0.05021817,0.03245506,-0.00641709,0.03179146,0.23590275,-0.04248567,-0.96884318,0.06235180
1755645714490,-0.11715546,0.06731162,0.15932965,0.02348857,-0.00370956,0.06733697,0.23574684,-0.04235884,-0.96886322,0.06271542
1755645714501,0.06992199,0.12035377,-0.02480574,0.03340536,-0.00715337,0.03953647,0.23554987,-0.04216509,-0.96890470,0.06294473
1755645714512,0.13633989,0.02427331,0.00251396,0.02257223,-0.00539197,0.05660871,0.23536659,-0.04204094,-0.96893436,0.06325608
1755645714523,0.06998892,0.03409049,-0.08189669,0.01608411,-0.00979401,0.03678593,0.23511312,-0.04195489,-0.96898676,0.06345289
1755645714534,-0.03753891,-0.01148634,-0.06220576,0.04623060,-0.00746101,0.02195711,0.23495656,-0.04170062,-0.96902779,0.06357365
1755645714545,-0.15503429,-0.21831004,0.04348802,-0.00908665,-0.01098586,0.01914059,0.23466197,-0.04175196,-0.96908986,0.06368180
1755645714559,-0.03429931,-0.15369160,-0.05589079,-0.02010845,-0.00968002,-0.01482711,0.23438502,-0.04189272,-0.96915762,0.06357801
1755645714579,0.04502255,-0.04070707,-0.08126806,-0.00420824,-0.00986525,-0.01796350,0.23401425,-0.04193522,-0.96925726,0.06339657
1755645714587,-1.02290437,-0.00260538,1.03872059,0.04012724,-0.03096926,0.00485552,0.23354860,-0.04178274,-0.96937495,0.06341503
1755645714590,-3.70384537,1.41383345,3.45569692,0.04563615,-0.03020314,0.08710850,0.23332308,-0.04170972,-0.96942327,0.06355440
1755645714602,1.55512614,-0.30631041,-1.29358486,-0.00329198,-0.00791774,0.01676152,0.23309273,-0.04172964,-0.96947117,0.06365581
1755645714645,0.10550179,-0.01338850,-0.13257916,-0.00533968,-0.00135033,-0.00157453,0.23296121,-0.04184391,-0.96950007,0.06362211
1755645714675,0.00038791,0.01226023,0.04603489,0.00859988,-0.00136767,-0.01902464,0.23297658,-0.04171620,-0.96952038,0.06333960
1755645714679,-2.61591474,2.29606100,9.07578274,0.09497813,0.01426825,0.11958518,0.23307501,-0.04150250,-0.96948828,0.06360866
1755645714702,0.53528463,-0.32136042,-1.62324143,0.00717702,0.00858355,0.04773597,0.23334131,-0.04142247,-0.96939257,0.06414092
1755645714721,0.01693077,-0.10957477,-0.23604273,0.02562121,0.00219750,-0.01539134,0.23351656,-0.04117139,-0.96937104,0.06399008
1755645714733,-0.01770560,0.03956990,-0.02820455,0.00412753,0.00036714,-0.01456758,0.23355306,-0.04114724,-0.96936889,0.06390486
1755645714744,-0.12059412,-0.12567891,-0.01127897,-0.00552451,0.00077749,-0.02918480,0.23361187,-0.04117901,-0.96936442,0.06373705
