UnixTime(ms),Ax,Ay,Az,Gx,Gy,Gz,QuatW,QuatX,QuatY,QuatZ
1761621667935,0.00000000,0.00000000,0.00000000,0.00000000,0.00000000,0.00000000,0.91476602,0.09612035,0.39237882,-0.00169244
1761621667940,1.48887619,0.78679364,-0.19659724,0.07494270,-0.07386835,-0.12475115,0.91482723,0.09631520,0.39218676,-0.00201680
1761621667950,-0.45745977,-0.24855502,0.04552983,0.01673747,-0.02706359,-0.02799709,0.91487365,0.09639470,0.39205821,-0.00214978
1761621667962,-0.00342091,0.00065286,0.00645768,0.03921635,-0.02506582,-0.02698441,0.91491189,0.09662412,0.39191157,-0.00230764
1761621667975,0.00167610,0.02549510,0.05293537,0.02271471,-0.00890761,-0.00525010,0.91492093,0.09677063,0.39185412,-0.00234151
1761621667985,-0.06374377,-0.01625389,0.04572199,-0.00043898,0.00740423,0.01207253,0.91490422,0.09676826,0.39189410,-0.00227631
1761621667996,-0.13168010,-0.07598989,0.00249004,0.00766271,0.00902758,0.00182244,0.91488015,0.09680772,0.39194059,-0.00226693
1761621668007,-0.06617327,-0.03320359,0.01324390,0.00791264,0.01735615,-0.00151832,0.91483214,0.09685361,0.39204126,-0.00227573
1761621668018,-0.02773690,0.00275860,0.04064165,0.01600872,0.01726444,-0.01415033,0.91478192,0.09694166,0.39213621,-0.00235356
1761621668030,0.02709942,0.02405562,0.01642290,0.02684216,0.00867595,-0.02019013,0.91474386,0.09709600,0.39218610,-0.00246965
1761621668041,0.01630017,0.01050446,0.00292709,0.01285207,0.00834509,-0.00638840,0.91471583,0.09716862,0.39223325,-0.00250575
1761621668052,0.00664163,0.00868648,0.01001686,0.00791933,0.00329623,0.00251412,0.91470302,0.09721376,0.39225204,-0.00249142
1761621668064,-0.01046352,-0.01868561,-0.02646854,0.01388659,0.00595298,-0.00200822,0.91468043,0.09729152,0.39228538,-0.00250266
1761621668076,-0.04704458,-0.03342522,-0.01232797,-0.00187941,0.00039609,0.00674432,0.91468071,0.09728034,0.39228773,-0.00246254
1761621668086,-0.04204200,-0.05818239,-0.07195247,-0.02932837,-0.01037102,0.01916603,0.91472145,0.09712343,0.39223225,-0.00236000
1761621668097,-0.04283670,-0.07514709,-0.10751431,-0.05112395,-0.02604944,0.02626059,0.91481471,0.09683714,0.39208637,-0.00221294
1761621668109,-0.02668649,-0.06246955,-0.10029754,-0.03680419,-0.02219273,0.02886311,0.91489484,0.09661815,0.39195432,-0.00204120
1761621668120,-0.06341402,-0.05928355,-0.04696133,-0.02712554,-0.02359169,0.03477716,0.91496527,0.09647168,0.39182693,-0.00185341
1761621668133,0.01417927,0.01830335,0.02211360,-0.02404290,-0.01698874,0.01805425,0.91502973,0.09631419,0.39171565,-0.00173515
1761621668142,-0.10317933,-0.10941714,-0.10478517,-0.02648392,-0.01460455,0.04015447,0.91506982,0.09619766,0.39165139,-0.00155847
1761621668153,0.03108317,0.03886264,0.04464102,-0.05208903,-0.01583799,0.02186489,0.91513982,0.09590076,0.39156112,-0.00143384
1761621668165,0.03534382,0.00419582,-0.03471319,-0.02135603,-0.00974823,0.00710994,0.91517640,0.09577903,0.39150555,-0.00139332
1761621668176,-0.01221293,-0.00343985,0.00816650,-0.01461325,-0.00407867,0.01196206,0.91519401,0.09570085,0.39148373,-0.00132932
1761621668187,0.02569913,0.06040204,0.09641594,0.00876454,0.02243919,0.00109286,0.91513512,0.09574993,0.39160939,-0.00132320
1761621668198,0.02607466,0.09511830,0.17013862,0.04715518,0.08015661,-0.02411323,0.91491502,0.09601400,0.39205827,-0.00145823
1761621668209,0.02186902,0.13973743,0.27026193,0.06882625,0.12944122,-0.02717702,0.91456641,0.09639598,0.39277667,-0.00160906
1761621668221,-0.06731758,0.10163939,0.30157023,0.06101379,0.16373520,-0.02624435,0.91412801,0.09674376,0.39370996,-0.00175866
1761621668232,-0.11387725,0.06273918,0.28032094,0.04855048,0.19694873,-0.02148687,0.91362765,0.09701322,0.39480302,-0.00187791
1761621668243,-0.11904675,0.02988238,0.21774365,0.05119187,0.20850132,-0.03382626,0.91310089,0.09729477,0.39594978,-0.00206395
1761621668254,-0.12226942,0.02113889,0.20643896,0.04185987,0.21403040,-0.02284208,0.91254025,0.09753547,0.39718045,-0.00219530
1761621668266,-0.01813267,-0.03386547,-0.04468886,0.06597598,0.21087725,-0.02277434,0.91194574,0.09793132,0.39844572,-0.00233194
1761621668276,-0.15031758,0.10038350,0.41930350,0.10650553,0.25989147,-0.02205320,0.91130037,0.09847983,0.39978416,-0.00244552
1761621668288,0.00565870,0.03935723,0.08796371,0.12117779,0.26090857,-0.01719078,0.91059051,0.09915236,0.40123220,-0.00254092
1761621668299,-0.01399894,0.07947724,0.20544881,0.12283620,0.27903993,-0.03285029,0.90983147,0.09983410,0.40278087,-0.00272324
1761621668310,0.01836026,0.05198060,0.10447349,0.11099272,0.27161413,-0.04456362,0.90907402,0.10046676,0.40432907,-0.00297726
1761621668321,-0.01547150,0.06009163,0.17106063,0.09520855,0.26586323,-0.04189067,0.90836987,0.10098565,0.40577803,-0.00320556
1761621668332,0.03272360,-0.04757696,-0.13446200,0.05346363,0.24405067,-0.03432106,0.90771829,0.10128772,0.40715691,-0.00339947
1761621668343,-0.02436710,-0.05049624,-0.06526778,0.06210431,0.24244720,-0.03448179,0.90708005,0.10162929,0.40849037,-0.00358912
1761621668354,0.02910697,-0.04340960,-0.12415861,0.07459410,0.22803256,-0.03840467,0.90646167,0.10204329,0.40975595,-0.00380227
1761621668366,0.06893186,-0.05689260,-0.21352361,0.06646344,0.21062742,-0.02949624,0.90583325,0.10244872,0.41104078,-0.00398220
1761621668378,-0.00990033,0.00939791,0.04671703,0.07162945,0.20669241,-0.03480470,0.90524028,0.10286417,0.41223960,-0.00418406
1761621668388,-0.07533835,0.09593644,0.34072557,0.08973258,0.24200081,-0.04202895,0.90465431,0.10329937,0.41341330,-0.00438791
1761621668400,0.13010188,-0.09677632,-0.39662944,0.05425144,0.19012597,-0.00732722,0.90409000,0.10362759,0.41456356,-0.00443223
1761621668411,-0.08988773,0.00685657,0.15219602,0.04165204,0.19442492,-0.00928450,0.90359120,0.10384835,0.41559402,-0.00448144
1761621668421,0.00390834,-0.09087349,-0.20970229,0.02018962,0.16432239,-0.02071877,0.90315771,0.10396040,0.41650600,-0.00459643
1761621668434,0.06147029,-0.07817595,-0.26577832,0.00273075,0.13620540,-0.02734189,0.90277448,0.10397692,0.41733005,-0.00476185
1761621668444,-0.07119374,-0.02333349,0.05295813,0.00306968,0.13648178,-0.03157141,0.90246246,0.10399196,0.41799881,-0.00491655
1761621668454,0.11904341,-0.05800652,-0.30535945,0.01200066,0.11084245,-0.02075931,0.90217160,0.10405797,0.41860844,-0.00503073
1761621668467,0.06636381,-0.02626716,-0.15579137,0.00572488,0.08073606,-0.00977620,0.90193283,0.10409375,0.41911304,-0.00509183
1761621668480,0.06203261,-0.02382650,-0.14434247,0.00228647,0.07137858,-0.00192507,0.90172200,0.10410815,0.41956273,-0.00510396
1761621668489,-0.09284020,-0.01344627,0.10312976,0.00946392,0.07886456,0.00364308,0.90154251,0.10415310,0.41993733,-0.00508665
1761621668499,0.08700906,-0.03403457,-0.20617521,-0.00979488,0.05754932,0.00764095,0.90141429,0.10410413,0.42022508,-0.00504845
1761621668510,-0.00683589,-0.03161412,-0.06622038,-0.00511434,0.04720352,0.01726189,0.90130126,0.10407702,0.42047526,-0.00495696
1761621668521,0.01583737,-0.02200276,-0.07527672,0.00730624,0.02627818,0.02577874,0.90122670,0.10411903,0.42062636,-0.00480873
1761621668533,0.02817443,-0.01508609,-0.07716407,-0.00792869,0.02048964,0.02934854,0.90117446,0.10407027,0.42075237,-0.00462824
1761621668544,-0.07584673,-0.05303932,-0.01742603,-0.02376644,0.02007528,0.02350956,0.90114157,0.10395025,0.42085375,-0.00450951
1761621668555,0.07760502,0.00480534,-0.10135678,0.00131435,0.01536910,-0.01085786,0.90110021,0.10395761,0.42093982,-0.00457032
1761621668567,0.07690998,0.00978390,-0.08886544,-0.02269268,0.00310780,-0.00301120,0.90110654,0.10383280,0.42095691,-0.00458688
1761621668578,0.06070250,0.01218364,-0.06054670,-0.02048249,0.00898335,-0.01164112,0.90109448,0.10370274,0.42101395,-0.00466080
1761621668589,0.02084996,-0.00453498,-0.04038436,-0.00592531,0.02027832,-0.00363641,0.90104910,0.10367222,0.42111839,-0.00467953
1761621668599,0.04881600,0.04660806,0.04063992,0.02711537,0.03608004,-0.02247212,0.90094253,0.10381594,0.42130961,-0.00479863
1761621668611,0.03482774,0.06435223,0.10483102,0.04753050,0.03589300,-0.00679510,0.90081089,0.10409637,0.42152138,-0.00483872
1761621668623,0.03865870,0.07687683,0.13052039,0.06095844,0.03657061,-0.01443334,0.90067143,0.10444688,0.42173166,-0.00492171
1761621668634,0.06933904,0.11443955,0.17668092,0.07156163,0.04178659,-0.04885786,0.90051795,0.10483689,0.42195940,-0.00518799
1761621668644,0.08168375,0.10237973,0.13042802,0.06725608,0.04700454,-0.02764040,0.90036025,0.10518998,0.42220617,-0.00533310
1761621668655,0.01712080,0.01183570,0.00537755,0.03052785,0.04626796,-0.03092927,0.90022021,0.10535789,0.42246065,-0.00550321
1761621668667,-0.01765321,-0.04900194,-0.09267808,0.01677747,0.04751325,-0.03836696,0.90007192,0.10545939,0.42274810,-0.00573533
1761621668677,-0.01055044,0.01470493,0.05296792,0.01475113,0.07427324,-0.04138588,0.89988372,0.10553462,0.42312689,-0.00594640
1761621668690,-0.06863393,-0.07701554,-0.08732945,0.00747700,0.06176999,-0.02708738,0.89969548,0.10558135,0.42351296,-0.00611570
1761621668700,-0.06327087,-0.04081432,-0.00392438,-0.02810698,0.06864908,-0.04064567,0.89955037,0.10544222,0.42385277,-0.00631689
1761621668713,-0.03435691,-0.07618205,-0.13798651,-0.01051075,0.04736649,-0.02761403,0.89941622,0.10537600,0.42415118,-0.00649086
1761621668722,-0.00414422,-0.02039217,-0.04235647,-0.03207440,0.06194008,-0.06136570,0.89929181,0.10522205,0.42444849,-0.00678542
1761621668733,0.01235962,-0.02706236,-0.08622633,-0.01701619,0.05267402,-0.04638438,0.89916284,0.10512761,0.42474083,-0.00704285
1761621668746,0.01968156,-0.00619734,-0.04486630,-0.01221660,0.04320613,-0.03922462,0.89904220,0.10505125,0.42501087,-0.00728800
1761621668756,0.01557493,0.00438649,-0.01147251,-0.01282772,0.04660670,-0.04368103,0.89892933,0.10498198,0.42526255,-0.00752388
1761621668767,-0.00433777,-0.02478006,-0.05521957,-0.04431817,0.04337494,-0.04399324,0.89884596,0.10474710,0.42549243,-0.00775704
1761621668778,-0.02063278,-0.04163178,-0.07301815,-0.05024137,0.02845088,-0.03331302,0.89880085,0.10446072,0.42565460,-0.00794693
1761621668790,-0.02095404,-0.04240793,-0.07255086,-0.05073151,0.02700620,-0.02258647,0.89876035,0.10417155,0.42580854,-0.00807567
1761621668800,-0.01645192,-0.02611416,-0.04173268,-0.00768001,0.02894642,-0.03091151,0.89869153,0.10413123,0.42596051,-0.00823796
1761621668812,-0.00647340,0.01570173,0.05065191,-0.01260603,0.02500740,-0.00143621,0.89863272,0.10406001,0.42610180,-0.00824607
1761621668824,-0.00486360,0.01786778,0.05030881,-0.00443770,0.01557142,0.00311808,0.89859030,0.10403249,0.42619834,-0.00822674
1761621668834,-0.03085817,0.01612932,0.08637377,0.01688724,0.01843604,0.01359332,0.89853530,0.10412031,0.42629421,-0.00815605
1761621668846,0.00314331,0.02999042,0.06942221,0.01864330,0.01005097,-0.00315304,0.89849494,0.10422844,0.42635251,-0.00817434
1761621668857,-0.01627731,0.02354343,0.08285511,0.00665075,0.02366484,0.02676572,0.89843084,0.10426469,0.42648148,-0.00802847
1761621668868,-0.01796518,-0.01457433,-0.00969930,-0.00466657,0.00872466,0.00682701,0.89841172,0.10423949,0.42652859,-0.00799160
1761621668878,0.00031804,0.00024314,0.00082887,0.01678354,0.02081679,0.00139310,0.89834907,0.10432844,0.42663892,-0.00798422
1761621668889,0.02282807,0.02996759,0.03984210,0.02035334,0.01290175,-0.01127066,0.89830095,0.10444242,0.42671117,-0.00804733
1761621668901,0.06796926,0.01980687,-0.05279749,-0.00210694,0.00978552,-0.01632740,0.89827524,0.10443051,0.42676646,-0.00813958
1761621668913,0.06666534,0.01480592,-0.06239587,0.00608144,0.00037557,-0.02924335,0.89826832,0.10446700,0.42676871,-0.00831504
1761621668923,0.08019799,0.02990648,-0.04688989,0.01150724,-0.01585908,-0.03000982,0.89829908,0.10452684,0.42668625,-0.00847110
1761621668934,0.02113098,0.00211805,-0.02632186,0.01100338,-0.01250977,-0.02235460,0.89832376,0.10458791,0.42661682,-0.00859516
1761621668946,0.02081411,0.00747987,-0.01194684,0.01330751,-0.00944606,-0.01026197,0.89834036,0.10466576,0.42656156,-0.00865520
1761621668956,0.02868583,0.01844970,0.00282015,0.01927900,-0.01433067,-0.00921945,0.89836404,0.10476794,0.42648560,-0.00870406
1761621668968,-0.03754561,-0.02293381,-0.00073772,0.00617341,-0.00738986,-0.00326876,0.89837975,0.10480312,0.42644348,-0.00872269
1761621668979,-0.04141402,-0.02776160,-0.00666647,-0.00394052,-0.01366263,0.00839354,0.89841699,0.10478224,0.42637107,-0.00867821
1761621668990,-0.05219546,-0.04392976,-0.03125602,-0.01651185,-0.01499516,0.00715405,0.89847028,0.10468565,0.42628335,-0.00863635
1761621669001,-0.00600009,-0.02420225,-0.05034372,0.00075941,-0.02138035,-0.00514763,0.89852380,0.10468971,0.42616896,-0.00866389
1761621669013,0.01759819,0.00907298,-0.00396739,0.01217187,-0.02989113,-0.00611900,0.89859934,0.10476213,0.42599111,-0.00870030
1761621669024,0.05595554,0.03126191,-0.00612978,0.01889705,-0.02694628,-0.00406601,0.89865672,0.10486512,0.42584425,-0.00872246
1761621669034,0.03389368,0.03403164,0.03375876,0.01830850,-0.03102526,-0.00175426,0.89872383,0.10496307,0.42567827,-0.00873185
1761621669046,-0.01601512,-0.00509392,0.01151077,0.00549084,-0.02607926,0.00913449,0.89879402,0.10499574,0.42552310,-0.00867750
1761621669057,-0.00056815,-0.00759092,-0.01817473,0.00456268,-0.02907201,0.00520485,0.89886705,0.10502084,0.42536320,-0.00864887
1761621669068,-0.01593519,-0.03534554,-0.06301533,-0.02479770,-0.04720318,0.01012807,0.89900505,0.10488569,0.42510594,-0.00859367
1761621669080,-0.02543792,-0.05047422,-0.08725695,-0.03443357,-0.04829435,0.01314554,0.89916145,0.10468597,0.42482584,-0.00851743
1761621669091,-0.02526464,-0.05961346,-0.11012245,-0.02434788,-0.06242167,0.00940670,0.89933317,0.10455693,0.42449500,-0.00846757
1761621669102,0.00632395,-0.01310072,-0.04086191,-0.01109443,-0.05266595,-0.00290014,0.89947938,0.10449480,0.42420007,-0.00848381
1761621669113,0.02952207,0.01591651,-0.00399059,-0.00419039,-0.04901990,0.00555777,0.89961654,0.10447050,0.42391576,-0.00845158
1761621669124,0.03912959,0.00961980,-0.03429590,-0.00663504,-0.05827476,0.01147400,0.89976242,0.10443633,0.42361564,-0.00839249
1761621669135,-0.03357243,0.00594800,0.06539698,-0.01733592,-0.03451023,0.01108812,0.89987072,0.10433404,0.42341203,-0.00832707
1761621669146,-0.04246632,-0.03914003,-0.03319022,-0.02951821,-0.03375572,0.02864165,0.89997244,0.10418055,0.42323650,-0.00817813
1761621669157,-0.08112230,-0.02821984,0.05113096,-0.03735852,-0.02992127,0.03215254,0.90008076,0.10396387,0.42306296,-0.00799165
1761621669169,-0.07664006,-0.06266894,-0.04083710,-0.05826429,-0.03568284,0.03995720,0.90021662,0.10363176,0.42285957,-0.00776389
1761621669180,-0.09670739,-0.08728978,-0.06943397,-0.07128468,-0.03622942,0.03394965,0.90035683,0.10323970,0.42266030,-0.00757717
1761621669191,-0.06495217,-0.06921572,-0.07421313,-0.06782637,-0.04068909,0.04022446,0.90050366,0.10287344,0.42244058,-0.00735996
1761621669202,-0.01964287,-0.00938238,0.00900924,-0.05144548,-0.02841026,0.04410070,0.90061605,0.10257762,0.42227722,-0.00710638
1761621669212,-0.05863286,-0.05444222,-0.04602189,-0.04010058,-0.03193336,0.04323447,0.90071837,0.10237111,0.42211277,-0.00688372
1761621669224,0.06400596,0.08198342,0.10773713,-0.01569040,-0.02874300,0.02068048,0.90081003,0.10227775,0.42194175,-0.00676067
1761621669235,0.04117948,0.05631617,0.07631451,0.00784101,-0.02793212,0.02159443,0.90087796,0.10232087,0.42178812,-0.00664190
1761621669247,0.07126163,0.08176575,0.09290977,-0.00689383,-0.03502495,0.02469500,0.90097863,0.10228089,0.42158498,-0.00649867
1761621669258,0.02823272,0.02963799,0.03308903,-0.01666829,-0.03023474,0.03469284,0.90106574,0.10219171,0.42142322,-0.00631306
1761621669269,-0.01128647,-0.00920428,-0.00639951,-0.03901344,-0.03508431,0.04403587,0.90118616,0.10196934,0.42122324,-0.00606206
1761621669280,-0.06393892,-0.05734112,-0.04462125,-0.03206796,-0.03348376,0.04211167,0.90129172,0.10179617,0.42104243,-0.00583466
1761621669290,-0.01560624,-0.02142286,-0.02769679,-0.03291784,-0.03734053,0.02910325,0.90140269,0.10162500,0.42084826,-0.00568332
1761621669302,0.00904860,0.01236985,0.01656906,-0.02539584,-0.01854586,0.03737738,0.90147025,0.10147897,0.42074162,-0.00546840
1761621669313,-0.03384433,-0.02170181,-0.00204443,-0.00882040,-0.02597676,0.03776957,0.90154428,0.10143002,0.42059745,-0.00525878
1761621669325,0.09062617,0.08834903,0.08022911,0.02926994,-0.02220594,-0.00796685,0.90158672,0.10160710,0.42046310,-0.00530698
1761621669336,0.08017390,0.08997957,0.09897047,0.01521077,-0.01260544,0.00278390,0.90161033,0.10169304,0.42039188,-0.00529125
1761621669346,0.05933625,0.04667637,0.02632402,-0.00550116,-0.02011718,-0.00417217,0.90166170,0.10166471,0.42028828,-0.00531273
1761621669358,0.02498721,0.01215689,-0.00775577,-0.00759763,-0.01491405,-0.00103344,0.90170461,0.10162292,0.42020625,-0.00531842
1761621669370,0.01781142,0.01164631,0.00161049,0.01524562,-0.01635367,0.00245965,0.90174069,0.10171592,0.42010649,-0.00530341
1761621669381,0.03033359,0.03059053,0.02986708,0.00655695,-0.01138818,-0.00474541,0.90176520,0.10175133,0.42004500,-0.00532904
1761621669391,-0.01826874,-0.01578553,-0.01121036,-0.00937730,-0.00690588,0.00458500,0.90178842,0.10170069,0.42000770,-0.00530428
1761621669403,-0.07900370,-0.05868671,-0.02685377,-0.02402845,-0.01047909,0.03083999,0.90183231,0.10156493,0.41994850,-0.00513003
1761621669413,-0.07105805,-0.05186171,-0.01945922,-0.03433610,-0.01628632,0.03554202,0.90189519,0.10137952,0.41986055,-0.00493811
1761621669424,-0.06173685,-0.05807192,-0.04931283,-0.01703712,-0.00362631,0.02201994,0.90191528,0.10128752,0.41984097,-0.00481920
1761621669436,0.01433549,0.01451110,0.01429887,-0.01097121,-0.02235962,0.01304509,0.90198669,0.10122059,0.41970457,-0.00473962
1761621669447,0.02177031,0.01135993,-0.00458482,0.00672803,-0.02623832,0.00816594,0.90204991,0.10125760,0.41956026,-0.00469471
1761621669458,0.06706126,0.03644323,-0.01068425,0.00729467,-0.03060088,-0.00292200,0.90212225,0.10129699,0.41939502,-0.00471049
1761621669470,0.05454543,0.03635431,0.00817093,-0.00253011,-0.02783087,0.00842133,0.90219984,0.10128219,0.41923221,-0.00466123
1761621669480,0.02681532,0.02165901,0.01249111,0.00595064,-0.01951818,0.01230446,0.90224385,0.10131313,0.41913071,-0.00459724
1761621669491,-0.01616562,-0.00430804,0.01274702,-0.00877294,-0.02480705,0.02027017,0.90231256,0.10126532,0.41899552,-0.00448677
1761621669503,-0.04969186,-0.02884739,0.00346684,-0.01630369,-0.00947910,0.02982438,0.90235145,0.10116586,0.41893769,-0.00430484
1761621669514,-0.05126762,-0.03577764,-0.01030694,-0.02287592,-0.01176639,0.01877935,0.90239284,0.10104920,0.41887768,-0.00420907
1761621669525,-0.03319397,-0.02239406,-0.00526699,-0.00658766,-0.00970652,0.01361152,0.90242255,0.10101231,0.41882333,-0.00413284
1761621669538,0.01261306,0.01724349,0.02292605,0.00713201,-0.00899096,0.00267142,0.90244473,0.10105902,0.41876444,-0.00411534
1761621669548,0.04721133,0.03720250,0.02070316,-0.01944142,-0.01696740,0.00921633,0.90249619,0.10095987,0.41867790,-0.00406834
1761621669558,0.03969333,0.00717621,-0.04117322,-0.00434152,-0.01863649,-0.00688149,0.90254168,0.10093816,0.41858472,-0.00410275
1761621669570,0.04979471,0.03731596,0.01636023,0.01206064,-0.01558181,-0.01120468,0.90257663,0.10101053,0.41849123,-0.00416998
1761621669582,0.06166156,0.03506719,-0.00517979,0.00478942,-0.02381902,-0.02347266,0.90263848,0.10103902,0.41834951,-0.00430964
1761621669593,0.03903910,0.00769607,-0.03859344,-0.01061074,-0.02186589,-0.01333116,0.90270095,0.10098013,0.41822815,-0.00438363
1761621669602,-0.01050857,-0.02219625,-0.03676042,-0.01187828,-0.00901282,0.00675041,0.90272697,0.10092431,0.41818579,-0.00435190
1761621669615,-0.04462377,-0.01003182,0.04045811,0.00844822,-0.01402569,0.00041394,0.90276141,0.10097668,0.41809883,-0.00434933
1761621669625,-0.02216424,0.00966561,0.05509896,0.00980557,-0.00463233,-0.00202158,0.90276681,0.10102767,0.41807474,-0.00435985
1761621669636,0.03628250,0.04504470,0.05418249,0.02315751,-0.00635503,-0.01203372,0.90276841,0.10115504,0.41803979,-0.00442603
1761621669647,0.03979257,0.03883556,0.03531243,0.02929494,-0.01747237,-0.02025604,0.90279334,0.10131030,0.41794719,-0.00453339
1761621669659,-0.00506321,-0.00336238,-0.00087763,0.00383509,-0.00718091,0.00007192,0.90281071,0.10133331,0.41790410,-0.00453296
1761621669670,-0.02278566,-0.01811243,-0.00985216,0.00102269,-0.01206789,-0.00199023,0.90284238,0.10133925,0.41783411,-0.00454450
1761621669681,-0.05500563,-0.03586753,-0.00565588,-0.00749297,0.01734927,0.00836437,0.90280307,0.10129803,0.41792953,-0.00449850
1761621669692,-0.08778868,-0.04394570,0.02175293,-0.01486335,0.01139265,0.02056970,0.90278414,0.10121777,0.41799105,-0.00438742
1761621669703,-0.10391693,-0.05757964,0.01386357,-0.02896077,0.04010138,0.03592873,0.90270153,0.10105994,0.41820960,-0.00419161
1761621669715,-0.04292292,-0.01822647,0.01719832,-0.00532593,0.02941772,-0.01099828,0.90262628,0.10102931,0.41837875,-0.00425485
1761621669726,-0.00093166,0.00830150,0.02290859,-0.00000955,0.02821992,-0.00862776,0.90255410,0.10102926,0.41853396,-0.00430230
1761621669737,0.03758466,0.03372524,0.02482240,0.00440979,0.02348842,-0.00520062,0.90248733,0.10105506,0.41867137,-0.00433273
1761621669747,0.02646934,0.04125508,0.06028230,0.03173891,0.01621883,-0.00836712,0.90243339,0.10120899,0.41875003,-0.00437331
1761621669759,0.04269073,0.02953154,0.00826823,0.00621682,0.02297306,-0.00327763,0.90236628,0.10124567,0.41888557,-0.00439264
1761621669770,-0.01853293,0.00950527,0.04999798,0.00439871,0.02778225,0.02367112,0.90229191,0.10127030,0.41904115,-0.00426009
1761621669782,-0.02627755,-0.03437949,-0.04394000,-0.01521792,0.02826835,0.01130226,0.90222539,0.10118128,0.41920652,-0.00419397
1761621669792,-0.07511402,-0.03592943,0.02432496,-0.01292385,0.03540809,0.00725848,0.90214678,0.10111343,0.41939242,-0.00415586
1761621669804,-0.06975480,-0.06555212,-0.05562792,-0.03288151,0.02191362,0.00865305,0.90210991,0.10092600,0.41951732,-0.00410654
1761621669815,0.04857140,0.01168017,-0.04237556,0.00441416,0.02419142,0.01068584,0.90204499,0.10095050,0.41965159,-0.00404723
1761621669826,0.01750645,0.01876371,0.02073637,0.01233344,0.02787147,-0.00976487,0.90196582,0.10101833,0.41980488,-0.00410094
1761621669837,0.03523399,0.03553532,0.03212383,0.00506319,0.02530387,0.00862416,0.90189690,0.10104669,0.41994658,-0.00405264
1761621669848,-0.03258362,-0.00643386,0.03352550,-0.01834663,0.02373862,0.03071309,0.90185035,0.10095037,0.42007121,-0.00389140
1761621669863,0.01081276,-0.01910143,-0.06212272,-0.03170468,0.01598992,0.01972012,0.90182131,0.10070941,0.42019273,-0.00374153
1761621669870,-0.46762497,-0.30688160,-0.04827772,-0.07768372,0.02172506,0.04228986,0.90181681,0.10043752,0.42026877,-0.00359351
1761621669881,0.14092329,0.04332409,-0.10137452,-0.04241535,0.00779067,0.01622640,0.90182314,0.10020424,0.42031162,-0.00350427
1761621669892,-0.01469439,-0.04057290,-0.07564684,-0.05184321,0.00034218,0.02760491,0.90185419,0.09992169,0.42031348,-0.00335382
1761621669903,0.00842927,-0.01535364,-0.04777856,-0.03509981,0.01145375,0.02055754,0.90184647,0.09972513,0.42037762,-0.00323870
1761621669914,0.01511617,0.01225591,0.00757294,-0.00436757,0.00551968,0.02412319,0.90183524,0.09970067,0.42040853,-0.00310361
1761621669926,0.06178420,0.06579085,0.06683867,0.00202647,0.00563999,0.00846561,0.90181872,0.09971253,0.42044153,-0.00305408
1761621669937,0.02870027,0.04737512,0.07087385,-0.00740393,0.02392309,0.01123794,0.90176156,0.09967144,0.42057430,-0.00299171
1761621669948,0.01170796,0.00575607,-0.00363907,-0.04590693,0.00149358,0.01257911,0.90178693,0.09940747,0.42058289,-0.00291938
1761621669960,0.01462468,-0.01575448,-0.05798852,-0.04927771,0.00726317,0.01317629,0.90179950,0.09910934,0.42062683,-0.00283967
1761621669970,-0.11369235,-0.12676147,-0.13490955,-0.06481774,-0.00127319,0.03184779,0.90183696,0.09879822,0.42062072,-0.00268680
1761621669982,-0.01214300,-0.02400276,-0.03809674,-0.03995579,-0.00185802,0.02657756,0.90186859,0.09856048,0.42060966,-0.00252866
1761621669992,0.00693620,0.00466505,0.00210746,-0.00434483,-0.00180600,0.01027014,0.90187545,0.09853832,0.42060045,-0.00247628
1761621670003,0.08594976,0.09080227,0.08919270,0.00254907,0.00321773,0.00229055,0.90186543,0.09855272,0.42061863,-0.00246334
1761621670017,0.04318166,0.04204638,0.03638870,-0.02563887,0.00150546,0.01172336,0.90187980,0.09837966,0.42062880,-0.00238421
1761621670026,-0.02693302,-0.03861761,-0.05169204,-0.03666336,0.00097611,0.00702128,0.90189546,0.09821834,0.42063309,-0.00235332
1761621670038,0.04609812,0.04459383,0.03866635,0.00141543,-0.00655351,0.00953655,0.90191302,0.09822683,0.42059377,-0.00229610
1761621670050,0.05605065,0.04933594,0.03419308,-0.00746025,-0.00305041,-0.00109013,0.90192708,0.09817983,0.42057455,-0.00230296
1761621670069,0.01729587,0.01111693,0.00095845,-0.01639007,-0.00401075,-0.00118725,0.90196030,0.09803068,0.42053805,-0.00231377
1761621670087,-0.08744090,-0.10520159,-0.11988958,-0.06641633,-0.00498285,0.03548301,0.90204913,0.09741633,0.42049196,-0.00198555
1761621670106,-0.02054705,-0.00327368,0.02287306,-0.01317669,-0.00170505,0.01527886,0.90207016,0.09729313,0.42047602,-0.00184269
1761621670109,-0.71076921,-0.69961251,-0.60605139,0.01638362,-0.02788381,-0.00616165,0.90208866,0.09732016,0.42043001,-0.00185286
1761621670120,0.31392755,0.31874293,0.29088097,-0.01344180,-0.00662123,0.01118514,0.90211464,0.09724355,0.42039227,-0.00178910
1761621670139,0.03115416,0.02604521,0.01604489,-0.00600524,-0.01055740,0.00432866,0.90216760,0.09718650,0.42029198,-0.00174798
1761621670151,-0.00987126,-0.01470104,-0.02122283,-0.00133221,-0.01214343,0.00888933,0.90220047,0.09717897,0.42022337,-0.00169776
1761621670201,0.01157965,0.01461751,0.01755339,-0.00038443,-0.00610624,0.00389855,0.90227378,0.09716922,0.42006857,-0.00159893
1761621670213,-0.27404827,-0.56031557,-0.91163348,-0.12563313,-0.14933478,0.09433535,0.90266012,0.09658503,0.41937417,-0.00116027
1761621670230,0.09400366,0.16745856,0.25528300,-0.04192770,-0.03425199,0.00848753,0.90285283,0.09618881,0.41905049,-0.00108006
1761621670252,0.04419005,0.03400161,0.01559280,-0.02094226,-0.02356400,-0.01706733,0.90299933,0.09595531,0.41878775,-0.00127036
1761621670269,0.03023747,0.00445324,-0.03266847,-0.02954322,-0.02682311,-0.00870529,0.90313157,0.09570419,0.41855975,-0.00134436
1761621670282,-0.00860667,0.00128824,0.01565265,-0.01457208,-0.01895383,0.00241120,0.90320130,0.09560583,0.41843181,-0.00132808
1761621670295,0.01844346,0.03252132,0.04901098,0.01966258,-0.01942282,-0.00938698,0.90324339,0.09572577,0.41831333,-0.00138534
1761621670306,0.04631043,0.06025832,0.07246620,0.03262256,-0.02765821,-0.00010103,0.90329619,0.09591009,0.41815706,-0.00138591
1761621670317,0.02011460,0.04589034,0.07816365,0.00470812,-0.03157029,-0.00872310,0.90337513,0.09593645,0.41798027,-0.00143476
1761621670328,0.00300409,0.00210071,-0.00025794,-0.01799456,-0.03156089,0.01131600,0.90346686,0.09583658,0.41780511,-0.00137196
1761621670340,-0.01525835,-0.01198336,-0.00502813,-0.00729260,-0.01819998,0.02174774,0.90352171,0.09579319,0.41769682,-0.00124256
1761621670352,-0.04060341,-0.02439928,0.00204899,-0.00429027,-0.01645429,0.00576041,0.90357174,0.09576659,0.41759480,-0.00120685
1761621670364,-0.02011604,-0.00461992,0.01847169,0.00338465,-0.01075261,-0.00106038,0.90359778,0.09578572,0.41753405,-0.00121284
1761621670375,-0.01169090,-0.00601834,0.00249961,-0.00148495,-0.01290598,0.00043633,0.90363328,0.09577710,0.41745919,-0.00121031
1761621670387,-0.00622131,0.00632796,0.02393249,-0.00733869,-0.00657601,-0.00181610,0.90365616,0.09573307,0.41741974,-0.00122120
1761621670466,-0.00442032,0.00270295,0.01256936,0.00048290,-0.00086496,0.00068566,0.90366992,0.09575210,0.41738566,-0.00119419
1761621670507,0.01989683,0.01944363,0.01622970,0.01358743,0.00621708,-0.01032152,0.90358139,0.09602996,0.41751280,-0.00140526
1761621670546,-0.00624650,-0.02306134,-0.04419540,-0.01227902,-0.01734620,-0.00523156,0.90376379,0.09578929,0.41717281,-0.00150780
1761621670549,3.05582053,0.88267157,-2.32419329,0.13813822,-0.16007118,-0.11619563,0.90385818,0.09601031,0.41691670,-0.00169371
1761621670586,-0.23190718,-0.05411550,0.20604737,-0.00201556,-0.02014177,-0.01140967,0.90403161,0.09597343,0.41654810,-0.00190251
1761621670614,-0.03138257,-0.01522055,0.00979889,0.00488963,0.00899073,0.00355643,0.90396574,0.09604262,0.41667532,-0.00185219
1761621670632,-0.08680444,-0.01475411,0.08988799,0.00337138,0.04287679,0.01748810,0.90378485,0.09607296,0.41706121,-0.00169479
1761621670672,0.00217461,0.00174237,0.00097280,0.01596138,0.01959293,-0.01299346,0.90357156,0.09638899,0.41744915,-0.00195207
1761621670676,0.17546852,2.20904573,4.83365247,0.28827296,0.21165130,-0.06631539,0.90330097,0.09699437,0.41789362,-0.00209133
1761621670707,-0.00861792,-0.26372771,-0.59416352,0.01190856,0.03015223,-0.00322025,0.90306846,0.09717597,0.41835344,-0.00214044
1761621670715,-0.11979838,0.20891502,0.65576063,-0.01537221,0.08549638,0.01158051,0.90291098,0.09711218,0.41870825,-0.00209238
1761621670753,0.00774090,-0.07727802,-0.18992664,-0.01529249,0.00749047,0.01476906,0.90287651,0.09681933,0.41885170,-0.00180955
1761621670756,-10.52917962,-3.28804885,7.53296683,-0.00900676,0.20228032,0.23080807,0.90275628,0.09680762,0.41911466,-0.00150950
1761621670784,0.94918757,0.28454800,-0.70632993,0.00597031,-0.00355429,0.01350570,0.90277056,0.09689031,0.41906543,-0.00132245
1761621670805,0.01706249,-0.00160931,-0.02853802,-0.01872003,-0.00260069,0.01047849,0.90280543,0.09668813,0.41903735,-0.00120928
1761621670841,0.00352506,-0.00598972,-0.01890351,-0.02306423,0.00427719,0.01720492,0.90281427,0.09627989,0.41911305,-0.00090475
1761621670843,-12.63555679,-9.06220589,-2.75185212,-0.19206144,-0.05465632,0.22131606,0.90286949,0.09604942,0.41904746,-0.00063917
1761621670870,1.10981451,0.78814273,0.22359914,-0.00905901,-0.01316008,0.01756761,0.90296613,0.09592576,0.41886783,-0.00039937
1761621670882,-0.14598708,-0.17145959,-0.18503576,-0.09629099,-0.02506376,0.03049428,0.90309930,0.09533839,0.41871494,-0.00021336
1761621670906,0.06825105,0.05437310,0.02709176,-0.01404775,-0.02257600,-0.00112297,0.90324203,0.09517052,0.41844516,-0.00022678
1761621670915,-0.06091188,-0.23257725,-0.44955296,-0.08685758,-0.05702999,-0.00960912,0.90338776,0.09481440,0.41821133,-0.00026618
1761621670932,0.08328496,0.12110715,0.16050887,-0.02580304,-0.02026366,-0.00188063,0.90349348,0.09458863,0.41803403,-0.00028263
1761621670939,0.00654923,-0.22391812,-0.52735278,-0.01552623,-0.06246083,-0.00084439,0.90360333,0.09453273,0.41780917,-0.00028567
1761621670951,0.08438761,0.14773624,0.22064422,0.02903740,-0.03219204,-0.00914640,0.90367021,0.09469679,0.41762728,-0.00033735
1761621670981,-0.00161257,0.04595522,0.10793992,0.01934144,-0.00939258,-0.00310359,0.90370508,0.09498885,0.41748546,-0.00038421
1761621670985,2.14030120,0.68134415,-1.51106527,0.12562633,-0.11464594,-0.04524355,0.90379242,0.09526523,0.41723323,-0.00048375
1761621671003,-0.46332196,-0.12027991,0.39000241,-0.01952024,-0.01042410,0.01363715,0.90385393,0.09509052,0.41713994,-0.00036170
1761621671018,-0.02560436,-0.01352737,0.00550235,0.00692312,-0.00956428,-0.00343564,0.90388101,0.09514141,0.41706964,-0.00038695
1761621671032,-0.02048592,-0.01238836,0.00055564,0.00331078,-0.00533861,-0.00158925,0.90389591,0.09516475,0.41703200,-0.00039815
1761621671034,1.80942957,0.93422621,-0.44260328,0.16000870,-0.03478923,-0.03757946,0.90389496,0.09534876,0.41699200,-0.00044137
1761621671085,-0.09252186,-0.04150634,0.03723697,0.01799952,-0.00025868,-0.00343436,0.90384951,0.09580684,0.41698541,-0.00052877
1761621671090,3.14116893,3.76684718,4.15531858,0.19766854,-0.00737456,0.03605838,0.90380907,0.09626148,0.41696845,-0.00044584
1761621671122,-0.45571013,-0.54024239,-0.58842977,-0.01550916,-0.00957905,0.00640011,0.90390711,0.09601101,0.41681375,-0.00034248
1761621671137,-0.01847298,-0.06319401,-0.11970137,-0.01871933,-0.05196479,0.01193175,0.90410036,0.09587155,0.41642661,-0.00025358
1761621671176,0.01544731,0.01701711,0.01730602,0.00731613,-0.02321960,-0.00215216,0.90429511,0.09601531,0.41597035,-0.00029587
1761621671211,0.00956933,0.00053052,-0.01248039,-0.01430165,-0.02615125,0.01099756,0.90452868,0.09576861,0.41551924,-0.00010617
1761621671245,0.00297480,-0.02418008,-0.05966181,-0.02730802,-0.05110409,0.00610103,0.90498417,0.09529618,0.41463514,-0.00000062
1761621671259,0.24364892,-0.07610176,-0.51926483,0.04103205,-0.15857807,0.00617871,0.90546506,0.09558546,0.41351716,0.00004294
1761621671312,-0.06072518,0.03541622,0.16740747,-0.01448036,-0.03096585,0.00051721,0.90587821,0.09520317,0.41269966,0.00005659
1761621671319,2.09199932,-0.04848052,-3.05653474,0.04951861,-0.32011974,-0.00840318,0.90636960,0.09537649,0.41157924,0.00002718
1761621671365,-0.30432407,0.01181307,0.45587541,0.01450366,-0.03913712,0.00649663,0.90674103,0.09570862,0.41068300,0.00017596
1761621671388,0.04222972,0.02226314,-0.00839069,-0.00570763,-0.04168241,0.01512166,0.90696292,0.09564356,0.41020782,0.00034834
1761621671421,-0.03312680,0.00076141,0.04804718,0.03870425,-0.02188931,-0.01252020,0.90705810,0.09627831,0.40984884,0.00014301
1761621671453,0.00580389,0.01040058,0.01556208,0.00030389,-0.02206288,0.01755616,0.90721791,0.09628320,0.40949363,0.00042567
1761621671485,-0.02149115,-0.01559946,-0.00514101,-0.00189498,-0.00769866,0.01988470,0.90727669,0.09625278,0.40937006,0.00074482
1761621671506,-0.09226404,-0.07282795,-0.03618895,-0.06387852,-0.02042336,0.03806715,0.90744470,0.09557887,0.40915460,0.00114642
1761621671547,0.00193184,0.00535484,0.00953117,0.00803982,-0.00292960,0.00140941,0.90745429,0.09574248,0.40909498,0.00117511
1761621671589,0.02801300,0.03277466,0.03481932,0.03347072,-0.00058153,-0.01373730,0.90738438,0.09645875,0.40908254,0.00088113
1761621671618,-0.01576831,-0.00238525,0.01659152,-0.01132674,0.01602952,0.01147958,0.90729773,0.09629621,0.40931256,0.00104586
1761621671649,-0.00783094,-0.01452374,-0.02178753,0.00188466,0.00417909,-0.01208153,0.90726519,0.09632580,0.40937817,0.00085618
1761621671673,0.05176322,0.05366788,0.04902345,0.04715184,0.01756139,-0.02989358,0.90711202,0.09688455,0.40958627,0.00050194
1761621671705,-0.00314841,-0.00354175,-0.00351043,0.00943868,0.00878058,-0.01194150,0.90703326,0.09703415,0.40972545,0.00031267
1761621671717,0.09749190,0.09919910,0.08911820,0.01315317,0.00149620,-0.01095754,0.90702120,0.09711044,0.40973412,0.00024911
1761621671774,-0.02824203,-0.03138672,-0.03170504,0.01909855,-0.00004092,-0.00012053,0.90696277,0.09765952,0.40973295,0.00024565
1761621671797,-0.00673950,0.07687373,0.18388930,-0.00769937,0.04819854,0.01085436,0.90672060,0.09757060,0.41028964,0.00037102
1761621671841,-0.02056725,-0.05407788,-0.09397735,0.00312455,0.01616733,-0.00532513,0.90655375,0.09763871,0.41064209,0.00025493
1761621671877,-0.00209943,0.01206252,0.03046118,-0.00790367,0.01781307,-0.00217503,0.90642304,0.09749565,0.41096450,0.00021556
1761621671910,-0.02155011,-0.04625576,-0.07522237,-0.03693457,-0.01337826,0.01578997,0.90658783,0.09688808,0.41074443,0.00047531
1761621671955,0.01374167,0.00312878,-0.01200311,-0.00282660,-0.01112434,0.00620052,0.90670923,0.09682378,0.41049135,0.00061637
1761621671991,0.03845640,0.02683366,0.00718464,0.00988563,-0.01174106,-0.02010231,0.90678497,0.09699925,0.41028295,0.00025955
1761621672022,0.03543211,0.01459718,-0.01626855,-0.00124351,-0.02426288,-0.03139603,0.90695710,0.09697997,0.40990687,-0.00022709
1761621672065,-0.00060120,-0.00019968,0.00049348,-0.00614760,-0.01298356,-0.00568086,0.90709697,0.09684811,0.40962838,-0.00034894
1761621672086,-0.01288248,-0.05036863,-0.09614568,-0.02333404,-0.02870098,0.03081686,0.90725842,0.09660427,0.40932845,-0.00002691
1761621672134,-0.02010871,0.01360480,0.05885387,0.01282894,-0.00718125,-0.01174583,0.90730383,0.09691601,0.40915395,-0.00031233
1761621672165,0.07011729,0.03700377,-0.01345608,0.01246019,-0.00512488,-0.03595570,0.90731859,0.09710852,0.40907477,-0.00086784
1761621672186,-0.02120145,-0.02962542,-0.03721343,-0.07119948,0.00546439,-0.00568019,0.90737160,0.09637160,0.40913132,-0.00092663
1761621672209,-0.09616323,-0.06803294,-0.02076132,-0.01906821,-0.00134514,0.00778427,0.90740205,0.09615137,0.40911579,-0.00083673
1761621672231,-0.00175412,0.00355954,0.01066829,-0.00869405,-0.02305910,-0.00091541,0.90752423,0.09605747,0.40886675,-0.00084661
1761621672276,0.00010988,0.01045140,0.02342129,-0.01205716,-0.00386829,0.00561443,0.90759252,0.09578498,0.40877933,-0.00071973
1761621672287,-0.28884462,-0.38792420,-0.47331788,-0.07238471,-0.02638791,0.06622530,0.90769904,0.09539048,0.40863551,-0.00035880
1761621672307,0.08898677,0.14388654,0.20074644,-0.00754629,-0.01659310,0.01046526,0.90778499,0.09531200,0.40846294,-0.00024996
1761621672341,0.03068022,0.03218764,0.03000382,-0.00925613,-0.00702792,-0.00696018,0.90785355,0.09515835,0.40834628,-0.00036550
1761621672353,0.06466408,-0.06965611,-0.24383941,-0.01207009,-0.01513875,-0.02598699,0.90790272,0.09508472,0.40825393,-0.00052402
1761621672374,-0.01805660,0.03506158,0.10300389,-0.04706987,0.00095580,0.01535897,0.90795103,0.09457872,0.40826421,-0.00035891
1761621672396,-0.02701877,-0.02296579,-0.01397661,-0.00854192,-0.01460435,0.01309565,0.90803233,0.09448561,0.40810502,-0.00021617
1761621672418,0.00472038,0.01443897,0.02571283,0.01207492,-0.01702338,-0.00612653,0.90810326,0.09461964,0.40791606,-0.00028417
1761621672430,0.05611171,0.01130030,-0.05197143,0.02478238,-0.01603098,0.02427987,0.90813006,0.09476338,0.40782308,-0.00014335
1761621672453,-0.01355127,0.02296905,0.06992960,-0.00114214,-0.00137653,0.01226676,0.90813870,0.09475002,0.40780698,0.00000017
1761621672464,-0.08871306,-0.04846620,0.01351808,-0.01376385,0.01651142,0.02313886,0.90810550,0.09467363,0.40789862,0.00012859
1761621672487,0.01320113,0.01429923,0.01363620,-0.00524448,0.00935903,0.00471446,0.90806453,0.09461489,0.40800344,0.00018139
1761621672519,0.00967309,0.00845351,0.00570113,0.00695887,0.00883683,-0.00042625,0.90798797,0.09472832,0.40814748,0.00017445
1761621672531,-0.08817055,0.07295470,0.28298051,0.00813070,0.04353319,-0.01640511,0.90786850,0.09477589,0.40840215,0.00007848
1761621672566,0.03017183,-0.02315046,-0.09288709,0.00010654,0.00608817,-0.00590573,0.90782120,0.09477772,0.40850686,-0.00002310
1761621672577,0.08269220,0.06005818,0.02138049,-0.00191781,-0.00127635,-0.02321325,0.90782556,0.09476688,0.40849965,-0.00015426
1761621672598,-0.01302894,-0.02179516,-0.03130401,-0.00237175,-0.00645160,0.00583215,0.90785959,0.09474127,0.40842997,-0.00009127
1761621672642,-0.00379515,-0.00216300,0.00051019,0.00017300,-0.00134127,0.00519140,0.90787242,0.09474506,0.40840060,0.00002242
1761621672663,-0.05083974,-0.04011811,-0.01981228,-0.01574221,-0.00327250,0.01411491,0.90790478,0.09458134,0.40836657,0.00016922
1761621672688,0.04405723,0.03582487,0.01941647,0.01560857,0.00729488,-0.01290725,0.90784490,0.09477176,0.40845556,0.00001175
1761621672709,0.00578704,0.02176593,0.04053316,0.01584357,0.02179509,-0.00947200,0.90771878,0.09494604,0.40869531,-0.00009244
1761621672720,-0.00295459,0.08509156,0.19407257,0.00068078,0.04543217,-0.00093644,0.90760790,0.09494972,0.40894064,-0.00009750
1761621672743,-0.03872129,-0.07509724,-0.11433170,-0.03619669,0.00635645,0.00531039,0.90761837,0.09453527,0.40901342,-0.00003670
1761621672765,0.00428544,-0.01381166,-0.03662344,-0.00659201,-0.00485499,-0.00313359,0.90764969,0.09446341,0.40896051,-0.00007085
1761621672775,0.00803670,-0.00105863,-0.01326080,0.01326471,0.00226119,0.00109333,0.90763781,0.09452907,0.40897170,-0.00006544
1761621672810,0.01758117,0.01706060,0.01382994,0.01250472,-0.00542961,-0.00082639,0.90765815,0.09475166,0.40887505,-0.00008015
1761621672821,0.04135797,0.02601013,0.00186647,-0.05529308,-0.00263408,0.01188098,0.90769429,0.09446413,0.40886135,-0.00001837
1761621672873,-0.01531246,-0.01227105,-0.00647230,-0.00592475,0.00146625,0.00359054,0.90769313,0.09430979,0.40889955,0.00007516
1761621672903,0.01335810,0.01639769,0.01832394,0.01412199,0.01301361,-0.02244123,0.90758163,0.09452445,0.40909736,-0.00026594
1761621672943,0.01125503,0.00680167,-0.00036328,-0.00220835,0.00263303,-0.01290776,0.90756238,0.09448028,0.40915002,-0.00052410
1761621672966,-0.00878342,-0.06003768,-0.12174251,-0.02548118,-0.04074459,0.01937054,0.90779772,0.09419489,0.40869368,-0.00030715
1761621672999,0.00234981,0.02830174,0.05985211,0.01316781,-0.00951553,0.00084547,0.90784597,0.09441282,0.40853620,-0.00029315
1761621673031,0.00199679,0.00752271,0.01406435,0.00728422,-0.00826823,0.00895565,0.90789325,0.09452900,0.40840432,-0.00015031
1761621673043,-0.23269279,-0.14586913,-0.00550913,-0.06348152,0.02649954,0.09655895,0.90786013,0.09413542,0.40856861,0.00044835
1761621673066,0.01570811,0.01159548,0.00438483,-0.00281531,0.00261080,0.01554686,0.90784991,0.09410318,0.40859851,0.00062637
1761621673099,0.02050726,0.01313747,0.00107247,-0.00853388,0.00723495,0.00754852,0.90781054,0.09396195,0.40871825,0.00075129
1761621673131,0.01265928,0.01260559,0.01074873,0.00154412,0.00757804,-0.00266046,0.90775360,0.09398657,0.40883912,0.00070886
1761621673143,-0.17800611,-0.16328102,-0.11783400,-0.05779453,-0.00770483,0.01390675,0.90781066,0.09363692,0.40879250,0.00079299
1761621673189,0.06394831,0.04765110,0.01791982,0.00898230,-0.01057937,-0.00065124,0.90789868,0.09384306,0.40854971,0.00077805
1761621673199,0.04364723,-0.07603190,-0.22883690,-0.03265048,-0.06336928,0.05605484,0.90806412,0.09367328,0.40822019,0.00106953
1761621673221,-0.02524540,0.02260226,0.08505087,0.00380324,-0.00357171,0.00513958,0.90807734,0.09371492,0.40818108,0.00112581
1761621673245,0.01291545,0.02172384,0.03038693,0.01058549,0.00460292,-0.00907019,0.90804078,0.09383772,0.40823447,0.00102060
1761621673276,0.00572352,0.00755311,0.00882136,0.00576849,0.00623644,-0.00937018,0.90798687,0.09392943,0.40833363,0.00087161
1761621673287,0.10582601,0.14983664,0.18656629,-0.00702688,0.04783055,-0.01889377,0.90787261,0.09389079,0.40859670,0.00076770
1761621673311,-0.09005391,-0.09118113,-0.07818801,-0.01754038,0.01127960,0.02376482,0.90783379,0.09368381,0.40872980,0.00104812
1761621673343,0.00281052,-0.00216073,-0.00876741,-0.00196062,-0.00006760,0.00599889,0.90783738,0.09365264,0.40872872,0.00114350
1761621673366,-0.01917756,-0.01010205,0.00403820,0.00475014,-0.00513689,0.00764157,0.90785877,0.09370869,0.40866811,0.00123367
1761621673390,0.03175085,0.02285959,0.00701636,0.01250370,-0.00631411,-0.00427998,0.90787713,0.09385623,0.40859360,0.00118317
1761621673410,0.05268809,0.02922984,-0.00758410,0.01415462,-0.00708950,-0.01799880,0.90789469,0.09399849,0.40852235,0.00100228
1761621673433,0.01081287,0.00821796,0.00329339,0.01116752,-0.00519387,-0.00744906,0.90790835,0.09412691,0.40846262,0.00091662
1761621673456,-0.00035211,0.00029995,0.00123942,0.00519389,-0.00173740,-0.00423977,0.90791119,0.09418664,0.40844264,0.00086786
1761621673477,-0.02512379,-0.02103855,-0.01180906,-0.00184130,-0.00437622,0.00274742,0.90793362,0.09416749,0.40839713,0.00089643
1761621673521,0.00159907,-0.00046341,-0.00338817,-0.00434251,0.00062769,-0.00376121,0.90793737,0.09407261,0.40841084,0.00081425
1761621673553,-0.03754497,-0.02850719,-0.01163773,-0.01855201,0.01609189,0.01633382,0.90785114,0.09377299,0.40867073,0.00107804
1761621673581,-0.02413283,-0.00959323,0.01185382,-0.01132136,0.00250165,0.00843181,0.90785159,0.09361280,0.40870613,0.00119735
1761621673613,0.00604485,0.00601016,0.00516110,0.00076008,0.00381313,0.01682374,0.90782275,0.09362484,0.40876656,0.00146401
1761621673634,-0.05018891,-0.04473143,-0.03000809,-0.03806640,0.00919960,0.00518993,0.90782032,0.09322895,0.40886224,0.00151798
1761621673655,0.08604817,0.05472493,0.00278579,0.00250603,0.00142276,-0.02501943,0.90781124,0.09325539,0.40887725,0.00125403
1761621673689,0.01106474,0.00628298,-0.00119383,-0.01420197,0.00038135,0.00211585,0.90783343,0.09300970,0.40888385,0.00129063
1761621673723,-0.00357376,-0.00141651,0.00167712,-0.00717918,0.00244659,0.00065262,0.90782732,0.09289052,0.40892446,0.00130147
1761621673745,-0.06888584,-0.03276285,0.02255394,0.01239617,0.01843941,0.03370557,0.90771846,0.09303060,0.40913283,0.00168234
1761621673777,0.01809199,0.01948527,0.01811894,-0.01423613,0.00490863,0.02289086,0.90770583,0.09280638,0.40921014,0.00204287
1761621673800,-0.09178488,-0.06054556,-0.00702189,-0.03249022,0.01154296,0.02681290,0.90768266,0.09242137,0.40934692,0.00236060
1761621673811,-0.13405459,-0.16873839,-0.18800536,-0.08153741,-0.01664102,0.04274017,0.90776728,0.09198107,0.40925706,0.00259140
1761621673834,0.11479022,0.06832423,-0.00691603,-0.01078764,-0.01356609,0.00340101,0.90785004,0.09185701,0.40910105,0.00263051
1761621673857,0.06800386,0.05648470,0.03100814,0.00410416,-0.01043772,-0.00835899,0.90789833,0.09190298,0.40898415,0.00253689
1761621673879,0.02902645,0.01288971,-0.01192831,-0.01241712,-0.01414915,-0.00827416,0.90798249,0.09176639,0.40882851,0.00244588
1761621673901,0.00092649,-0.00115347,-0.00363358,-0.02002403,-0.00024491,0.01080230,0.90800592,0.09154312,0.40882577,0.00256632
1761621673913,-0.09580534,-0.19344535,-0.29238112,-0.05090332,-0.02541968,0.01157274,0.90810264,0.09124534,0.40867707,0.00263402
1761621673944,0.03407923,0.07935305,0.12725394,0.00456827,-0.00608468,-0.00454959,0.90813908,0.09131797,0.40858032,0.00256168
1761621673969,0.01745050,0.01081447,-0.00008555,0.01691495,-0.00518378,-0.00065497,0.90814681,0.09152518,0.40851682,0.00255366
1761621673979,0.01649892,0.08166676,0.15619912,0.02643462,0.04036500,0.00784920,0.90803734,0.09166396,0.40872874,0.00259487
1761621674002,-0.02168474,-0.00896579,0.01031202,0.01185083,0.02190301,-0.02394486,0.90791364,0.09179728,0.40897515,0.00232549
1761621674047,0.00020151,-0.00704974,-0.01584386,0.00248383,0.00599404,-0.00611277,0.90784801,0.09185280,0.40910911,0.00218887
1761621674068,0.03570719,0.06864720,0.10176320,0.01820280,0.01866487,-0.00406884,0.90773733,0.09204939,0.40931069,0.00214493
1761621674091,-0.07490359,-0.08070451,-0.07427898,-0.01989390,0.00062942,0.03412859,0.90775574,0.09182658,0.40931774,0.00252717
1761621674112,-0.03245532,-0.03858782,-0.03989466,-0.01320162,-0.00421564,0.02286100,0.90779011,0.09168334,0.40927200,0.00277521
1761621674134,0.00479125,0.00681108,0.00835898,0.00606704,-0.00294109,0.01547298,0.90779749,0.09175068,0.40923936,0.00294696
1761621674175,0.02204952,0.01208693,-0.00388941,-0.00704949,-0.00056499,0.00057488,0.90781702,0.09160793,0.40922792,0.00295860
1761621674206,0.02545244,-0.00148240,-0.03827681,-0.00504093,-0.01083786,-0.03620935,0.90790254,0.09152955,0.40905939,0.00239554
1761621674246,0.03052140,0.02246876,0.00729185,0.00908630,-0.01058149,-0.01926738,0.90798046,0.09171127,0.40884776,0.00201020
1761621674280,0.00770743,0.00085748,-0.00860358,-0.00747497,-0.01593425,-0.00482882,0.90811340,0.09158607,0.40858086,0.00192931
1761621674301,-0.02030300,-0.03021177,-0.03841882,-0.00378910,-0.01919631,0.01672422,0.90820993,0.09154533,0.40837450,0.00210910
1761621674336,-0.02542743,0.01275512,0.06302869,0.01840721,0.00894986,0.00720450,0.90810754,0.09186470,0.40852978,0.00223410
1761621674369,-0.02948232,-0.01608198,0.00513535,-0.01221054,0.00993516,0.00744864,0.90805268,0.09165895,0.40869719,0.00235961
1761621674380,-0.12799901,-0.01987554,0.13233477,-0.03716501,0.05471284,-0.04344513,0.90794671,0.09146941,0.40897622,0.00213804
1761621674413,0.02417585,-0.01942675,-0.07578442,-0.04428245,-0.00052190,0.02149767,0.90802345,0.09073432,0.40896756,0.00249490
1761621674446,-0.01342976,-0.01613477,-0.01684948,-0.00706140,-0.01017244,0.01116503,0.90811172,0.09061569,0.40879666,0.00268247
1761621674467,0.01351000,-0.02411583,-0.07116258,-0.01417426,-0.02117418,-0.01137376,0.90822640,0.09046757,0.40857539,0.00256361
1761621674480,0.11891996,0.09046265,0.03478659,0.01055173,-0.01208095,-0.01304387,0.90825380,0.09053299,0.40850049,0.00248274
1761621674502,0.01461706,0.03988516,0.06731506,-0.00178937,-0.00775364,-0.00401667,0.90829497,0.09051295,0.40841365,0.00243776
1761621674536,-0.00895883,0.00120946,0.01485054,0.00260586,-0.00155992,-0.00822895,0.90830275,0.09055673,0.40838744,0.00229951
1761621674567,0.01726363,0.01156600,0.00160132,0.00913414,0.00490449,-0.00910478,0.90825370,0.09070150,0.40846518,0.00215520
1761621674579,0.20249367,0.26124995,0.29243691,0.06491051,0.04494071,-0.06453445,0.90809690,0.09108447,0.40873033,0.00177445
1761621674614,-0.07333480,-0.07850703,-0.07072521,0.00395070,0.00974982,-0.00442680,0.90801521,0.09115203,0.40889705,0.00169875
1761621674625,0.06853810,0.13919102,0.21115612,0.06088433,0.04455009,-0.01910893,0.90787003,0.09148994,0.40914430,0.00159269
1761621674647,-0.04244279,-0.05449392,-0.06134741,0.01003276,0.00950381,0.00457028,0.90781116,0.09160130,0.40924980,0.00164342
1761621674658,-0.05378644,0.01746375,0.11270470,-0.02350176,0.02341460,0.00639758,0.90776524,0.09146969,0.40938092,0.00167925
1761621674712,-0.00097319,-0.02173428,-0.04629418,0.00374049,0.00176541,0.00255788,0.90773326,0.09157125,0.40942885,0.00174870
1761621674722,-0.00414835,0.30833452,0.68283576,0.07823275,-0.02424317,0.02007421,0.90774744,0.09194285,0.40931369,0.00184405
1761621674787,0.00636666,-0.04130075,-0.09945400,0.00555009,-0.01654172,0.00344194,0.90797114,0.09212323,0.40877609,0.00195591
1761621674791,1.26568878,-0.15939396,-2.08909186,-0.15573362,-0.25098500,0.02883414,0.90826050,0.09177283,0.40821137,0.00202079
1761621674836,-0.11777804,0.00050176,0.16288073,-0.00001862,-0.01204070,-0.00239382,0.90838238,0.09177241,0.40794046,0.00196693
1761621674879,0.00107777,0.00810344,0.01641781,0.00073151,-0.00438964,-0.00580972,0.90842352,0.09178817,0.40784586,0.00184173
1761621674903,0.02004545,0.01631636,0.00841338,-0.00025919,0.01036104,-0.01309917,0.90836923,0.09178512,0.40796812,0.00168716
1761621674925,-0.02157670,-0.00618077,0.01590417,0.00274659,0.00154025,-0.01671057,0.90835870,0.09181588,0.40798537,0.00150000
1761621674935,0.15954387,0.14417513,0.09837445,0.05000863,0.03187869,-0.02709805,0.90826780,0.09205092,0.40813520,0.00137264
1761621674958,-0.06906150,-0.03880433,0.00922042,-0.00458581,0.01236971,0.00809077,0.90820856,0.09199772,0.40827869,0.00146649
1761621674991,-0.02580990,-0.02315513,-0.01544878,-0.00608426,0.00489796,0.00912781,0.90818245,0.09189855,0.40835853,0.00161527
1761621675003,-0.20792966,-0.08607084,0.09560195,0.01206420,0.02246791,0.03190768,0.90811186,0.09197335,0.40849783,0.00181310
1761621675047,0.05791640,0.02663075,-0.02080716,0.00902936,0.00548071,-0.00088083,0.90803666,0.09217425,0.40861977,0.00179350
1761621675058,0.01475907,0.34811028,0.74559505,0.11681508,0.02552537,-0.02792482,0.90791532,0.09278169,0.40875250,0.00164829
1761621675081,0.02191851,-0.12790555,-0.31140247,-0.03280705,-0.00864940,0.00375645,0.90799849,0.09240441,0.40865304,0.00169149
1761621675102,-0.03413423,-0.06218540,-0.08988928,-0.02597430,-0.01587029,0.02365098,0.90810312,0.09212518,0.40848243,0.00194574
1761621675126,-0.01859982,-0.00858264,0.00651427,-0.00544501,-0.00181431,0.02482558,0.90811852,0.09206121,0.40846111,0.00223744
1761621675137,-0.07815952,-0.04630555,0.00609042,0.00369143,-0.00164406,0.01549926,0.90812033,0.09208169,0.40845199,0.00232346
1761621675171,0.03245727,0.02765911,0.01610423,-0.00085314,0.00450843,0.00485755,0.90808750,0.09206736,0.40852773,0.00240507
1761621675192,-0.07997034,-0.02903420,0.04616583,0.00074453,0.03636221,0.01040184,0.90791373,0.09207522,0.40891135,0.00251481
1761621675213,-0.01552512,-0.00283554,0.01548125,-0.02648427,0.03788494,0.03427983,0.90775575,0.09178654,0.40932430,0.00288846
1761621675247,0.01455957,-0.00088915,-0.02195510,-0.01935186,0.01001841,0.01344640,0.90771178,0.09146046,0.40949311,0.00311503
1761621675282,0.00558106,-0.00457734,-0.01765237,0.00264617,-0.00439382,-0.01416598,0.90774235,0.09150637,0.40941687,0.00286925
1761621675304,0.14101323,0.06505713,-0.05158315,-0.00793696,-0.03189226,-0.03410763,0.90791269,0.09141787,0.40906128,0.00248895
1761621675326,0.01039027,0.00444087,-0.00467824,0.02963801,-0.02405815,-0.00619702,0.90800036,0.09174834,0.40879303,0.00241985
1761621675347,0.02762069,0.03998039,0.05009048,0.02519055,-0.02004099,-0.00350137,0.90806711,0.09200780,0.40858660,0.00238379
1761621675359,0.20274572,0.15979573,0.07207010,0.04121866,-0.01088060,-0.01963424,0.90807146,0.09224274,0.40852459,0.00227188
1761621675392,-0.09976603,-0.06552615,-0.00660394,0.00012003,0.00394218,-0.00315337,0.90804186,0.09224474,0.40859022,0.00221937
1761621675426,-0.02231558,-0.01524865,-0.00277128,-0.00727600,0.01096154,0.00375662,0.90796996,0.09212032,0.40877767,0.00228361
1761621675460,-0.02888362,-0.00751756,0.02318893,-0.00674973,0.03219934,-0.00681885,0.90773801,0.09200693,0.40931861,0.00216905
1761621675470,-0.05028471,-0.01591849,0.03472629,0.00016820,0.02521595,-0.04797438,0.90767991,0.09200779,0.40944848,0.00192199
1761621675516,0.03072535,0.00811160,-0.02452324,0.00504818,0.00123454,-0.00461985,0.90765528,0.09212516,0.40947718,0.00181457
1761621675528,0.00221314,-0.00800705,-0.02129608,-0.04176056,-0.03364700,0.04840581,0.90777109,0.09187460,0.40927530,0.00210501
1761621675570,-0.00895210,-0.00896497,-0.00720666,0.00150750,-0.00786676,0.00149185,0.90784228,0.09190626,0.40911010,0.00213634
1761621675604,-0.00219208,-0.00193042,-0.00132900,-0.00425496,0.00053123,0.00366456,0.90784539,0.09183371,0.40911915,0.00219882
1761621675638,-0.00414223,-0.00196429,0.00148528,-0.01075765,0.01104742,-0.00817303,0.90778012,0.09165244,0.40930530,0.00206110
1761621675650,0.13007721,0.07715438,-0.00971923,0.03814670,0.02068425,-0.06741223,0.90770250,0.09187942,0.40942837,0.00166000
1761621675695,-0.01128898,0.00239787,0.02088459,0.02048293,0.00204572,-0.00427575,0.90763544,0.09233824,0.40947420,0.00156422
1761621675726,0.00057011,0.01379233,0.02961208,0.00578449,-0.00980462,0.02322178,0.90769492,0.09242905,0.40932026,0.00192881
1761621675750,-0.05500740,-0.03458678,-0.00022352,0.03172844,-0.01745599,0.02668879,0.90774840,0.09280027,0.40911603,0.00224106
1761621675783,0.05073399,0.03589446,0.00918228,0.05432804,-0.02451604,-0.00386222,0.90783923,0.09370212,0.40870906,0.00217695
1761621675828,0.00616430,0.00151884,-0.00497000,0.00470429,-0.01402804,0.00146283,0.90796967,0.09380750,0.40839484,0.00220972
1761621675859,-0.01036772,-0.02238564,-0.03508658,0.00289639,-0.01779278,0.02227266,0.90808736,0.09385210,0.40812083,0.00255272
1761621675871,-0.01846846,-0.07200408,-0.13442465,-0.06991616,-0.05478831,0.02493202,0.90828578,0.09341512,0.40777840,0.00270854
1761621675893,-0.07201641,-0.06947863,-0.05436980,-0.05047570,-0.00765403,0.01324199,0.90837963,0.09286242,0.40769459,0.00285354
1761621675938,0.00467756,0.01500254,0.02681035,-0.00525689,-0.00349964,0.00685024,0.90842676,0.09274361,0.40761550,0.00300836
1761621675972,-0.01420188,-0.01487528,-0.01313483,-0.01725022,-0.00643506,0.01049490,0.90850581,0.09244777,0.40750513,0.00318835
1761621675984,-0.17920826,-0.27891005,-0.36726785,-0.05623637,-0.02854522,-0.00177218,0.90861415,0.09211879,0.40733815,0.00317798
1761621676028,0.06768208,0.09267277,0.11100779,-0.01447001,-0.00350685,-0.00421441,0.90868035,0.09180479,0.40726205,0.00308653
1761621676062,0.02147491,0.00581976,-0.01660466,0.01011984,-0.01082994,-0.02190057,0.90874800,0.09198037,0.40707415,0.00270655
1761621676093,0.03760225,0.03023020,0.01487725,-0.00000864,-0.01387676,-0.01470586,0.90884467,0.09198023,0.40685975,0.00247934
1761621676129,-0.00393504,0.00375332,0.01364356,0.02114496,-0.01268323,-0.02211524,0.90890942,0.09236190,0.40663082,0.00208016
1761621676161,0.09992081,0.06918442,0.01539495,0.02720687,-0.02191917,-0.05396807,0.90902347,0.09279721,0.40628011,0.00121668
1761621676205,-0.05533087,-0.03893486,-0.00953001,-0.01301970,0.00007741,-0.00828479,0.90905193,0.09251273,0.40628180,0.00103565
1761621676210,0.88307127,0.10362419,-0.97207024,-0.01136526,-0.01932678,0.00959274,0.90907786,0.09248261,0.40623059,0.00106107
1761621676274,-0.10852609,-0.02841959,0.08518227,-0.00837341,-0.00278776,0.00031026,0.90914429,0.09221717,0.40614222,0.00107091
1761621676294,-0.08157640,-0.11122753,-0.13257001,-0.06813928,0.01267595,0.05339055,0.90915590,0.09152556,0.40627088,0.00161282
1761621676327,-0.01615020,0.01597254,0.05697653,-0.01137532,-0.00844091,0.00864803,0.90923747,0.09133616,0.40613034,0.00175681
1761621676372,0.03148880,0.02562902,0.01332180,-0.00735782,-0.00034964,-0.00400903,0.90925749,0.09117282,0.40612257,0.00166781
1761621676383,-0.03735951,-0.14540645,-0.26533743,-0.01393761,0.00523532,-0.03069189,0.90925248,0.09109407,0.40615215,0.00149440
1761621676429,0.02884349,0.05254517,0.07521769,0.01203679,0.00079685,-0.00971586,0.90921646,0.09137392,0.40617068,0.00126851
1761621676460,0.02145726,0.02720974,0.03008355,0.01867768,-0.00060928,0.00455774,0.90919160,0.09166156,0.40616130,0.00133870
1761621676473,0.10859755,0.13001491,0.13612062,0.02239232,-0.00019151,-0.01923447,0.90917797,0.09180375,0.40616008,0.00121656
1761621676494,-0.06033427,-0.06870763,-0.06772489,0.04041980,-0.00135429,-0.01740172,0.90914072,0.09223827,0.40614552,0.00102949
1761621676518,0.00560031,0.00311845,-0.00075442,-0.01716605,0.00190253,0.00274117,0.90915114,0.09203656,0.40616788,0.00106170
1761621676562,-0.02782774,-0.02900428,-0.02558832,-0.01907583,-0.00229572,0.01061119,0.90921579,0.09161690,0.40611737,0.00129515
1761621676573,-0.49759616,-0.51252504,-0.44294876,-0.03502629,-0.03068206,0.08576157,0.90930803,0.09142775,0.40595169,0.00175826
1761621676606,0.14052289,0.15285279,0.14282587,0.00112657,-0.00129387,0.01889492,0.90931521,0.09144679,0.40592982,0.00207758
1761621676618,-0.25091572,-0.17805412,-0.04840511,-0.06232178,-0.00528026,0.05521017,0.90936268,0.09109779,0.40590025,0.00238676
1761621676640,0.06355174,0.04884837,0.02073975,0.00949149,0.01585682,0.01103318,0.90927199,0.09120457,0.40607864,0.00251088
1761621676662,0.03599491,0.03726316,0.03240669,0.00300861,0.00725514,-0.01658327,0.90923316,0.09123797,0.40615917,0.00232681
1761621676686,0.03806752,0.01525739,-0.01852164,-0.01370902,0.00613816,-0.00501694,0.90921724,0.09107688,0.40623130,0.00226786
1761621676719,0.00401662,-0.00010817,-0.00563526,-0.00263462,0.00814976,-0.00816704,0.90916166,0.09103328,0.40636618,0.00213269
1761621676729,0.19837937,0.10435876,-0.04207155,-0.02540941,0.01163366,-0.10667793,0.90914910,0.09090242,0.40642609,0.00158330
1761621676753,-0.02680191,-0.02230657,-0.01215553,0.02292052,-0.00943962,-0.03337193,0.90917220,0.09117059,0.40631565,0.00119285
1761621676799,-0.00586102,0.00325577,0.01505984,0.01721649,-0.01376630,-0.00102912,0.90927366,0.09156571,0.40599971,0.00116923
1761621676855,0.00890818,0.00481378,-0.00155331,-0.00238852,-0.01707905,0.01378612,0.90949554,0.09149812,0.40551637,0.00155938
1761621676885,-0.07756223,-0.08199945,-0.07331333,-0.04051235,0.00970469,0.01217707,0.90949131,0.09090259,0.40565903,0.00173838
1761621676918,-0.01863336,0.01487851,0.05759305,-0.02759203,0.02955155,0.00619465,0.90931887,0.09044732,0.40614663,0.00184060
1761621676951,-0.00802442,-0.00026915,0.01030622,-0.00392878,0.01510848,0.00655401,0.90921307,0.09038210,0.40639743,0.00194939
1761621676985,0.01566549,0.01271535,0.00637017,-0.00423741,-0.00287483,0.01537853,0.90924139,0.09031027,0.40634870,0.00221006
1761621676995,-0.16963785,-0.11435661,-0.01712349,-0.01073693,-0.03189002,0.02460319,0.90932147,0.09025391,0.40618128,0.00233923
1761621677042,0.05699013,0.03435100,-0.00284014,-0.00217773,-0.00571425,0.00574928,0.90938533,0.09020338,0.40604871,0.00247261
1761621677053,-0.01547180,-0.06287665,-0.11542476,0.00049555,-0.01237016,-0.02778181,0.90941612,0.09020613,0.40598006,0.00231842
1761621677074,0.03318294,0.03228537,0.02516703,-0.01384019,-0.00935047,-0.00357766,0.90947666,0.09005527,0.40587814,0.00227942
1761621677127,-0.00243030,0.00339082,0.01064821,0.00064729,-0.00276069,-0.00053488,0.90950711,0.09007214,0.40580622,0.00226549
1761621677165,0.00809407,-0.00947634,-0.03141501,-0.01649464,-0.01289911,-0.00217170,0.90965083,0.08975132,0.40555533,0.00222325
1761621677184,0.10696590,0.10529234,0.08321817,0.08964333,-0.01133244,-0.04774529,0.90961558,0.09059845,0.40544824,0.00177206
1761621677206,0.07294220,0.07254852,0.05832847,0.02466466,-0.01768405,-0.02769074,0.90967574,0.09086976,0.40525372,0.00146746
1761621677253,-0.06909148,-0.05559619,-0.02686518,-0.01645360,-0.00330953,0.01281628,0.90974824,0.09048392,0.40517611,0.00176800
1761621677287,-0.04097749,-0.03933219,-0.02983027,-0.01131414,0.00238830,0.01349542,0.90974879,0.09029215,0.40521659,0.00199675
1761621677320,0.02507736,0.03342064,0.03836721,0.02305767,0.00255032,-0.02002438,0.90969304,0.09067144,0.40525854,0.00166735
1761621677330,0.23275656,0.24532244,0.21704936,0.01855951,0.02853513,-0.01519140,0.90962325,0.09076053,0.40539551,0.00159443
1761621677353,-0.09819688,-0.09230481,-0.06720989,0.00234696,0.00698052,0.00282158,0.90958439,0.09078775,0.40547648,0.00162716
1761621677374,-0.01722294,-0.00459667,0.01305530,0.00837584,0.00112339,0.02346928,0.90956966,0.09087696,0.40548845,0.00187711
1761621677407,-0.00215954,-0.00857718,-0.01559184,0.00632146,-0.00101577,0.00356098,0.90956658,0.09098158,0.40547164,0.00193604
1761621677443,0.02426463,0.01564159,0.00129481,0.00649931,-0.00638983,-0.02794586,0.90960695,0.09109824,0.40535694,0.00143441
1761621677476,0.02258403,0.00096042,-0.02841541,-0.00351138,0.00904978,-0.01444305,0.90954672,0.09104048,0.40550581,0.00119682
1761621677509,-0.02730640,-0.00391113,0.02832192,0.00445268,0.01620869,-0.00532558,0.90942019,0.09111395,0.40577325,0.00110895
1761621677520,0.05407239,0.06500251,0.06870246,0.00152537,0.00886622,-0.01152921,0.90939869,0.09112196,0.40581980,0.00104842
1761621677552,-0.02800234,-0.03373433,-0.03556843,0.00100581,-0.00041258,-0.00231204,0.90940008,0.09113825,0.40581312,0.00101097
1761621677587,0.00285909,-0.00056559,-0.00503543,-0.00379213,-0.00400705,0.00031422,0.90943845,0.09107113,0.40574219,0.00101653
1761621677609,0.03020471,-0.00529725,-0.05233583,-0.01321569,-0.01883375,-0.02165584,0.90954222,0.09093038,0.40554161,0.00078590
1761621677654,-0.00889839,0.00077642,0.01375134,0.00037440,-0.00350671,-0.00319542,0.90957669,0.09093882,0.40546254,0.00071384
1761621677675,0.02948823,-0.03044977,-0.10536754,-0.03674250,-0.01761646,-0.00790553,0.90970055,0.09054384,0.40527316,0.00062885
1761621677698,-0.00174849,0.01350655,0.03172996,0.00185542,-0.01620256,-0.03126097,0.90978088,0.09056499,0.40508845,0.00027248
1761621677720,0.05325178,0.04952698,0.03566402,0.02457586,-0.01550406,-0.02177800,0.90983011,0.09083656,0.40491713,0.00003183
1761621677753,-0.01750188,0.00064301,0.02492669,0.01014049,-0.01468390,-0.01304433,0.90992117,0.09100388,0.40467485,-0.00018340
1761621677766,0.09897333,0.03722459,-0.05113917,-0.02426095,-0.01791307,-0.02014836,0.90998814,0.09084739,0.40455931,-0.00031336
1761621677799,-0.06198755,-0.03186926,0.01374689,-0.01014427,-0.00552221,0.00879593,0.91004555,0.09067950,0.40446791,-0.00016778
1761621677820,0.09707608,0.03377496,-0.05609688,0.04994562,-0.00856689,-0.03395634,0.91003341,0.09118645,0.40438096,-0.00051244
1761621677843,-0.04530076,0.00580378,0.07284849,-0.00222967,-0.00733242,-0.01311868,0.91007439,0.09116014,0.40429444,-0.00066724
1761621677854,0.25917820,0.16356518,0.00911799,0.05795745,-0.00974620,-0.09120585,0.91006563,0.09148181,0.40424035,-0.00117343
1761621677888,-0.09965053,-0.06218038,-0.00186468,-0.01349184,-0.00457396,0.00540042,0.91012245,0.09125582,0.40416373,-0.00108298
1761621677921,-0.02192797,-0.02014178,-0.01428692,-0.01420424,0.00234442,0.01518060,0.91012913,0.09101719,0.40420312,-0.00082794
1761621677932,-0.24922557,-0.16104391,-0.01651097,-0.00651882,-0.00319042,0.03729561,0.91014025,0.09098264,0.40418621,-0.00063028
1761621677964,0.05655580,0.04089701,0.01302581,0.00509963,-0.00729275,-0.00131227,0.91018429,0.09106500,0.40406843,-0.00065147
1761621677987,0.03071429,0.02261106,0.00803346,0.01637903,-0.00365527,-0.01006841,0.91018399,0.09125581,0.40402585,-0.00076877
1761621678010,0.00367564,0.01260378,0.02247144,0.00913494,0.00806992,-0.00027473,0.91013450,0.09135630,0.40411462,-0.00077179
1761621678022,-0.03174178,0.02950630,0.10553097,-0.00905989,0.01990557,0.02480547,0.91008624,0.09130103,0.40423604,-0.00062047
1761621678055,-0.02389238,-0.03605810,-0.04611335,-0.01189649,0.00763780,0.00773087,0.91004989,0.09110414,0.40436245,-0.00049253
1761621678090,0.00951553,0.00718008,0.00297703,0.00300841,0.00504464,-0.01972211,0.91000526,0.09115664,0.40445047,-0.00083668
1761621678111,0.00846147,0.01403304,0.01886851,0.00856267,0.01611085,0.01586391,0.90991958,0.09124826,0.40462286,-0.00066694
1761621678132,-0.05510611,-0.01704369,0.03628909,0.01842135,0.02100152,0.03345668,0.90980450,0.09143800,0.40483918,-0.00032233
1761621678167,0.00467548,-0.00070412,-0.00755702,-0.00355871,0.01299483,0.01621366,0.90970850,0.09137501,0.40506918,-0.00003535
1761621678200,-0.04142613,-0.00817874,0.03758684,0.00645297,0.03030875,0.01582686,0.90947847,0.09147987,0.40556170,0.00022184
1761621678209,-0.51689838,-0.09222775,0.49239093,-0.02130052,0.08103500,0.02210859,0.90931176,0.09137550,0.40595877,0.00033017
1761621678253,0.15437414,0.02906910,-0.14337948,0.01132417,0.00504739,-0.01248656,0.90923836,0.09162067,0.40606805,0.00005983
1761621678289,0.02002295,0.01562434,0.00702561,0.00814298,0.00830431,-0.00273749,0.90915658,0.09176765,0.40621794,0.00001042
1761621678299,0.04246118,0.08815845,0.13491480,0.00611291,-0.01836965,0.00167942,0.90919718,0.09180035,0.40611966,0.00001941
1761621678345,-0.00309862,-0.02761424,-0.05586730,0.00358315,-0.00600090,-0.00160888,0.90924980,0.09188169,0.40598344,-0.00001711
1761621678365,0.03748602,0.03104480,0.01721865,0.01276538,0.00155319,0.00007855,0.90923005,0.09200871,0.40599890,-0.00001633
1761621678389,-0.02845877,-0.00805835,0.02068290,0.02260176,0.01456947,-0.00675852,0.90912491,0.09227880,0.40617300,-0.00009710
1761621678422,0.00249338,-0.00105483,-0.00559409,0.00224502,0.00559549,-0.00646530,0.90908002,0.09231573,0.40626505,-0.00020345
1761621678433,-0.10602842,0.05783191,0.26809705,0.03104264,0.04232946,0.02624148,0.90895529,0.09249112,0.40650421,-0.00005519
1761621678467,0.00951412,-0.03299513,-0.08442610,-0.00554953,0.01344824,0.01018856,0.90886287,0.09239705,0.40673216,0.00011751
1761621678477,-0.15898220,0.02506402,0.26905607,0.06786828,0.09274021,-0.03091330,0.90860853,0.09275336,0.40721904,-0.00004479
1761621678524,0.03733243,0.00078032,-0.04857230,-0.00378876,0.03414837,-0.00670680,0.90825677,0.09266414,0.40802324,-0.00020273
1761621678545,-0.12814264,-0.01340095,0.14438668,-0.01415401,0.06837191,0.00481430,0.90795788,0.09251977,0.40872063,-0.00015362
1761621678578,0.04007026,-0.01415975,-0.08515049,-0.00895739,0.02448299,0.00656669,0.90778998,0.09237107,0.40912705,-0.00004462
1761621678611,-0.03017780,-0.01807516,0.00152454,-0.00992622,0.01612872,-0.00273291,0.90768727,0.09220828,0.40939156,-0.00008944
1761621678643,0.05569184,0.01866056,-0.03477148,-0.00262052,-0.00876067,0.00094343,0.90775558,0.09216583,0.40924964,-0.00007415
1761621678667,0.04333679,-0.01936030,-0.10181048,-0.03412781,-0.07197436,0.01702070,0.90818056,0.09176142,0.40839674,0.00012754
1761621678700,0.01720700,0.00865406,-0.00433075,0.00694117,-0.03917881,-0.00861225,0.90845604,0.09187456,0.40775813,-0.00001284
1761621678721,0.12557292,-0.01680666,-0.20718493,-0.06853430,-0.07263652,-0.02643761,0.90887828,0.09114124,0.40698092,-0.00029572
1761621678758,-0.05776943,0.00387572,0.08731592,-0.01530947,-0.01828454,0.00341103,0.90905950,0.09085572,0.40663991,-0.00023210
1761621678789,-0.02009359,-0.02522689,-0.02741612,-0.01250626,-0.01848675,0.02164091,0.90920652,0.09066250,0.40635429,0.00010225
1761621678836,-0.01797437,0.01281162,0.05221189,-0.00957722,-0.00361164,0.01407321,0.90926689,0.09043695,0.40626924,0.00043367
1761621678868,-0.08333942,-0.05329436,-0.00317470,-0.03352428,0.01830834,0.03430581,0.90918945,0.08990559,0.40655942,0.00097742
1761621678889,0.01126719,0.01307646,0.01352127,-0.01740790,-0.00570031,-0.01085753,0.90923567,0.08971759,0.40649786,0.00086016
1761621678923,0.07516997,0.05152727,0.01032164,-0.00414117,-0.01343394,-0.01505910,0.90934264,0.08964864,0.40627418,0.00060942
1761621678979,0.01396642,0.01136973,0.00578246,0.00372959,-0.01382450,-0.01295858,0.90950593,0.08975344,0.40588572,0.00024529
1761621678990,1.77326684,0.75903382,-0.73673289,0.19397141,-0.23077033,-0.17973694,0.90995687,0.09080089,0.40463956,-0.00072529
1761621679047,-0.29404294,-0.11534063,0.14518337,0.01732805,-0.01366093,-0.00774239,0.91008116,0.09129820,0.40424749,-0.00094750
1761621679078,0.05947776,0.04649684,0.02176878,0.02899527,-0.00721681,-0.04204431,0.91008469,0.09174183,0.40413707,-0.00159078
1761621679133,-0.05398963,-0.03063046,0.00577987,0.02012970,0.00743727,-0.00732485,0.90993561,0.09230244,0.40434420,-0.00179477
1761621679146,0.53116509,0.52784479,0.43905637,0.04554767,-0.00265843,-0.03414465,0.90991415,0.09258028,0.40432798,-0.00200306
1761621679200,-0.13606188,-0.13507955,-0.11198466,-0.01351225,-0.01240902,-0.00258140,0.91010053,0.09221410,0.40399170,-0.00207301
1761621679211,0.07339337,-0.08688703,-0.28513708,-0.02213342,-0.04932134,0.03448236,0.91023242,0.09209347,0.40372290,-0.00188508
1761621679235,-0.05537122,0.00053942,0.07434588,-0.01147672,-0.00714681,0.00228831,0.91028465,0.09195518,0.40363678,-0.00185751
1761621679268,-0.01846816,-0.00672805,0.01004198,-0.01624951,0.00409494,0.01011260,0.91028204,0.09168544,0.40370475,-0.00168964
1761621679280,-0.17838777,-0.13485019,-0.05657583,-0.02665729,0.03905653,0.07081503,0.91019705,0.09152949,0.40393323,-0.00127537
1761621679326,0.03612357,0.03859540,0.03584136,-0.00185229,0.00253120,0.00737123,0.91017637,0.09148818,0.40398968,-0.00111099
1761621679358,-0.08178410,-0.05428181,-0.00893682,-0.04511922,0.01683228,0.03189071,0.91012747,0.09073469,0.40427078,-0.00057842
1761621679369,-0.39565809,-0.33279975,-0.19278060,-0.07194181,0.01055914,-0.01424328,0.91014123,0.09033182,0.40432991,-0.00065818
1761621679400,0.22487885,0.16156423,0.05084895,0.00920220,-0.00863634,-0.01248763,0.91018708,0.09047675,0.40419389,-0.00085486
1761621679413,0.11542205,0.01257850,-0.12591735,-0.02844753,-0.05972884,-0.01208072,0.91037621,0.09029327,0.40380864,-0.00093278
1761621679447,0.00222919,0.01530978,0.03014092,-0.00658721,-0.02107100,-0.00327684,0.91054305,0.09018326,0.40345675,-0.00098751
1761621679458,0.12139690,-0.06772133,-0.30546307,-0.01644058,-0.03371288,-0.00125308,0.91063579,0.09009119,0.40326796,-0.00099452
1761621679491,-0.04816336,0.02871743,0.12523521,0.00278578,-0.00403578,0.00137564,0.91066045,0.09013660,0.40320218,-0.00097210
1761621679514,0.02398526,0.01024912,-0.00968648,0.01175873,-0.00755193,-0.01255934,0.91068523,0.09027124,0.40311571,-0.00111590
1761621679545,0.00242198,0.01184854,0.02223828,0.00648222,-0.00445416,-0.00655270,0.91070609,0.09037366,0.40304533,-0.00121944
1761621679557,0.14389072,0.11218953,0.05132487,0.03797238,-0.00478908,0.00325280,0.91069644,0.09059580,0.40301731,-0.00120041
1761621679591,-0.06718067,-0.03682470,0.00935041,0.01604673,-0.00375910,0.00154536,0.91069758,0.09086939,0.40295322,-0.00117406
1761621679614,0.01642730,0.02599163,0.03412179,0.03142630,0.00313496,-0.00188723,0.91064546,0.09123080,0.40298927,-0.00119576
1761621679624,0.07027851,0.16777620,0.26787335,0.03366213,0.00009344,0.00783078,0.91062860,0.09139742,0.40298974,-0.00115700
1761621679657,-0.03795884,-0.06658243,-0.09290193,0.01146520,0.00271825,-0.00351307,0.91058955,0.09158717,0.40303472,-0.00121514
1761621679700,0.00343001,0.00251205,0.00089023,0.01121706,-0.00234208,-0.00611263,0.91058737,0.09182722,0.40298460,-0.00134595
1761621679711,0.45792586,0.41585626,0.29232660,0.04897831,-0.04262987,-0.02872039,0.91066711,0.09210884,0.40273948,-0.00151109
1761621679735,-0.20078282,-0.19423360,-0.15345071,0.00987016,-0.00150925,0.01215600,0.91066338,0.09222679,0.40272145,-0.00136583
1761621679781,-0.01672187,-0.01436288,-0.00897748,-0.00463836,-0.00625888,0.00768616,0.91073775,0.09212057,0.40257812,-0.00118982
1761621679791,-0.05763113,-0.07773404,-0.09187699,0.00542387,-0.04172940,0.03098380,0.91083187,0.09214905,0.40235904,-0.00102715
1761621679836,0.00764960,0.01049136,0.01259420,-0.00658149,-0.00297918,0.00304728,0.91087643,0.09200129,0.40229215,-0.00095874
1761621679848,0.05276774,0.07376164,0.08887297,0.04066409,0.04489446,-0.03598317,0.91073968,0.09223308,0.40254805,-0.00116384
1761621679879,-0.03493398,-0.03094697,-0.02053049,-0.03522195,0.01954009,0.02412107,0.91066052,0.09168186,0.40285386,-0.00078635
1761621679901,-0.08652990,-0.05572304,-0.00605203,-0.01539870,0.02070945,0.03270933,0.91057471,0.09150785,0.40308787,-0.00041673
1761621679914,-0.22438459,-0.12825793,0.02010755,-0.02452993,0.00712325,0.01736764,0.91057044,0.09135454,0.40313239,-0.00030819
1761621679936,0.16097410,0.08999324,-0.01834182,-0.01855013,-0.00588527,0.01497976,0.91061959,0.09115049,0.40306765,-0.00014341
1761621679958,0.01127276,0.00204813,-0.01030038,-0.00444379,0.00024500,0.01515734,0.91062328,0.09110183,0.40307034,0.00002256
1761621679967,-0.32064436,-0.22607996,-0.06324269,0.00177038,-0.01452599,0.04035409,0.91065326,0.09111033,0.40300061,0.00021626
1761621679981,0.21072189,0.14668461,0.03788352,-0.00243009,-0.02900791,0.00900751,0.91074021,0.09109417,0.40280771,0.00027616
1761621680024,0.03530362,0.02365462,0.00422638,-0.01078680,-0.00955542,0.00669053,0.91085495,0.09086063,0.40260084,0.00042101
1761621680036,-0.26327157,-0.41345057,-0.53892644,-0.08920989,-0.02353291,0.03060619,0.91097336,0.09031199,0.40245611,0.00060924
1761621680082,0.06532036,0.09898607,0.12604588,-0.02273740,-0.00102527,0.00503058,0.91103484,0.08979358,0.40243273,0.00072394
1761621680092,-0.26173688,-0.38270684,-0.47199718,-0.00305725,0.02801659,-0.01427130,0.91097210,0.08977768,0.40257842,0.00064973
1761621680123,0.08827522,0.13951297,0.18168245,-0.00859990,0.00554337,0.00112442,0.91094756,0.08964610,0.40266323,0.00066693
1761621680136,-0.05776766,-0.05004570,-0.03045063,-0.01334432,0.01229633,0.00028200,0.91092055,0.08955870,0.40274377,0.00066878
1761621680159,0.03513325,0.03894254,0.03659852,0.00588966,0.00586805,0.00253576,0.91088387,0.08962672,0.40281155,0.00069807
1761621680193,0.00980208,0.01165941,0.01204511,0.01519899,0.00598448,-0.00694748,0.91081370,0.08988434,0.40291299,0.00058031
1761621680225,0.03055832,0.03020211,0.02399921,0.01324589,0.00190960,-0.01784509,0.91078002,0.09009230,0.40294297,0.00030014
1761621680257,-0.01270792,-0.01870304,-0.02309302,-0.00413016,0.00080730,0.00662540,0.91078080,0.09002622,0.40295588,0.00040615
1761621680289,-0.01537645,-0.01155642,-0.00438071,-0.00131362,-0.00296724,0.00534453,0.91080427,0.09000481,0.40290752,0.00049326
1761621680302,0.01964933,-0.00923064,-0.04571029,0.00074548,-0.00768617,-0.00282419,0.91082574,0.09000962,0.40285794,0.00047504
1761621680326,-0.00611230,0.00907288,0.02766047,0.00172564,0.01108001,0.00589221,0.91076508,0.09003024,0.40299035,0.00054546
1761621680348,-0.04332638,-0.03216758,-0.01180524,-0.03206702,0.00892838,0.01156536,0.91075638,0.08967911,0.40308811,0.00067210
1761621680380,0.01475917,0.00647149,-0.00553083,0.00235073,-0.00012799,0.00085985,0.91075353,0.08971719,0.40308604,0.00068603
1761621680391,-0.05213355,-0.03713582,-0.01130858,-0.00109201,-0.00594943,-0.00252619,0.91076766,0.08971156,0.40305540,0.00067302
1761621680414,0.03352513,0.01987164,-0.00135453,-0.00827564,-0.00286190,-0.00270600,0.91079234,0.08961350,0.40302149,0.00064095
1761621680426,-0.02226834,-0.04302781,-0.06249770,-0.02419476,-0.00967129,0.02439655,0.91083184,0.08946954,0.40296394,0.00078611
1761621680461,0.00407358,0.01205456,0.02031363,-0.00123138,-0.00421550,0.00633875,0.91086659,0.08944793,0.40288996,0.00089736
1761621680493,0.01357165,0.01239344,0.00852236,0.01279301,0.00156615,-0.01581246,0.91083589,0.08965070,0.40291478,0.00064673
1761621680526,0.05690647,0.04515723,0.02115402,0.03251980,0.00091899,-0.04073467,0.91077680,0.09018402,0.40292986,-0.00002132
1761621680537,0.21027760,0.10872562,-0.04447685,-0.04086838,-0.03644277,0.03082407,0.91089269,0.08994903,0.40272031,0.00015592
1761621680571,-0.11051368,-0.07583025,-0.01615166,0.00753931,-0.00938010,-0.00404942,0.91095052,0.09007720,0.40256085,0.00008708
1761621680582,0.19661253,0.12506819,0.00729854,0.04332899,-0.00433337,-0.02133232,0.91093830,0.09030034,0.40253853,-0.00002278
1761621680605,-0.08384957,-0.03839310,0.02888031,-0.01284650,0.01422380,0.00851927,0.91087862,0.09014747,0.40270779,0.00007860
1761621680639,-0.02520871,-0.01816872,-0.00569195,-0.00331285,0.00758350,0.00702281,0.91082823,0.09009231,0.40283406,0.00019553
1761621680670,-0.01768458,-0.00524095,0.01209237,-0.00272695,0.01673792,0.00171271,0.91071512,0.09004909,0.40309936,0.00022267
1761621680693,-0.10924435,-0.08647279,-0.04067797,-0.06738672,0.02283261,0.01896373,0.91067648,0.08930109,0.40335280,0.00043317
1761621680716,0.08935201,0.04118744,-0.02947059,-0.00963359,-0.00117563,-0.03852659,0.91069365,0.08918886,0.40333910,-0.00001567
1761621680749,0.03804129,0.02458427,0.00226989,-0.00566708,-0.00388021,-0.00694262,0.91073160,0.08909422,0.40327430,-0.00013161
1761621680785,0.02833878,0.01369310,-0.00811498,0.00558603,-0.01890206,-0.01405921,0.91087227,0.08919477,0.40293406,-0.00038467
1761621680817,0.01249113,0.00759622,-0.00023849,0.00518799,-0.02063779,-0.00510748,0.91100837,0.08927674,0.40260799,-0.00046537
1761621680827,0.24667201,0.12025702,-0.06767996,0.02600117,-0.00349722,-0.00968639,0.91100317,0.08941065,0.40258998,-0.00051526
1761621680872,-0.08621713,-0.03367412,0.04150251,-0.00870989,0.00941950,-0.00076880,0.91092836,0.08921380,0.40280286,-0.00053263
1761621680883,-0.20253430,-0.20588042,-0.17178217,-0.09723790,0.04568774,0.02339604,0.91087110,0.08869358,0.40304729,-0.00040746
1761621680926,0.02427336,0.03134209,0.03480777,-0.01109224,0.00651386,0.01159503,0.91083212,0.08845343,0.40318831,-0.00015643
1761621680938,-0.34498644,-0.28701183,-0.15624511,-0.04378626,0.00010762,0.02442501,0.91085753,0.08818853,0.40318896,-0.00000866
1761621680970,0.13072281,0.10479732,0.05096954,-0.00941672,-0.01133082,0.00449261,0.91095115,0.08803974,0.40300994,0.00006232
1761621680984,0.01896899,-0.04119291,-0.11194795,-0.01370390,-0.05542177,-0.00015139,0.91113453,0.08794245,0.40261644,0.00006125
1761621681004,0.04553548,0.04790492,0.04163638,0.00453096,-0.01980979,-0.00578888,0.91121725,0.08798753,0.40241933,0.00000365
1761621681037,0.00744659,0.01227313,0.01628429,-0.00023082,-0.01115416,-0.00209206,0.91129838,0.08798374,0.40223641,-0.00003066
1761621681049,0.18008724,0.02846496,-0.17505170,-0.00210809,-0.04336053,-0.00951141,0.91141148,0.08797141,0.40198275,-0.00008630
1761621681096,-0.04740529,-0.00623833,0.04878418,-0.00485930,-0.00504176,0.00509039,0.91147542,0.08785600,0.40186300,0.00003460
1761621681127,0.02242733,-0.00444775,-0.03861683,-0.00963288,-0.01334998,-0.01003959,0.91157998,0.08770814,0.40165808,-0.00011951
1761621681168,-0.00228164,0.01210129,0.02849472,0.00776135,0.00435883,-0.01901299,0.91152461,0.08786880,0.40174831,-0.00051308
1761621681207,-0.02641031,-0.01090722,0.01140403,-0.00444419,0.00882097,0.02289343,0.91145813,0.08778325,0.40191811,-0.00007238
1761621681218,-0.03384255,0.07511327,0.20228657,0.05314637,-0.02271980,-0.06044742,0.91148639,0.08809150,0.40178634,-0.00042298
1761621681262,0.04779252,0.01968910,-0.02074575,0.02872311,0.00415602,-0.00446191,0.91138659,0.08871192,0.40187611,-0.00051935
1761621681295,-0.04977806,-0.03168438,-0.00194096,-0.01795239,0.01907070,0.01507340,0.91127634,0.08841480,0.40219173,-0.00026989
1761621681329,-0.02964690,-0.02848803,-0.02142425,-0.00855835,0.01684062,0.00947483,0.91116308,0.08826803,0.40248055,-0.00010740
1761621681350,-0.02205778,0.01355820,0.05740728,-0.00107503,0.01905782,-0.03444599,0.91107481,0.08825663,0.40268256,-0.00047252
1761621681384,0.04452347,0.00486134,-0.04779241,-0.00649143,-0.00146384,-0.00672868,0.91109623,0.08814725,0.40265789,-0.00058590
1761621681395,0.12130441,0.03812460,-0.07722617,0.02037180,-0.02880896,-0.01392041,0.91115749,0.08826337,0.40249368,-0.00066525
1761621681439,-0.02464003,-0.00662458,0.01801710,0.00044666,-0.00167066,0.00477040,0.91117288,0.08827322,0.40245684,-0.00056006
1761621681471,-0.00051735,0.00108663,0.00295878,0.00986789,-0.00532117,0.00062251,0.91119511,0.08843061,0.40237197,-0.00055013
1761621681484,0.15655594,0.15948240,0.13275770,0.05327943,0.03125862,-0.06233830,0.91107230,0.08877427,0.40257359,-0.00095221
1761621681517,-0.05335819,-0.04713208,-0.02996437,-0.00243823,0.01164569,0.00201231,0.91099279,0.08873477,0.40276225,-0.00091961
1761621681562,-0.01475552,-0.01235444,-0.00686962,-0.00634672,0.01121377,0.00233125,0.91089385,0.08859006,0.40301792,-0.00086646
1761621681572,-0.15466164,0.07689918,0.36467618,0.04279968,0.03578971,-0.00733496,0.91079378,0.08880406,0.40319687,-0.00090314
1761621681605,0.04481428,-0.01794258,-0.09631600,0.00442370,0.00278275,0.00494323,0.91076608,0.08887793,0.40324334,-0.00082059
1761621681629,-0.01603803,-0.00865427,0.00235560,-0.00441921,0.00480922,0.01258253,0.91074641,0.08882645,0.40329937,-0.00067400
1761621681651,-0.01788583,-0.02092958,-0.02061864,-0.00788411,0.00469404,0.01246706,0.91073196,0.08873894,0.40335148,-0.00053561
1761621681673,0.00002536,0.00380314,0.00790541,0.00698372,0.00622901,0.00564672,0.91069519,0.08881366,0.40341813,-0.00047519
1761621681685,-0.01112307,-0.00196367,0.01005501,-0.01127468,0.01179813,0.00229857,0.91066898,0.08874207,0.40349304,-0.00046060
1761621681720,0.01608589,0.00032103,-0.02018643,-0.01399108,0.00204627,0.01121736,0.91067672,0.08850632,0.40352752,-0.00027159
1761621681752,-0.04760761,-0.03393661,-0.00949771,-0.01116593,0.00566631,0.02197860,0.91065336,0.08832320,0.40362045,0.00008886
1761621681768,-0.01189763,0.00968140,0.03601781,0.01021904,0.00294554,-0.01371094,0.91063441,0.08840751,0.40364475,-0.00002425
1761621681813,0.06059009,0.03481121,-0.00565647,0.00806436,-0.00586445,-0.01669762,0.91067507,0.08858855,0.40351309,-0.00039911
1761621681853,0.01955707,-0.00147919,-0.02881963,-0.01262427,-0.01000017,0.00340151,0.91078794,0.08833670,0.40331359,-0.00033125
1761621681885,-0.02286923,-0.00665332,0.01589784,0.01102676,-0.01556396,-0.00269811,0.91088190,0.08851478,0.40306223,-0.00037483
1761621681909,0.08192185,0.06209701,0.02426521,0.05394475,-0.00628115,-0.04224101,0.91085227,0.08915133,0.40298812,-0.00087327
1761621681929,0.06187045,0.08660269,0.10283099,0.03054174,0.00085087,-0.01967541,0.91081767,0.08946285,0.40299679,-0.00107396
1761621681952,-0.08899928,-0.08463955,-0.06269923,-0.00742534,-0.00484370,0.00364294,0.91085017,0.08937895,0.40294206,-0.00103280
1761621681974,-0.01535881,-0.00927228,0.00064162,0.03044939,0.00161661,-0.01021768,0.91080849,0.08971998,0.40296017,-0.00114723
1761621681995,-0.01341301,-0.01117800,-0.00633026,0.00333190,-0.00069213,-0.01021120,0.91080813,0.08975446,0.40295300,-0.00125292
1761621682007,0.01107748,0.01401325,0.01541226,-0.00628193,0.01305227,0.00060671,0.91077591,0.08971520,0.40303458,-0.00124913
1761621682029,-0.03356497,-0.02989578,-0.01967337,-0.00275347,0.00551130,-0.00490446,0.91075264,0.08968574,0.40309355,-0.00130161
1761621682041,0.02621194,0.02236920,0.01361201,0.00375130,0.01183017,-0.01559983,0.91071886,0.08970825,0.40316453,-0.00139520
1761621682063,-0.01072175,-0.01290935,-0.01369147,0.00827094,-0.00439894,-0.00848816,0.91073117,0.08979923,0.40311614,-0.00148857
1761621682095,0.00851603,0.00787039,0.00575146,0.01141164,0.00247254,-0.00840748,0.91069484,0.08998467,0.40315632,-0.00162520
1761621682119,-0.01260514,0.02375992,0.06705060,0.00852517,0.02063135,0.02107724,0.91057849,0.09008441,0.40339771,-0.00137859
1761621682141,-0.07736477,-0.06595972,-0.03895768,-0.00432119,0.01608759,0.01706546,0.91050571,0.09003731,0.40357306,-0.00119258
1761621682164,-0.00791511,-0.01006449,-0.01126909,-0.00860237,0.01045659,0.01198079,0.91046197,0.08993752,0.40369436,-0.00105360
1761621682198,0.01577113,0.00242613,-0.01545474,-0.00216896,0.00388287,0.00103496,0.91043628,0.08990054,0.40376056,-0.00103596
1761621682209,-0.13273085,-0.05957647,0.04727141,-0.01621607,0.02117832,-0.02014508,0.91039446,0.08981379,0.40387387,-0.00114373
1761621682231,0.09508370,0.03814395,-0.04346897,-0.00003483,-0.00394197,-0.00911212,0.91041421,0.08981339,0.40382913,-0.00124715
1761621682275,0.00639322,0.00488806,0.00202080,0.00398655,-0.00230048,-0.00270160,0.91042783,0.08990050,0.40377886,-0.00130618
1761621682319,0.00671171,-0.00009197,-0.00899162,-0.00846632,-0.01067555,0.00022937,0.91055200,0.08971170,0.40354080,-0.00130107
1761621682352,0.03193721,0.01214352,-0.01605206,0.02141282,-0.02010943,-0.02429160,0.91066243,0.09006180,0.40321201,-0.00169824
1761621682386,0.01070171,0.02135627,0.03172035,0.01276026,0.00385601,0.00492356,0.91061252,0.09027681,0.40327698,-0.00161527
1761621682408,-0.08358712,-0.01391046,0.07985313,0.02689218,0.02455351,0.00890452,0.91046027,0.09057934,0.40355321,-0.00151510
1761621682463,0.00311770,-0.00687097,-0.01874254,0.01018967,0.00251907,-0.00561438,0.91040179,0.09085752,0.40362198,-0.00166837
1761621682486,0.02453448,0.05862709,0.09350199,0.02712914,0.01216368,0.00201070,0.91030943,0.09116679,0.40376064,-0.00164545
1761621682508,-0.05175476,-0.08510770,-0.11429548,-0.05250762,-0.00238066,0.00423012,0.91037847,0.09059184,0.40373458,-0.00159913
1761621682578,0.00265620,-0.00385422,-0.01178742,-0.00342729,-0.00116488,0.00244612,0.91040858,0.09047205,0.40369386,-0.00151364
1761621682609,0.03095439,-0.01035664,-0.06281400,0.00139413,-0.04493401,-0.02154837,0.91071827,0.09049394,0.40298840,-0.00185195
1761621682620,0.60636367,0.30549769,-0.14053668,0.07168344,-0.05985806,-0.06773817,0.91082092,0.09087745,0.40266816,-0.00221435
1761621682687,-0.09274070,-0.03305309,0.05082446,-0.00156466,0.00214602,-0.00257455,0.91079386,0.09082448,0.40274080,-0.00230150
1761621682707,0.15556720,0.08547776,-0.02021742,0.00235644,0.00639124,-0.06988872,0.91076155,0.09084781,0.40280407,-0.00299339
1761621682743,-0.06621445,-0.03449856,0.01279872,0.00566910,0.00390559,-0.01434495,0.91071985,0.09094872,0.40287359,-0.00324873
1761621682764,0.01445794,0.02586687,0.03654511,0.04421024,-0.00912002,-0.01045703,0.91071520,0.09142619,0.40277510,-0.00336167
1761621682819,-0.01916764,-0.00941768,0.00488506,0.00868091,0.00149240,0.00231983,0.91067328,0.09166492,0.40281614,-0.00329787
1761621682861,-0.03020138,-0.01987750,-0.00322123,-0.02238870,0.02094248,0.00717021,0.91052812,0.09120035,0.40325070,-0.00314909
1761621682902,-0.01849426,-0.01216998,-0.00204214,-0.00593702,0.03299133,-0.01567466,0.91024002,0.09107894,0.40392537,-0.00346964
1761621682943,0.01972288,0.01496882,0.00645941,0.01521105,0.00201016,-0.02762091,0.91018814,0.09139077,0.40396658,-0.00403587
1761621682975,0.06562175,0.03225268,-0.01630981,-0.00137702,-0.00484403,-0.01460701,0.91022423,0.09136839,0.40388786,-0.00427323
1761621683010,-0.03264754,-0.03070384,-0.02343072,-0.01649357,0.01080467,-0.00334033,0.91016975,0.09108388,0.40407424,-0.00433085
1761621683043,-0.01478384,0.00035970,0.02004415,0.02012104,0.02801294,-0.01865187,0.90992523,0.09142191,0.40454486,-0.00464420
1761621683078,-0.00032178,0.02353877,0.05114431,0.01828090,0.03379824,-0.00620325,0.90963096,0.09174000,0.40513295,-0.00475214
1761621683110,-0.02778687,-0.00678420,0.02178556,0.00059243,0.02114039,0.01195617,0.90948073,0.09174945,0.40547014,-0.00456144
1761621683144,-0.01099203,-0.01248575,-0.01232168,0.01086662,0.01200521,0.01022609,0.90937320,0.09193201,0.40567182,-0.00438964
1761621683178,-0.00872277,-0.01895059,-0.02947435,-0.00594011,0.00462987,0.00605187,0.90934885,0.09183132,0.40575030,-0.00428706
1761621683237,0.02561584,0.00953765,-0.01302630,0.01346141,-0.00642494,-0.01369292,0.90939164,0.09223247,0.40555884,-0.00469511
1761621683276,0.00717472,-0.02855594,-0.07109797,-0.06706346,-0.01945717,0.01308981,0.90969061,0.09093815,0.40518331,-0.00444248
1761621683312,-0.02836346,-0.00812547,0.01974380,0.01373143,-0.00408864,0.00472589,0.90969901,0.09118394,0.40511013,-0.00435788
1761621683354,-0.01420417,0.00527343,0.03000567,-0.03357348,0.00412125,0.05210491,0.90973561,0.09047554,0.40519709,-0.00325847
1761621683398,-0.06017538,-0.04244832,-0.01219082,-0.02780124,0.00264364,0.03819866,0.90977336,0.08985696,0.40525591,-0.00240855
1761621683434,-0.02071655,-0.03819921,-0.05402232,-0.08018024,-0.01756446,0.02201597,0.91005098,0.08844178,0.40494589,-0.00201997
1761621683466,0.04333442,-0.00149551,-0.05904729,-0.04748043,-0.01341469,0.01203950,0.91022301,0.08767022,0.40472791,-0.00182433
1761621683500,0.05231675,0.05277286,0.04463324,0.00445479,-0.01220665,-0.01658566,0.91030586,0.08774462,0.40452405,-0.00210131
1761621683520,0.03920747,0.02214436,-0.00396375,-0.01899454,-0.00124326,0.02128092,0.91033087,0.08754897,0.40451125,-0.00188211
1761621683556,0.00372603,0.03328476,0.06578691,-0.01004918,0.00312689,0.00721864,0.91032357,0.08737010,0.40456691,-0.00175362
1761621683577,-0.05678219,-0.04193077,-0.01419458,-0.05708783,0.01836543,0.03290992,0.91029498,0.08675355,0.40476525,-0.00139819
1761621683600,-0.04854614,-0.03466648,-0.00961746,-0.04447627,0.02884682,0.01279956,0.91019752,0.08624874,0.40509267,-0.00125292
1761621683612,-0.25489351,-0.20683177,-0.10198240,-0.03234062,0.03830196,-0.00166666,0.91011426,0.08605632,0.40532056,-0.00126284
1761621683656,0.11238736,0.09454009,0.05235362,-0.00787782,0.00468481,0.00029551,0.91008453,0.08588182,0.40542433,-0.00125629
1761621683668,-0.60684963,-0.47718710,-0.20923079,-0.04325023,0.03485741,0.02402686,0.91001940,0.08563530,0.40562302,-0.00111934
1761621683712,0.15830815,0.12414329,0.05403884,-0.00699373,-0.00437042,0.00412209,0.91007708,0.08548074,0.40552643,-0.00102824
1761621683734,-0.02116611,-0.05035169,-0.07791112,-0.02297219,-0.01825583,-0.00548441,0.91019017,0.08522804,0.40532562,-0.00108857
1761621683756,0.07023999,0.06711010,0.04867487,0.02011532,-0.00281841,-0.02042023,0.91018276,0.08545434,0.40529391,-0.00131830
1761621683791,0.01464535,0.02167785,0.02643243,0.01265581,0.00190830,-0.01662858,0.91014712,0.08567265,0.40532683,-0.00160514
1761621683802,0.17930365,0.14463436,0.06715101,-0.00009104,0.01671402,0.00618480,0.91010665,0.08567216,0.40541792,-0.00157143
1761621683845,-0.06264916,-0.04525701,-0.01254709,-0.00553495,0.00309018,-0.00171171,0.91008810,0.08555260,0.40548467,-0.00160840
1761621683889,0.00181458,0.00360195,0.00512542,0.01736977,0.00287187,-0.00089408,0.91002318,0.08593908,0.40554857,-0.00162830
1761621683929,0.00304506,0.01361998,0.02459786,0.00219209,0.00206357,0.00570536,0.91000117,0.08598226,0.40558922,-0.00151590
1761621683959,-0.01130409,-0.02887820,-0.04579207,-0.02532681,0.00648133,-0.00213204,0.90999363,0.08560363,0.40568612,-0.00154778
1761621683990,-0.05815818,-0.04578563,-0.01994824,-0.01188725,0.00564212,0.02685422,0.90997270,0.08542056,0.40577300,-0.00113422
1761621684012,0.00551474,0.02792151,0.05147392,0.01164956,0.00937620,0.00523701,0.90991341,0.08555162,0.40587849,-0.00107531
1761621684035,0.02884384,0.02958709,0.02430813,0.01102460,0.01971700,0.00438870,0.90979987,0.08567895,0.40610622,-0.00102462
1761621684078,0.01582968,0.00488852,-0.01044600,0.00417141,0.00125268,-0.00097717,0.90977957,0.08576781,0.40613290,-0.00104543
1761621684100,-0.01323941,-0.01184101,-0.00751862,-0.02677634,-0.00583844,0.01725223,0.90983743,0.08546657,0.40606722,-0.00085134
1761621684114,-0.13144546,-0.20117307,-0.24983253,-0.05500834,-0.02263460,-0.01337978,0.90993956,0.08509802,0.40591557,-0.00094099
1761621684146,0.08367020,0.07908327,0.05622220,-0.00136185,-0.00438081,-0.01848528,0.90997281,0.08507602,0.40584482,-0.00123952
1761621684167,0.04402914,0.03753776,0.02087762,0.03056290,0.00913258,-0.01086340,0.90990086,0.08539235,0.40593934,-0.00135196
1761621684178,-0.01408719,0.06509994,0.15514210,0.03834744,0.02286497,0.00212453,0.90981942,0.08561860,0.40607424,-0.00133943
1761621684200,-0.03742505,-0.02149670,0.00419739,0.00335164,0.02264943,0.00018815,0.90970523,0.08565530,0.40632225,-0.00133736
1761621684235,-0.01211869,-0.01452633,-0.01465405,-0.00081778,0.01394084,0.00342454,0.90959827,0.08564107,0.40656482,-0.00127778
1761621684279,-0.01106018,0.00729817,0.02993325,0.00564534,0.03398723,-0.00858170,0.90925092,0.08576555,0.40731424,-0.00146700
1761621684301,-0.01825924,0.02326100,0.07353100,0.01587293,0.03270901,-0.01283824,0.90907130,0.08594174,0.40767731,-0.00160951
1761621684333,0.02287158,-0.02561128,-0.08426469,-0.01241405,0.00145129,0.00022263,0.90907955,0.08574560,0.40770024,-0.00160599
1761621684347,-0.02344804,-0.04536239,-0.06431007,0.00222409,-0.00760784,0.00497124,0.90910170,0.08576094,0.40764775,-0.00157169
1761621684391,0.01255579,0.00506402,-0.00603579,-0.00860989,-0.00195833,0.00264456,0.90913888,0.08557195,0.40760476,-0.00151364
1761621684412,-0.02534996,-0.04988305,-0.07179378,-0.01818905,-0.00757732,-0.01119543,0.90919230,0.08538097,0.40752520,-0.00163119
1761621684459,0.02328855,0.02808569,0.02848585,0.01337341,-0.00124721,-0.01186419,0.90917536,0.08569458,0.40749595,-0.00190941
1761621684479,0.05415840,0.05190249,0.03834583,0.00391068,0.00342676,0.00760786,0.90915572,0.08573525,0.40753159,-0.00183029
1761621684502,-0.03258352,-0.03165325,-0.02390097,0.01080325,-0.01489245,-0.00493597,0.90921922,0.08585678,0.40736405,-0.00188582
1761621684545,0.00788750,0.00913737,0.00883962,0.03084196,-0.01304540,-0.01224396,0.90928168,0.08652297,0.40708227,-0.00215029
1761621684568,0.02607480,0.02912716,0.02741145,-0.01684711,0.00433003,0.00611832,0.90927798,0.08633007,0.40713185,-0.00208023
1761621684601,-0.03734539,-0.04160480,-0.03870818,-0.01346616,0.00388144,-0.01559476,0.90926977,0.08610855,0.40719570,-0.00233677
1761621684623,-0.06716454,-0.06687562,-0.05279848,-0.03924285,0.01424743,0.05660594,0.90924122,0.08566903,0.40735527,-0.00170278
1761621684670,-0.00187486,0.01365475,0.03134652,0.00078910,0.00207820,0.01800820,0.90921848,0.08568742,0.40740369,-0.00128319
1761621684692,-0.17056075,-0.09640951,0.02187647,-0.03143097,0.02236649,0.03340663,0.90914258,0.08534796,0.40764525,-0.00092240
1761621684713,0.04410536,0.03467912,0.01549811,-0.01195107,0.03705827,-0.00368419,0.90897974,0.08522248,0.40803436,-0.00096108
1761621684737,0.07920010,0.04317477,-0.01356456,-0.02747122,0.01512526,0.01611997,0.90892801,0.08488458,0.40822040,-0.00076280
1761621684780,0.01628998,0.00354663,-0.01397919,-0.00356506,0.00274461,0.00887870,0.90890871,0.08480758,0.40827969,-0.00057103
1761621684803,-0.00832377,-0.00715692,-0.00413780,-0.00666245,-0.00284710,-0.02227233,0.90893018,0.08473162,0.40824723,-0.00082493
1761621684847,0.04070246,0.02145729,-0.00874865,0.00473785,-0.01148219,-0.01163529,0.90903314,0.08483538,0.40799577,-0.00107974
1761621684869,0.05006085,0.02424053,-0.01509882,0.01482134,-0.01471592,-0.01195123,0.90909064,0.08499916,0.40783316,-0.00121180
1761621684914,-0.00279562,0.01510606,0.03546677,0.03481996,0.00662965,-0.01975579,0.90894909,0.08578435,0.40798266,-0.00165730
1761621684935,0.05448950,0.09010232,0.11831638,0.02940786,0.04824328,-0.00414864,0.90868982,0.08609607,0.40849404,-0.00170127
1761621684958,-0.14015300,-0.06301041,0.05311100,-0.02017902,0.05637688,0.03391174,0.90842070,0.08586401,0.40914237,-0.00131129
1761621685001,-0.02299982,-0.04807020,-0.07116464,-0.01042480,0.01454040,0.01359030,0.90830248,0.08564197,0.40945208,-0.00102181
1761621685013,-0.26997403,-0.12775288,0.08964448,-0.01873699,0.02217877,0.01880943,0.90825197,0.08552673,0.40958848,-0.00090614
1761621685059,0.08190406,0.03092315,-0.04359700,-0.00480519,0.00479837,0.00373236,0.90821318,0.08541766,0.40969740,-0.00082141
1761621685080,-0.06441424,-0.02842052,0.02573810,0.00166709,0.02290382,-0.00602598,0.90810138,0.08543541,0.40994133,-0.00088559
1761621685092,0.07479858,0.03573781,-0.02339025,-0.01811277,-0.00168632,0.01827028,0.90811664,0.08532402,0.40993096,-0.00077323
1761621685124,0.03618762,0.00770155,-0.03226075,-0.01047219,-0.00555773,-0.00104888,0.90817231,0.08515698,0.40984231,-0.00078996
1761621685148,0.02495750,0.01704152,0.00292060,0.02307191,-0.00534109,-0.01260816,0.90817511,0.08543615,0.40977769,-0.00094251
1761621685170,0.05707504,0.06046306,0.05175268,0.04632841,-0.00083191,-0.01428953,0.90813178,0.08593650,0.40976870,-0.00109684
1761621685182,0.02811666,0.05831446,0.08676676,0.02571336,0.01513094,0.01611106,0.90807816,0.08608564,0.40985646,-0.00100340
1761621685215,-0.02829152,-0.02750581,-0.02066272,0.02789973,0.00704244,-0.01486257,0.90797988,0.08655435,0.40997477,-0.00125309
1761621685236,0.06758002,0.11275180,0.15000312,0.02295129,0.02161645,-0.01140328,0.90785418,0.08679534,0.41020175,-0.00137282
1761621685270,-0.04029916,-0.06459589,-0.08341321,0.01791768,0.00621751,-0.01351495,0.90777800,0.08709546,0.41030589,-0.00159920
1761621685282,0.05196884,0.09006693,0.12266369,-0.02682375,0.02425143,0.00288514,0.90772558,0.08692782,0.41045746,-0.00158117
1761621685325,-0.03460885,-0.05305184,-0.06695094,-0.01109778,-0.00052871,0.00894635,0.90775392,0.08668866,0.41044607,-0.00138837
1761621685392,-0.00056252,-0.00336968,-0.00647098,0.00043278,-0.01640553,0.00309116,0.90799840,0.08670301,0.40990222,-0.00128590
1761621685439,0.02381221,0.00474718,-0.02182797,0.01341601,-0.02431525,0.00851920,0.90822625,0.08701828,0.40933082,-0.00108570
1761621685470,0.00961799,0.02694858,0.04483559,0.01301038,0.00611921,-0.02784048,0.90816333,0.08722059,0.40942597,-0.00151862
1761621685492,0.03141090,0.02791353,0.01763760,0.00442704,0.00522693,-0.01435839,0.90813273,0.08726885,0.40948294,-0.00167512
1761621685536,-0.02266306,-0.01334473,0.00187623,0.02190592,-0.00670821,0.00179044,0.90815317,0.08775735,0.40933335,-0.00163520
1761621685571,-0.00852211,0.00166831,0.01503681,0.01220135,0.00044398,0.00259617,0.90812944,0.08796782,0.40934101,-0.00159041
1761621685583,0.07819735,0.08082886,0.06925137,0.05283111,-0.00762248,-0.04392660,0.90811879,0.08828481,0.40929527,-0.00185397
1761621685625,-0.01788156,-0.02547534,-0.03079241,0.00156239,0.00178404,-0.00143454,0.90809822,0.08831832,0.40933354,-0.00188474
1761621685648,-0.00364663,0.00287519,0.01103197,-0.00523671,0.01092806,0.00058326,0.90804920,0.08826019,0.40945484,-0.00187827
1761621685694,-0.01140698,-0.01546798,-0.01785657,-0.00720788,-0.00111891,-0.00716402,0.90807690,0.08809225,0.40942877,-0.00204519
1761621685704,0.38465439,0.22130078,-0.03947722,0.03528493,-0.01455599,-0.04945140,0.90809109,0.08825809,0.40936036,-0.00227761
1761621685738,-0.08072147,-0.05274231,-0.00525512,0.00049754,-0.00454733,-0.01812261,0.90812477,0.08826667,0.40928192,-0.00259023
1761621685771,0.01179051,0.00981420,0.00522210,0.00579174,-0.00179358,-0.01016791,0.90812835,0.08836311,0.40925205,-0.00275952
1761621685793,-0.04063299,-0.02091724,0.00954536,-0.00945569,0.00495403,0.00207660,0.90811398,0.08825909,0.40930655,-0.00273668
1761621685805,-0.03568756,-0.03872659,-0.03485332,-0.02500632,0.00871622,0.00846112,0.90810571,0.08811906,0.40935536,-0.00268930
1761621685839,-0.00917293,-0.00205914,0.00751411,-0.01120059,0.00649636,0.00167115,0.90807446,0.08792865,0.40946580,-0.00266089
1761621685883,0.00050193,0.00057309,0.00067905,0.00711855,0.00296752,-0.01035954,0.90802874,0.08808668,0.40953168,-0.00289087
1761621685904,-0.00788737,-0.00973796,-0.01033285,-0.01429226,-0.01210022,0.03551112,0.90810238,0.08793518,0.40940341,-0.00251445
1761621685949,0.00096598,0.00630112,0.01217890,0.00282196,0.00114326,0.00212788,0.90808488,0.08799825,0.40942897,-0.00246690
1761621685970,0.06603166,0.07761276,0.07845713,0.03154253,0.01655201,-0.03683184,0.90797480,0.08832472,0.40960028,-0.00284810
1761621686004,-0.03566191,-0.04143841,-0.04130655,-0.01192986,0.01188543,0.01294457,0.90790317,0.08811952,0.40980471,-0.00262546
1761621686037,-0.01815492,-0.00491691,0.01374644,0.01534683,0.00308413,0.00786162,0.90785638,0.08837044,0.40985513,-0.00249692
1761621686071,0.02407329,0.01941649,0.00952495,0.01899107,-0.00983338,-0.00358384,0.90790069,0.08869709,0.40968600,-0.00255856
1761621686104,0.01012449,0.00532514,-0.00190675,0.00847789,-0.00285783,0.00808805,0.90790868,0.08883740,0.40963870,-0.00242471
1761621686127,-0.01248203,-0.01889979,-0.02436918,-0.00827735,-0.01320716,0.01153273,0.90798447,0.08874511,0.40949144,-0.00229612
1761621686140,-0.03472466,-0.05159692,-0.06454414,0.00648293,-0.02938679,0.00663258,0.90806658,0.08878725,0.40930043,-0.00225300
1761621686162,0.04776518,0.01717398,-0.02675705,-0.01764175,-0.02132695,-0.01883894,0.90819577,0.08858525,0.40905623,-0.00246871
1761621686193,-0.01049210,-0.00677139,-0.00067759,-0.01594796,-0.01118006,-0.00811698,0.90829490,0.08834443,0.40888742,-0.00259128
1761621686205,0.07141416,-0.05208595,-0.20777135,-0.01351999,-0.02707001,-0.02053126,0.90838090,0.08825791,0.40871417,-0.00272268
1761621686240,-0.02000147,0.02111864,0.07241451,0.00385907,-0.01307871,-0.00944233,0.90847485,0.08832409,0.40848987,-0.00288461
1761621686261,0.21629754,0.08206598,-0.11178907,0.02688462,-0.05751234,-0.02940612,0.90871994,0.08860907,0.40788024,-0.00319632
1761621686283,-0.12821206,-0.03868869,0.08797809,-0.00554539,-0.03208663,0.01030509,0.90888237,0.08854890,0.40753210,-0.00308451
1761621686316,-0.03153963,-0.01685293,0.00583229,0.00266307,-0.04026496,-0.00886532,0.90917696,0.08859311,0.40686370,-0.00323167
1761621686347,0.07897643,0.02818667,-0.04385890,0.03542432,-0.06706754,-0.02192518,0.90959049,0.08914750,0.40581409,-0.00357480
1761621686360,0.27934585,0.14502954,-0.05616549,0.02920581,-0.08167458,0.00167511,0.90980858,0.08933733,0.40528321,-0.00356391
1761621686383,-0.16712235,-0.05966150,0.09279653,0.02490470,-0.02733116,0.00031253,0.90991844,0.08961876,0.40497437,-0.00356038
1761621686406,-0.04539442,-0.00733702,0.04427066,0.01667243,-0.00185489,0.00593042,0.90990921,0.08981216,0.40495285,-0.00349159
1761621686439,-0.05744241,-0.02740317,0.01674932,-0.00337075,0.00615950,0.00259404,0.90986915,0.08975587,0.40505571,-0.00344827
1761621686472,-0.04190790,-0.01885718,0.01460199,-0.02621252,0.03871536,0.01024233,0.90963429,0.08933516,0.40567709,-0.00328388
1761621686518,-0.02333463,-0.01984436,-0.01177656,-0.02112024,0.01222125,0.01392586,0.90955689,0.08884517,0.40596063,-0.00296080
1761621686528,-0.80820023,-0.60109798,-0.22205729,-0.08688715,-0.00255635,0.09019198,0.90960923,0.08838466,0.40594708,-0.00248278
1761621686573,0.19398262,0.13905694,0.04236522,0.00347711,-0.01102502,0.00963202,0.90971171,0.08846203,0.40570177,-0.00226847
1761621686584,0.03368705,-0.04034883,-0.12979006,-0.00707485,-0.04904177,0.02448132,0.90984171,0.08842135,0.40541978,-0.00212770
1761621686641,0.02510852,0.02836404,0.02737883,0.01176549,-0.00872748,-0.01076634,0.90991828,0.08875314,0.40517367,-0.00243131
1761621686672,0.03113260,0.02243512,0.00699245,0.00616466,0.00364361,-0.00428254,0.90988351,0.08884900,0.40523032,-0.00249790
1761621686695,-0.03960526,-0.00471327,0.04177077,-0.02662351,0.03505345,0.01309790,0.90973542,0.08854549,0.40562993,-0.00234859
1761621686717,-0.12474431,-0.09404640,-0.03624221,-0.03375170,0.03000833,0.03178058,0.90962608,0.08817760,0.40595702,-0.00200218
1761621686730,-0.12015058,-0.06233979,0.02523435,0.01551344,0.01578303,-0.01194979,0.90956947,0.08827998,0.40606119,-0.00208105
1761621686774,0.07277867,0.04441826,-0.00101408,-0.00255366,0.00365234,0.00659990,0.90953950,0.08822406,0.40614118,-0.00193651
1761621686806,-0.00759295,-0.00166444,0.00647484,0.00193178,0.00535610,0.01097039,0.90949821,0.08825526,0.40622768,-0.00175934
1761621686841,-0.03468330,-0.01387526,0.01625194,-0.01290650,0.01148983,0.03936560,0.90943133,0.08802939,0.40642875,-0.00107044
1761621686852,-0.57681480,-0.37923043,-0.04385639,-0.03915237,0.04387369,0.02890016,0.90934445,0.08781406,0.40667006,-0.00091149
1761621686897,0.16831544,0.09900342,-0.01178827,-0.01028740,0.00832754,-0.00531470,0.90928269,0.08758207,0.40685784,-0.00103134
1761621686917,-0.02536906,-0.01131574,0.00962200,0.00794568,0.02192315,-0.01612901,0.90917830,0.08766034,0.40707379,-0.00119021
1761621686940,0.06082299,0.05019078,0.02621052,0.01691825,-0.00052719,-0.00108586,0.90916180,0.08785997,0.40706757,-0.00120302
1761621686974,0.00681994,-0.00097713,-0.01115615,0.00850958,-0.00710662,-0.00050501,0.90920117,0.08800208,0.40694888,-0.00121145
1761621686995,0.06950879,0.05894495,0.03364666,0.05089440,-0.00544589,-0.03430623,0.90917369,0.08854920,0.40689034,-0.00158025
1761621687029,-0.00222805,-0.00395334,-0.00533446,0.01879445,-0.00068315,-0.01511822,0.90914777,0.08886213,0.40687897,-0.00183196
1761621687075,-0.00992573,-0.00609083,0.00018122,0.00338099,0.00499435,0.00395026,0.90908842,0.08894057,0.40699484,-0.00174032
1761621687107,-0.03879253,-0.03062623,-0.01392903,-0.00423099,-0.00340126,0.01452112,0.90912040,0.08887160,0.40693940,-0.00150362
1761621687129,-0.06776299,-0.04816126,-0.01296660,-0.04459245,0.00727507,0.05790923,0.90913283,0.08839669,0.40701688,-0.00088689
1761621687151,-0.11525705,-0.09972189,-0.06040621,-0.02556034,0.00860908,0.02312063,0.90911807,0.08811808,0.40711071,-0.00063488
1761621687185,0.07630474,0.05980643,0.02683803,-0.00088975,0.01098696,0.00737499,0.90903499,0.08810278,0.40729969,-0.00050803
1761621687206,-0.01442650,0.00238104,0.02432126,-0.00102528,-0.00615918,0.02008354,0.90906567,0.08809181,0.40723379,-0.00029313
1761621687239,0.03448469,0.01312999,-0.01788095,-0.00786127,-0.00932535,0.00803249,0.90914619,0.08796367,0.40708178,-0.00016220
1761621687251,0.01529281,-0.02640584,-0.07690597,0.08876900,-0.08074116,-0.01671166,0.90930576,0.08847853,0.40661348,-0.00025913
1761621687287,0.03167909,0.03335146,0.02913191,-0.00007178,-0.00449130,0.00244357,0.90934224,0.08847723,0.40653219,-0.00021490
1761621687297,-0.03948420,-0.03368200,-0.01930289,-0.03005857,0.00979449,0.03566275,0.90933505,0.08832844,0.40658068,-0.00003837
1761621687334,-0.00782900,-0.00236987,0.00529857,0.00204438,0.00552503,-0.00586949,0.90928553,0.08836637,0.40668316,-0.00014725
1761621687375,0.00830906,0.00726138,0.00448149,0.01278831,0.01397490,-0.01983289,0.90913129,0.08862916,0.40697035,-0.00055482
1761621687385,0.04786745,0.17144405,0.30338678,-0.05326741,0.03342421,0.05638263,0.90908398,0.08837082,0.40713246,-0.00028136
1761621687429,-0.03650365,-0.05396560,-0.06690216,0.00428700,0.00201720,0.00362423,0.90905449,0.08846663,0.40717754,-0.00020036
1761621687451,0.06083526,0.06429937,0.05668112,0.04203721,0.00508284,-0.02934366,0.90898452,0.08892694,0.40723320,-0.00052167
1761621687513,-0.00162242,-0.00821383,-0.01545807,-0.00015640,0.00307543,-0.00488065,0.90894238,0.08892211,0.40732807,-0.00067224
1761621687541,0.08196354,0.04746470,-0.00759195,0.00155025,-0.02187797,-0.03479998,0.90907984,0.08894428,0.40701522,-0.00116988
1761621687588,-0.02964111,-0.02748254,-0.01933403,0.00121914,-0.01727618,-0.00693575,0.90925544,0.08897245,0.40661614,-0.00133010
1761621687631,-0.00175417,-0.00982981,-0.01868549,-0.00433229,-0.01343727,0.00023904,0.90939369,0.08887930,0.40632724,-0.00132496
1761621687648,-0.03941577,-0.01695748,0.01628672,-0.00723120,0.01487466,0.03505552,0.90934358,0.08881784,0.40645367,-0.00102698
1761621687707,-0.02322554,-0.00460566,0.02101640,-0.00715384,0.00579176,0.01352245,0.90928805,0.08860644,0.40662482,-0.00062740
1761621687730,-0.07300213,-0.03652395,0.01885425,0.00227490,0.00035875,0.02596713,0.90928387,0.08863226,0.40662889,-0.00033267
1761621687752,0.03294516,0.01432171,-0.01306463,-0.00128236,-0.00310344,0.00142649,0.90930059,0.08861809,0.40659460,-0.00031691
1761621687797,0.03756153,0.01981254,-0.00757592,0.00019742,-0.00838774,-0.00709493,0.90938464,0.08862254,0.40640546,-0.00047690
1761621687810,0.24160406,0.09696697,-0.11349525,0.03642861,-0.08744397,-0.04386621,0.90962931,0.08887390,0.40580209,-0.00077957
1761621687854,-0.04675107,-0.01701720,0.02562658,0.00875656,-0.01514062,-0.00778511,0.90975825,0.08906567,0.40547051,-0.00095007
1761621687895,0.01990417,0.01105511,-0.00264003,0.00701043,-0.01003469,-0.00691861,0.90983604,0.08921008,0.40526380,-0.00109259
1761621687907,0.38561336,0.22305485,-0.03333242,0.02358856,-0.03737719,0.00774466,0.90991705,0.08934336,0.40505262,-0.00104883
1761621687952,-0.13886761,-0.07840831,0.01626370,-0.00169267,-0.00579882,0.00965496,0.90997964,0.08930494,0.40492098,-0.00082967
1761621687974,-0.01551336,-0.00901112,0.00128994,-0.01587925,0.01162717,0.01493406,0.90993979,0.08912947,0.40504946,-0.00066464
1761621687997,-0.02898224,-0.01376838,0.00886469,-0.00336550,0.00961930,-0.00175700,0.90989452,0.08909093,0.40515960,-0.00068476
1761621688045,0.00968834,0.00163042,-0.00931327,-0.03530887,-0.00496804,0.00048461,0.91002990,0.08824529,0.40504062,-0.00067316
1761621688077,-0.05589872,-0.08386773,-0.10478581,-0.03244593,-0.01333678,0.02347062,0.91017614,0.08772291,0.40482590,-0.00029528
1761621688109,0.05724724,0.06813190,0.06976447,0.00960696,-0.01807506,-0.00583399,0.91028772,0.08787374,0.40454212,-0.00038687
1761621688142,0.01622496,0.01465659,0.00982262,-0.01630428,-0.01240688,0.01067800,0.91040642,0.08760064,0.40433430,-0.00020802
1761621688154,-0.02042950,-0.01344090,-0.00202247,0.08311893,0.01728282,-0.01047695,0.91030986,0.08811182,0.40444059,-0.00027245
1761621688187,0.04146906,0.07395370,0.10233029,0.04887933,0.01118318,-0.01911020,0.91015025,0.08891344,0.40462400,-0.00058586
1761621688214,-0.01191022,-0.00663364,0.00172588,-0.01153022,0.01685253,-0.00597590,0.91006676,0.08876240,0.40484477,-0.00066414
1761621688253,-0.02146295,-0.03162516,-0.03880779,-0.00312837,0.00553320,-0.00345243,0.91002357,0.08869983,0.40495543,-0.00073319
1761621688298,0.01325859,0.02045345,0.02605399,0.03278410,0.01382870,-0.02690491,0.90981356,0.08943255,0.40526450,-0.00133451
1761621688311,0.41905765,0.46756653,0.44550933,0.06455135,0.00612940,-0.03831593,0.90975545,0.08984245,0.40530342,-0.00157782
1761621688332,-0.18095062,-0.23881802,-0.27059945,0.03465964,-0.02581877,-0.00998093,0.90983918,0.09020292,0.40503491,-0.00168162
1761621688366,-0.02039439,-0.02408989,-0.02449180,0.01099392,-0.00996556,-0.00255845,0.90989678,0.09039256,0.40486300,-0.00172576
1761621688398,-0.01230500,-0.01640474,-0.01885050,-0.00857149,-0.00185387,-0.00360790,0.90992332,0.09025627,0.40483353,-0.00178312
1761621688409,-0.00791730,-0.05826523,-0.11409940,-0.04546567,-0.00281139,0.03140452,0.90995616,0.08999939,0.40481764,-0.00160569
1761621688430,-0.10574661,-0.06410414,0.00183843,-0.02852454,0.00959087,0.02139745,0.90994151,0.08970416,0.40491691,-0.00138422
1761621688442,-0.00813483,0.00559843,0.02279378,-0.01361097,0.00459069,0.00249366,0.90993732,0.08962250,0.40494445,-0.00136926
1761621688454,0.02368929,0.01412096,-0.00052090,0.00750505,-0.00452573,-0.01485597,0.90994508,0.08966903,0.40491639,-0.00146137
1761621688487,0.02732962,0.02378122,0.01478277,-0.00264206,-0.00325986,-0.00711494,0.90997260,0.08962623,0.40486358,-0.00157663
1761621688498,0.14047327,0.03321573,-0.11433121,0.02567368,-0.02617686,-0.03629931,0.91002371,0.08977128,0.40471568,-0.00178172
1761621688510,0.02972819,0.04835752,0.06493096,0.01158689,-0.02346142,-0.02157939,0.91007872,0.08984023,0.40457609,-0.00191012
1761621688532,-0.00753770,0.00184680,0.01374292,0.01574982,-0.02177297,-0.01924623,0.91016878,0.09001584,0.40433332,-0.00212471
1761621688555,-0.01358182,-0.00419825,0.00896558,0.01176355,-0.01327493,-0.00695538,0.91022324,0.09015171,0.40417999,-0.00220505
1761621688589,0.01125996,0.01020538,0.00712412,0.01974378,-0.00719066,-0.01688045,0.91024305,0.09048044,0.40406027,-0.00248611
1761621688611,0.13380299,0.07567090,-0.01330452,0.00492169,-0.01809844,-0.02644443,0.91032555,0.09053482,0.40386028,-0.00277832
1761621688654,-0.08750981,-0.05142129,0.00480180,0.00548186,-0.00375082,-0.00326313,0.91034954,0.09065351,0.40377907,-0.00284897
1761621688666,0.25599536,0.19811808,0.08876094,-0.00519957,0.06467970,-0.02986004,0.91018691,0.09062361,0.40415098,-0.00302066
1761621688700,-0.13420811,-0.09956289,-0.03741382,-0.05109980,0.01554389,0.01881495,0.91015663,0.08975491,0.40441523,-0.00270081
1761621688732,-0.03771967,-0.02766356,-0.00974366,-0.01741301,0.01751977,0.02526792,0.91005816,0.08946934,0.40470255,-0.00228641
1761621688781,-0.00666508,-0.00194163,0.00474211,-0.01681811,0.00216097,0.01580129,0.91007563,0.08906402,0.40475463,-0.00190560
1761621688813,-0.05746121,-0.04785225,-0.02646746,-0.03501733,0.00771705,0.03207580,0.91007630,0.08849849,0.40487926,-0.00138758
1761621688843,0.03005817,0.02326469,0.01081781,-0.00908384,0.00836966,-0.00200050,0.91003292,0.08835996,0.40500690,-0.00141808
1761621688877,0.08748036,0.06874053,0.03132347,0.01745342,-0.01139884,-0.01794190,0.91008875,0.08865144,0.40481654,-0.00171771
1761621688899,0.12735306,0.05353608,-0.05337752,0.02073588,-0.04908301,-0.04412846,0.91031133,0.08888575,0.40426190,-0.00221637
1761621688944,-0.02397407,-0.00577154,0.01929691,0.02505715,-0.01402001,-0.01428860,0.91039456,0.08944453,0.40394926,-0.00253500
1761621688966,0.27683504,0.19224293,0.04725198,0.05242296,-0.03870029,-0.03449234,0.91052655,0.09002642,0.40351968,-0.00291787
1761621688978,-0.08333954,-0.03746359,0.03111580,0.04321310,-0.01577939,-0.00538051,0.91054232,0.09027922,0.40342737,-0.00294934
1761621689022,-0.12575611,-0.08459637,-0.01582963,0.00565120,0.00661207,-0.00594518,0.91046526,0.09040326,0.40357251,-0.00307984
1761621689033,0.15727090,0.16165122,0.14074581,0.03471141,0.00760068,-0.02729971,0.91042550,0.09060285,0.40361621,-0.00323681
1761621689066,-0.05852634,-0.05652538,-0.04442156,0.00331993,-0.00864365,-0.00684748,0.91048286,0.09065763,0.40347359,-0.00334980
1761621689077,0.08661696,0.02779127,-0.05373650,-0.01996811,-0.03350504,0.04189763,0.91057709,0.09054681,0.40328764,-0.00311726
1761621689100,-0.07143091,-0.05286623,-0.01979314,0.00996790,-0.03047453,0.01380488,0.91071822,0.09065895,0.40294480,-0.00296196
1761621689133,0.00958736,0.00915483,0.00708370,0.01496743,-0.02413735,-0.00366733,0.91087134,0.09090890,0.40254171,-0.00302320
1761621689155,0.10227198,0.05004293,-0.02589641,0.01475431,-0.02771714,-0.02638086,0.91098827,0.09107046,0.40223820,-0.00331207
1761621689177,-0.02673837,-0.00870552,0.01616209,0.01778857,-0.00899063,-0.01257960,0.91101194,0.09126703,0.40213886,-0.00345108
1761621689201,-0.04289565,-0.01869837,0.01602644,0.00376734,0.00065606,-0.00132831,0.91100415,0.09131073,0.40214647,-0.00346649
1761621689210,-0.00063780,0.00915908,0.01981662,-0.02369253,0.01908639,0.03014797,0.91097444,0.09119226,0.40224190,-0.00331575
1761621689233,-0.09158179,-0.05384263,0.00394933,-0.02914924,0.02118913,0.04380237,0.91090453,0.09086871,0.40247710,-0.00282954
1761621689243,-0.33510072,-0.20405526,-0.00118042,-0.06251951,0.05106292,0.06503314,0.91081729,0.09053110,0.40275284,-0.00247836
1761621689255,-0.03361897,-0.00472988,0.03468841,0.00121063,0.03221581,0.01424192,0.91073201,0.09053831,0.40294452,-0.00239362
1761621689267,0.02753236,0.04185838,0.05352903,0.02543839,0.03749758,0.03025393,0.91061961,0.09068839,0.40316576,-0.00221512
1761621689312,0.07120761,0.03829901,-0.01067269,0.01244537,0.00960072,0.00295715,0.91049644,0.09096779,0.40338129,-0.00214874
1761621689349,-0.00423576,0.03894852,0.08903200,0.03299013,0.01144790,-0.01271256,0.91034292,0.09156986,0.40359022,-0.00238074
1761621689378,0.05480535,0.00763443,-0.05509988,0.02364391,-0.00505617,-0.00726114,0.91034053,0.09192097,0.40351513,-0.00248857
1761621689400,0.02335535,-0.00636259,-0.04395879,-0.00558328,-0.01314226,0.02072346,0.91041107,0.09185984,0.40337123,-0.00226165
1761621689422,-0.05795111,-0.06204630,-0.05762784,-0.00834537,-0.00059147,0.01545314,0.91042373,0.09176720,0.40336466,-0.00209012
1761621689444,-0.00455870,-0.00046081,0.00509406,-0.00743216,0.01165147,0.00181913,0.91037566,0.09168619,0.40349166,-0.00207029
1761621689478,-0.00486771,-0.00444051,-0.00316870,-0.01466319,0.01416050,0.00568882,0.91029421,0.09143692,0.40373239,-0.00197358
1761621689490,-0.36900621,-0.24600068,-0.04574508,-0.10182512,0.04448298,0.08330431,0.91024121,0.09086161,0.40398372,-0.00150291
1761621689522,0.08293295,0.04982182,-0.00113421,-0.01022433,0.00099878,0.01770221,0.91025110,0.09069393,0.40400010,-0.00121259
1761621689546,-0.04181505,-0.03627579,-0.02272513,-0.01904930,-0.01017100,0.02109548,0.91032509,0.09047486,0.40388313,-0.00097000
1761621689579,0.03609940,0.02280680,0.00166476,-0.01046067,-0.01566437,0.00835169,0.91046019,0.09029807,0.40361841,-0.00082885
1761621689637,0.02082687,0.01202309,-0.00160777,-0.01817652,-0.00085170,0.01366087,0.91052397,0.08976732,0.40359354,-0.00042995
1761621689671,-0.09877043,-0.06830396,-0.01572996,-0.02106202,0.01446592,0.03874632,0.91045132,0.08941453,0.40383584,0.00021905
1761621689711,0.04445111,0.04329456,0.03423448,-0.01175046,0.00874783,0.01804357,0.91039632,0.08917835,0.40401167,0.00058172
1761621689723,-0.31758053,-0.17080770,0.05560296,-0.01896592,0.02312665,0.01346093,0.91034792,0.08906929,0.40414465,0.00065912
1761621689767,0.10462090,0.05911346,-0.01202822,-0.00900966,0.01105050,0.00236332,0.91025807,0.08886838,0.40439108,0.00071182
1761621689790,-0.02794853,-0.01055627,0.01451926,-0.02600554,0.02499617,0.00204436,0.91016159,0.08857582,0.40467228,0.00073482
1761621689812,-0.01364835,-0.02343706,-0.03173691,-0.03980214,0.02311907,0.00283195,0.91009161,0.08814197,0.40492428,0.00076569
1761621689845,0.01986745,0.01168860,-0.00132264,-0.01673467,0.01357874,0.00285817,0.91001700,0.08785999,0.40515308,0.00081385
1761621689853,-0.64330000,-0.50437003,-0.21972287,-0.02126727,0.07045321,-0.03984411,0.90990861,0.08778130,0.40541376,0.00066643
1761621689903,0.11231414,0.08954900,0.04159521,-0.00112264,0.00954088,-0.00619281,0.90980531,0.08775329,0.40565180,0.00051192
1761621689924,-0.02382954,0.01711981,0.06815496,0.01818968,0.04799696,-0.04101123,0.90956214,0.08794429,0.40615577,0.00008130
1761621689956,0.04757104,0.02874210,-0.00208610,0.00345483,0.01473455,-0.00657653,0.90944906,0.08800077,0.40639668,-0.00002623
1761621689979,-0.03240219,-0.03436681,-0.02991673,-0.01655975,0.00715677,0.01174557,0.90943116,0.08781530,0.40647684,0.00010532
1761621690001,-0.04697650,-0.04008953,-0.02314184,-0.00711222,0.00793593,0.01538222,0.90939894,0.08773529,0.40656612,0.00027837
1761621690023,0.02407897,0.03130957,0.03502872,0.01853986,0.01079728,0.00012984,0.90932746,0.08793552,0.40668273,0.00027978
1761621690034,-0.05693131,-0.01575601,0.04222953,-0.02222221,0.03467712,0.01358507,0.90925191,0.08780997,0.40687865,0.00035653
1761621690046,-0.02260743,-0.02003934,-0.01288136,0.00170348,0.03609277,0.00543830,0.90915153,0.08782044,0.40710062,0.00038998
1761621690069,0.03450566,0.01131939,-0.02165418,-0.01183392,0.01680338,0.00292950,0.90908065,0.08768909,0.40728714,0.00042250
1761621690090,-0.02461895,-0.02296134,-0.01624709,-0.03997741,0.01431337,0.02629986,0.90905288,0.08725933,0.40744101,0.00070522
1761621690102,-0.44297201,-0.30989049,-0.06819867,-0.08292824,0.03155927,0.08768363,0.90901664,0.08678249,0.40762248,0.00120940
1761621690113,0.09435193,0.06226186,0.00798212,-0.00363901,0.02021283,0.02180712,0.90896765,0.08676211,0.40773567,0.00133152
1761621690124,0.14698250,0.11563149,0.04976918,0.02025260,0.01605687,0.01096843,0.90891455,0.08687958,0.40782880,0.00139514
1761621690146,0.10296127,0.06807121,0.00737255,0.00891156,0.00300112,0.00682742,0.90889113,0.08697404,0.40786061,0.00146751
1761621690156,-0.14805125,-0.03449378,0.12558029,0.02514379,0.01176439,0.00501559,0.90884996,0.08710856,0.40792355,0.00149434
1761621690168,0.10366361,0.05956034,-0.01228303,-0.00244184,0.02001507,0.03407314,0.90879665,0.08709379,0.40804464,0.00170048
1761621690180,-0.03401309,-0.02509987,-0.00725587,-0.03022849,0.02317823,0.03693159,0.90875188,0.08691544,0.40818139,0.00191838
1761621690201,0.01990237,-0.00463850,-0.03676690,-0.02424922,0.01787982,0.03499296,0.90869245,0.08666688,0.40836466,0.00227706
1761621690212,-0.50479280,-0.26378590,0.11901879,-0.04834165,0.06980682,0.07028651,0.90854273,0.08639859,0.40875209,0.00266715
1761621690224,0.20620823,0.08201068,-0.10288814,-0.06192355,0.03754906,0.03592541,0.90847315,0.08601157,0.40898677,0.00289168
1761621690257,0.08889628,0.04764157,-0.01822726,-0.00340444,0.01079505,0.00469163,0.90839779,0.08595522,0.40916543,0.00296933
1761621690269,-0.73253786,-0.38446864,0.17409399,-0.04988304,0.08048301,0.01624789,0.90821124,0.08566091,0.40964028,0.00306519
1761621690291,0.32100066,0.16045989,-0.09261518,-0.03122575,0.01585239,0.01270355,0.90816399,0.08531431,0.40981624,0.00320620
1761621690314,0.06140684,0.02919579,-0.02091492,-0.01827144,0.00599142,0.01249137,0.90815230,0.08510784,0.40988394,0.00334735
1761621690324,-0.26926090,-0.21064029,-0.08221959,-0.01897645,-0.00228548,0.01189488,0.90816654,0.08501011,0.40987217,0.00340861
