UnixTime(ms),Ax,Ay,Az,Gx,Gy,Gz,QuatW,QuatX,QuatY,QuatZ
1761617928845,0.00000000,0.00000000,0.00000000,0.00000000,0.00000000,0.00000000,0.96684003,0.07287656,0.22060975,0.10602219
1761617928857,-4.22870212,-0.80413190,-3.35179811,-0.05151354,0.14281954,0.04469124,0.96664128,0.07257263,0.22145239,0.10628587
1761617928870,2.64790673,0.46861103,2.01349821,-0.00680519,0.03725057,0.03563521,0.96656240,0.07252771,0.22169824,0.10652106
1761617928878,-1.35448610,0.11764552,-1.35338114,0.02593776,0.07643803,0.01924620,0.96648243,0.07262368,0.22198106,0.10659228
1761617928899,0.80713488,0.11686314,0.71672043,0.00848706,0.02330692,0.00429354,0.96641387,0.07271365,0.22222812,0.10663779
1761617928915,-0.78939091,0.15643235,-0.87730242,0.05950198,0.04429724,0.00239721,0.96629276,0.07319561,0.22258693,0.10665720
1761617928927,0.66997032,-0.00740449,0.51918998,0.01777485,0.02599716,0.00917280,0.96624015,0.07330759,0.22275071,0.10671499
1761617928939,0.33363363,0.35306546,-0.09346950,0.01638819,0.01474434,-0.00156725,0.96621444,0.07340183,0.22283549,0.10670598
1761617928952,0.13758496,0.07980800,0.04444567,0.03364063,0.02161800,-0.01308062,0.96617447,0.07362217,0.22297709,0.10662030
1761617928964,-0.00454034,0.08258849,-0.15091888,0.03782637,0.02133832,0.00128019,0.96612635,0.07385102,0.22310618,0.10662805
1761617928981,0.03331921,-0.34869055,0.46957176,0.00979491,0.01896604,-0.01041486,0.96609270,0.07393379,0.22326645,0.10654004
1761617928985,-5.18369117,1.97714124,-9.02000316,0.00818728,0.12150317,-0.06820240,0.96605241,0.07394934,0.22349730,0.10641046
1761617928998,1.47900114,-0.71662438,2.40120004,-0.00160485,0.02752198,-0.02267001,0.96602840,0.07393907,0.22367344,0.10626537
1761617929014,0.09817674,-0.02594459,0.21250720,-0.02336709,0.00470987,-0.01721710,0.96604937,0.07374980,0.22371159,0.10612591
1761617929020,-1.05530988,-0.02294298,-2.73914435,-0.00720874,0.02165397,-0.07623423,0.96606146,0.07372745,0.22377872,0.10588959
1761617929032,0.57680533,0.02538048,0.77649368,-0.00692671,-0.00910626,-0.00101729,0.96607768,0.07368659,0.22372499,0.10588358
1761617929044,-0.00171229,-0.02568428,-0.16395130,0.03062881,0.01370060,-0.01371835,0.96605402,0.07386730,0.22380583,0.10580265
1761617929055,-0.01031548,0.09501588,-0.08173092,0.02635881,0.01555671,0.00127676,0.96602118,0.07401754,0.22389450,0.10580992
1761617929066,-0.22363162,0.04714550,0.17665285,0.03402552,-0.00121078,0.01046403,0.96600171,0.07420808,0.22388772,0.10586852
1761617929078,0.05474506,-0.03476442,0.10506053,0.03250571,0.02542614,-0.01351168,0.96596160,0.07439662,0.22403519,0.10579015
1761617929089,-0.07071760,-0.14360621,-0.13542190,0.01838683,-0.00475278,-0.02506873,0.96597521,0.07449958,0.22400857,0.10564977
1761617929101,0.55508614,0.31988773,0.15571857,-0.02062997,-0.00881291,-0.03805656,0.96602117,0.07437787,0.22395658,0.10542524
1761617929113,0.07430971,-0.04712197,-0.02495479,-0.00519967,-0.00452774,-0.00953791,0.96603599,0.07434693,0.22392964,0.10536848
1761617929125,0.00534372,0.03825786,0.07630020,-0.02320279,-0.00937603,-0.00692441,0.96606450,0.07420655,0.22387291,0.10532659
1761617929136,-0.50886671,-0.42720130,-0.16117819,-0.01503934,-0.01150173,-0.01232980,0.96609367,0.07412158,0.22380793,0.10525693
1761617929147,-0.00051554,-0.03962844,-0.04731173,-0.02880089,-0.01373916,0.00250988,0.96612130,0.07396605,0.22373374,0.10527048
1761617929159,0.01124625,-0.10133931,0.15219764,-0.04951385,-0.02374828,0.01213472,0.96616746,0.07367887,0.22359600,0.10534086
1761617929170,0.04008784,-0.20863398,-0.04473892,-0.03543310,-0.01976157,0.01827468,0.96619806,0.07347336,0.22348138,0.10544686
1761617929181,-0.06280183,-0.08660802,-0.11592964,-0.05449940,-0.01504586,0.01224045,0.96623197,0.07317906,0.22340013,0.10551296
1761617929192,-0.26930425,-0.11421157,-0.11651114,-0.05693218,-0.01425014,0.01698859,0.96626297,0.07287163,0.22332318,0.10560469
1761617929204,-0.62234222,-0.32991122,-0.15462487,-0.06649570,-0.00384230,0.02624830,0.96628093,0.07247598,0.22330032,0.10576087
1761617929215,-0.13522605,0.38059623,-0.10074501,-0.08256468,-0.01506505,0.02444756,0.96631895,0.07202600,0.22321822,0.10589411
1761617929226,0.59629302,-0.12652529,0.20965244,-0.05409706,-0.00885873,0.02808652,0.96633599,0.07171765,0.22316772,0.10605420
1761617929237,0.33638716,0.04023311,0.28201538,-0.06576428,-0.02183826,0.03908753,0.96636604,0.07136581,0.22305089,0.10626332
1761617929248,0.05599460,0.12826444,0.28153967,-0.06294838,-0.01264279,0.02891332,0.96639097,0.07100701,0.22297882,0.10642813
1761617929259,-0.02545443,-0.14401245,-0.33343011,-0.03633157,-0.01585326,0.03276530,0.96640642,0.07079992,0.22288846,0.10661489
1761617929271,-0.04252723,0.15126906,0.29788651,-0.06928189,0.00266933,0.04303661,0.96640470,0.07041194,0.22290341,0.10685589
1761617929282,-0.06319689,0.06937403,0.08600479,-0.04810051,0.00824628,0.02907996,0.96639562,0.07014257,0.22294959,0.10701874
1761617929293,0.20669659,-0.18436386,0.02708438,-0.02742033,0.01056677,0.00235235,0.96639164,0.06998902,0.22300876,0.10703192
1761617929304,0.48349904,-0.10191600,0.09890209,-0.03477766,0.02264329,0.00481740,0.96637314,0.06979079,0.22313783,0.10705937
1761617929316,-0.07228517,0.06017315,0.04951269,-0.01861567,0.00723762,-0.00188011,0.96637246,0.06968561,0.22317872,0.10704875
1761617929327,-0.25229639,0.22209124,-0.04413011,-0.00090487,0.02600224,0.02061302,0.96632763,0.06968068,0.22332043,0.10716109
1761617929338,-0.48964838,0.23956359,0.12182958,-0.00574085,0.02127700,0.01198493,0.96629496,0.06964853,0.22343958,0.10722821
1761617929349,0.08028550,-0.08605612,0.05200038,-0.01240459,0.03757133,0.01715324,0.96624111,0.06957968,0.22364810,0.10732341
1761617929360,0.03381823,-0.02984094,0.15347352,-0.03442303,0.03801421,0.00604451,0.96620296,0.06939208,0.22385528,0.10735635
1761617929371,0.03054349,-0.08642764,0.14359561,-0.03677002,0.00637689,0.00851157,0.96620416,0.06918617,0.22389099,0.10740402
1761617929382,0.15870497,0.03991382,0.10501137,-0.04055712,0.01060146,0.01937709,0.96619457,0.06895905,0.22395036,0.10751253
1761617929394,-0.08468069,0.16596103,0.08256201,-0.02039342,0.00943726,0.00847493,0.96618493,0.06884178,0.22400462,0.10756126
1761617929405,-0.13522951,0.33543943,0.03381809,-0.01437704,0.01377219,0.00667211,0.96616891,0.06876271,0.22408037,0.10759796
1761617929416,0.00087084,0.20731534,0.09183800,0.00370411,0.01085245,0.02082666,0.96613906,0.06878438,0.22414386,0.10771979
1761617929428,-0.01443863,0.04887550,-0.01408355,0.01429930,0.01636071,0.01028759,0.96610537,0.06886517,0.22423630,0.10777792
1761617929438,-0.04010771,0.05980105,0.09898962,0.01971343,0.02353357,0.02160013,0.96605572,0.06897064,0.22436220,0.10789348
1761617929449,-0.02965074,-0.01944479,0.08510051,0.02701237,0.04359382,0.02737104,0.96597407,0.06911650,0.22459761,0.10804128
1761617929460,-0.06794878,0.00140426,0.11899267,0.04707294,0.06173118,0.00540206,0.96587226,0.06937776,0.22494022,0.10807126
1761617929472,-0.03621739,0.04432087,0.11108149,0.05277577,0.07161713,0.00790349,0.96575254,0.06967330,0.22534127,0.10811552
1761617929483,-0.06214432,0.03606854,0.04320623,0.05555896,0.06753710,0.00373400,0.96564039,0.06998166,0.22571610,0.10813625
1761617929494,0.35230375,0.30109963,0.12965878,0.06367451,0.07232472,-0.01102293,0.96552561,0.07034142,0.22612474,0.10807397
1761617929505,0.28777016,0.25950885,0.11513335,0.06554451,0.07840100,0.00327243,0.96539617,0.07070191,0.22655594,0.10809196
1761617929517,-0.07341451,-0.07945085,-0.05944518,0.06611311,0.07200561,0.01025208,0.96526325,0.07108537,0.22697357,0.10815143
1761617929527,-0.57996184,-0.33598647,-0.10209791,0.07556177,0.08850550,0.00422156,0.96511939,0.07148962,0.22744708,0.10817401
1761617929539,-0.22603980,-0.34455427,-0.06484597,0.07025430,0.09016359,0.01435073,0.96495639,0.07189710,0.22797003,0.10825725
1761617929550,-0.13005137,-0.08479435,0.02962642,0.06675364,0.10726443,0.00914081,0.96478218,0.07226758,0.22856535,0.10830798
1761617929561,-0.15009455,-0.01388565,0.03660307,0.07189374,0.12006358,0.02328918,0.96458872,0.07264862,0.22920168,0.10843141
1761617929572,-0.00467917,0.07118245,0.06631620,0.05342787,0.13728785,0.00094989,0.96437700,0.07295583,0.22999109,0.10843687
1761617929583,-0.28817441,-0.04113682,0.02743997,0.06482875,0.14706414,-0.00849009,0.96415998,0.07331563,0.23080729,0.10838975
1761617929595,-0.20262210,-0.06384205,-0.34249956,0.04129195,0.17608280,-0.01150222,0.96390418,0.07355512,0.23182857,0.10832304
1761617929605,-0.41035516,-0.04901813,-0.29883915,0.02357171,0.19779107,0.00228588,0.96363806,0.07368123,0.23288676,0.10833527
1761617929616,-0.21900927,-0.61415992,0.25945783,0.01830016,0.20866839,-0.00411619,0.96335739,0.07378097,0.23402400,0.10831284
1761617929628,0.57598884,0.42450506,0.19079384,-0.00402403,0.19871564,0.01165385,0.96308077,0.07375843,0.23513681,0.10837810
1761617929639,0.04419031,-0.13851047,0.34544465,0.01468006,0.20634154,-0.00886336,0.96279720,0.07384064,0.23629232,0.10832846
1761617929650,-0.05290312,0.07728466,-0.14147356,0.02167191,0.20982369,-0.00688085,0.96249781,0.07396417,0.23748831,0.10828924
1761617929661,-0.13241670,-0.16609503,0.02663423,0.02533994,0.21992513,-0.00922677,0.96218799,0.07410607,0.23871989,0.10823757
1761617929673,0.13493826,-0.01941979,0.02379388,0.01576402,0.22582899,-0.00568822,0.96186728,0.07419514,0.23999583,0.10820543
1761617929684,-0.13130415,-0.33117349,-0.13475890,0.00997626,0.23453136,-0.00146540,0.96154119,0.07425001,0.24128575,0.10819737
1761617929695,0.20352704,0.08829206,-0.15958948,-0.02711880,0.25916521,-0.00448864,0.96118409,0.07409543,0.24276299,0.10817179
1761617929706,0.35490209,0.06373041,-0.44433723,-0.03821353,0.31407382,-0.03103437,0.96077419,0.07388144,0.24452181,0.10799800
1761617929717,-0.11118851,-0.10786236,-0.02043208,-0.04376417,0.32605872,-0.05817173,0.96036304,0.07363636,0.24634773,0.10767223
1761617929729,-0.09430653,0.16665301,0.30005127,-0.04444043,0.31324419,-0.04945960,0.95995785,0.07338527,0.24811756,0.10739279
1761617929740,-0.13411836,-0.10351860,-0.05849570,-0.03558978,0.27377705,-0.04415793,0.95960313,0.07318597,0.24965072,0.10714550
1761617929751,0.14381292,-0.15251259,-0.05586616,-0.03634788,0.25194229,-0.06341734,0.95929569,0.07298605,0.25103640,0.10679671
1761617929763,0.32626393,-0.01999992,-0.10084624,-0.05819781,0.20114061,-0.02896797,0.95902492,0.07263686,0.25224324,0.10662290
1761617929774,-0.11919717,0.05456819,0.04468300,-0.09097653,0.21312172,-0.06108950,0.95879307,0.07214104,0.25340476,0.10628996
1761617929784,0.12773842,0.08881877,-0.25375400,-0.09264637,0.19265647,-0.03351284,0.95857913,0.07165002,0.25442583,0.10611234
1761617929796,-0.96089036,-0.16171733,-1.06637690,-0.07008350,0.16570982,-0.00602934,0.95836534,0.07125755,0.25535381,0.10607858
1761617929807,0.38047227,0.11635404,-0.74790018,-0.04919282,0.14315927,-0.02493405,0.95818886,0.07098453,0.25614834,0.10594020
1761617929818,0.19459903,0.00593751,0.03338144,-0.05038906,0.12667155,-0.01951474,0.95802909,0.07069731,0.25687037,0.10582896
1761617929829,0.92513776,0.02425403,1.39886551,-0.07468818,0.11578363,-0.00732236,0.95789652,0.07029773,0.25748981,0.10578979
1761617929840,0.46217841,-0.05760298,0.26283432,-0.06160885,0.09235211,0.00488945,0.95777854,0.06994964,0.25801160,0.10581741
1761617929851,-0.01563753,0.03570957,0.02240601,-0.05964092,0.07505639,-0.00891869,0.95769432,0.06961267,0.25843567,0.10576702
1761617929863,0.08920426,-0.00962750,-0.03956060,-0.06615467,0.06320713,-0.02433399,0.95764160,0.06924882,0.25878331,0.10563318
1761617929874,0.06419270,0.01694043,0.06054027,-0.06134023,0.06071393,-0.02585444,0.95758948,0.06889918,0.25912938,0.10548581
1761617929885,0.07482592,0.04843344,0.00870301,-0.06327904,0.04304947,-0.02154367,0.95756292,0.06854482,0.25937046,0.10536517
1761617929896,0.39385355,1.05793286,-0.00782662,-0.03681206,0.02694188,-0.02929682,0.95755489,0.06834051,0.25951999,0.10520257
1761617929907,0.25588683,0.46538732,-0.00459754,-0.02567960,0.03688028,-0.00746232,0.95751374,0.06819670,0.25972651,0.10516078
1761617929919,-0.05801555,-0.01648775,0.00952755,-0.00235561,0.01373299,-0.00095347,0.95749423,0.06818339,0.25980411,0.10515540
1761617929930,-0.36990016,-0.90318007,0.08540373,-0.01444238,0.03026844,-0.01484793,0.95746338,0.06810324,0.25997210,0.10507299
1761617929941,-0.08258232,-0.36881761,0.05589819,-0.03873891,0.01610851,0.02371087,0.95743971,0.06788630,0.26006230,0.10520577
1761617929952,-0.01270098,-0.05308885,0.10324056,-0.04118588,0.02039573,0.00049727,0.95742483,0.06765772,0.26017550,0.10520853
1761617929963,0.02080188,-0.07353223,0.04257129,-0.02045186,0.01953203,-0.01401795,0.95741193,0.06754421,0.26028390,0.10513073
1761617929974,0.04542745,0.06276881,0.06123630,-0.03847223,0.01207754,-0.00328256,0.95741073,0.06732877,0.26035154,0.10511235
1761617929986,-0.00431782,0.05107619,0.05868657,-0.03170105,-0.00125378,-0.01157048,0.95743241,0.06714966,0.26034445,0.10504698
1761617929997,-0.82683302,0.29538542,-0.74703968,-0.02287684,0.00051486,0.00175429,0.95743946,0.06702269,0.26034731,0.10505671
1761617930008,-0.07474164,0.15238587,-0.04450635,-0.00240421,-0.00631988,0.01358438,0.95744166,0.06700935,0.26031224,0.10513211
1761617930019,0.03023074,0.06942754,0.05148472,-0.00860363,0.00134792,0.01713168,0.95743244,0.06696117,0.26031978,0.10522804
1761617930030,0.95246740,-0.14706344,0.86717536,-0.01129379,-0.00312766,0.02233915,0.95742786,0.06689792,0.26030227,0.10535314
1761617930041,0.12425554,-0.09455775,0.15395332,-0.02740000,-0.00905937,0.03974282,0.95742785,0.06674448,0.26025154,0.10557570
1761617930053,0.03685250,-0.01468139,0.09327156,-0.04214494,-0.01704421,0.02580832,0.95745403,0.06651058,0.26015694,0.10571894
1761617930064,0.13406062,0.04614875,0.07339366,-0.03629397,-0.00671191,0.02363516,0.95746371,0.06630733,0.26011935,0.10585130
1761617930075,0.03981825,0.10422966,-0.00169414,-0.01382629,-0.00980400,0.01643117,0.95747408,0.06622783,0.26006298,0.10594577
1761617930086,0.01898592,0.11749374,-0.04245079,0.01582152,-0.01384849,0.01547678,0.95747941,0.06631643,0.25998543,0.10603244
1761617930097,0.27067000,0.01374246,0.37990642,0.02371126,-0.01851262,0.00771609,0.95749319,0.06644566,0.25988454,0.10607450
1761617930109,0.16298742,0.04580983,0.11289510,0.02981305,-0.00604428,0.01479329,0.95748149,0.06661410,0.25985039,0.10615808
1761617930120,0.02568715,-0.03558929,0.00272456,0.02069551,-0.00257219,0.01135407,0.95747048,0.06672793,0.25983624,0.10622053
1761617930131,-0.26825850,0.02736789,-0.35809580,0.00125325,-0.00438469,0.00946401,0.95747077,0.06673488,0.25981190,0.10627305
1761617930142,0.02704869,-0.06342481,-0.01919313,-0.00372120,0.00333934,-0.00067630,0.95746754,0.06671386,0.25983077,0.10626923
1761617930153,0.07671523,-0.11418345,0.00260719,-0.01383637,-0.00422962,-0.00271739,0.95748093,0.06663706,0.25980730,0.10625415
1761617930164,0.11975646,-0.02119619,0.00178508,-0.02334691,-0.01484789,0.00086216,0.95751204,0.06650632,0.25972415,0.10625898
1761617930176,0.02652069,0.07385592,-0.11530191,0.00147527,-0.02694420,-0.01289171,0.95756168,0.06651480,0.25956922,0.10618485
1761617930187,0.09022083,0.14318608,-0.09740637,0.04496184,-0.04751158,-0.00356872,0.95761745,0.06676209,0.25930791,0.10616522
1761617930198,-0.84484442,-0.34263952,-0.70496826,0.04498572,-0.02829237,-0.00280524,0.95764424,0.06701176,0.25915088,0.10614965
1761617930209,-0.08103058,-0.10884705,-0.08417505,0.02753042,-0.03287541,-0.00457711,0.95768571,0.06716456,0.25896842,0.10612425
1761617930220,0.00990568,-0.18192596,0.03822292,-0.00270097,-0.04731695,-0.00076388,0.95775886,0.06714943,0.25870345,0.10611997
1761617930231,0.94771575,0.20740934,0.66998206,-0.03717059,-0.04027627,0.00747560,0.95782968,0.06694128,0.25847790,0.10616184
1761617930243,0.07008678,-0.05915799,0.07507600,-0.04353620,-0.05001215,0.00569178,0.95791869,0.06669748,0.25819783,0.10619371
1761617930254,-0.02783375,-0.01367283,-0.04146986,-0.02838304,-0.06155926,-0.00250123,0.95802321,0.06653995,0.25785618,0.10617983
1761617930265,0.09006937,0.07555973,-0.04443003,-0.01398079,-0.04581675,0.00813132,0.95809262,0.06646166,0.25759961,0.10622536
1761617930276,-0.07298152,0.04058872,-0.05240640,-0.01920794,-0.06087797,0.00355046,0.95818860,0.06635505,0.25726173,0.10624507
1761617930287,-0.02975153,0.02636517,0.02031812,-0.01833065,-0.05827143,-0.00866212,0.95828774,0.06625332,0.25693833,0.10619699
1761617930298,0.36695762,0.38291202,-0.05942982,-0.00758272,-0.05145296,-0.00211872,0.95836920,0.06621085,0.25665019,0.10618513
1761617930310,-0.04626865,-0.01859874,-0.01958442,0.00146223,-0.05356569,0.00257379,0.95844801,0.06621912,0.25634754,0.10619967
1761617930321,-0.00049019,0.07811943,0.06248698,-0.01189773,-0.04525535,-0.00528063,0.95852296,0.06615308,0.25609638,0.10617036
1761617930332,-0.29074257,-0.41894020,0.02225317,-0.00131544,-0.04507886,0.01536991,0.95858082,0.06614578,0.25584619,0.10625567
1761617930343,-0.06953317,-0.11338474,0.03936897,-0.01477182,-0.03977001,0.00237477,0.95864617,0.06606085,0.25561751,0.10626932
1761617930354,0.10240733,-0.08286395,0.06483049,-0.02608888,-0.02999627,-0.00146522,0.95870092,0.06591736,0.25545253,0.10626126
1761617930365,0.01502431,0.09063847,0.06896405,-0.04231665,-0.03207291,0.01546190,0.95875445,0.06568461,0.25527613,0.10634630
1761617930377,-0.12106762,0.11893369,-0.00702380,-0.01046353,-0.01815004,-0.01410671,0.95879428,0.06562602,0.25517449,0.10626730
1761617930388,-0.17058408,0.08315380,-0.12164213,0.01474970,-0.01208521,-0.03089431,0.95882579,0.06570862,0.25510681,0.10609430
1761617930399,-0.51534355,0.00457854,-0.96404531,0.00172157,-0.01819087,-0.01123440,0.95885859,0.06571809,0.25500676,0.10603251
1761617930410,0.06071538,0.10185108,0.00379419,0.02277150,-0.01588880,-0.02025879,0.95888653,0.06584788,0.25491620,0.10591703
1761617930421,0.04810912,0.05335415,0.12469671,0.01812700,-0.02509322,-0.03446205,0.95893773,0.06594849,0.25477693,0.10572577
1761617930432,0.50551227,0.21744534,0.87662008,-0.00437516,-0.02509237,-0.04001992,0.95900028,0.06592442,0.25463892,0.10550566
1761617930444,-0.01126029,-0.01321445,-0.03046453,0.00237459,-0.03151779,-0.00758167,0.95905134,0.06593784,0.25446085,0.10546282
1761617930455,-0.03263077,-0.00418818,-0.03080160,0.02315367,-0.03153834,-0.01242568,0.95909691,0.06606750,0.25428423,0.10539324
1761617930466,-0.01852128,0.01045277,-0.00164566,0.01609761,-0.04120132,0.00506554,0.95914826,0.06615684,0.25405557,0.10542135
1761617930477,0.02690887,-0.05716316,0.03394216,0.01668985,-0.02377092,0.00735825,0.95917253,0.06625031,0.25392245,0.10546256
1761617930488,-0.00811051,-0.03254831,0.03024561,-0.00026681,-0.02423361,0.00451058,0.95920606,0.06624880,0.25378553,0.10548804
1761617930504,-0.09788567,-0.12933991,-0.09662337,0.00187783,-0.01150271,0.00320143,0.95922642,0.06626373,0.25369408,0.10551349
1761617930510,2.33021837,-0.01485342,-0.36850623,-0.00530387,-0.00482882,-0.01306434,0.95923459,0.06624967,0.25368129,0.10547887
1761617930521,-1.08176354,-0.11659799,0.18189772,-0.00566021,0.00124836,-0.01329920,0.95924327,0.06621741,0.25368840,0.10540307
1761617930532,-0.41607581,0.10395848,0.28310418,-0.02009603,0.02258662,-0.02529917,0.95923322,0.06610588,0.25381376,0.10526266
1761617930543,-0.11351297,0.00701617,-0.02407929,0.00173287,0.03480785,-0.02193238,0.95919442,0.06611558,0.25400868,0.10513984
1761617930555,-0.02066966,-0.02233274,-0.04989228,0.02103611,0.06885994,-0.00210717,0.95908539,0.06623338,0.25439430,0.10512804
1761617930566,-0.05535667,-0.15110234,-0.00142549,0.01893002,0.05090946,0.01406862,0.95899375,0.06633939,0.25467939,0.10520682
1761617930577,-0.07274033,-0.07847104,0.05542736,-0.01264953,0.04174112,0.01255219,0.95892825,0.06626792,0.25491523,0.10527774
1761617930588,0.03579612,-0.25895616,-0.02582581,-0.01143899,0.03948943,0.01386143,0.95886421,0.06620272,0.25514032,0.10535675
1761617930599,-1.13000364,0.21362436,-1.48850869,-0.03667388,0.03491939,0.02143551,0.95881403,0.06600101,0.25533237,0.10547465
1761617930610,0.01921425,0.13540133,0.03466394,-0.02953286,0.01832590,0.00078077,0.95879773,0.06583711,0.25543408,0.10547898
1761617930622,0.07857339,0.09592117,-0.03040625,0.02207240,0.01760482,0.00887957,0.95875749,0.06596071,0.25553267,0.10552871
1761617930633,1.10523281,-0.16892101,1.35611971,0.01187063,0.01664755,0.00576925,0.95872451,0.06602719,0.25562590,0.10556101
1761617930650,-0.06075219,0.06033485,0.00179170,0.00048352,0.00947122,-0.00730403,0.95870942,0.06603134,0.25570735,0.10549820
1761617930655,0.41209585,-0.47092482,0.26667886,-0.00190262,0.04692453,-0.00029435,0.95867791,0.06602649,0.25582701,0.10549745
1761617930666,-0.11268475,0.11563069,-0.10732893,-0.01325244,0.02140284,0.00406070,0.95864905,0.06595360,0.25594472,0.10551978
1761617930680,-0.00542611,0.00593133,0.04926371,-0.02773498,0.00635532,-0.00827552,0.95865671,0.06576362,0.25598825,0.10546309
1761617930689,0.09811807,-0.21803431,0.15892337,-0.06233361,-0.00419493,-0.03705447,0.95869976,0.06548000,0.25596917,0.10529450
1761617930700,0.31173672,0.13817334,-0.01562402,-0.01539465,-0.01173416,-0.01036820,0.95872823,0.06539764,0.25590639,0.10523903
1761617930710,0.15095662,0.19050007,0.01973759,-0.00984237,-0.02850727,0.00998468,0.95876521,0.06534695,0.25575958,0.10529045
1761617930743,-0.12412478,0.03169050,-0.06208157,-0.00082165,-0.00444105,-0.00038494,0.95878657,0.06533327,0.25568563,0.10528404
1761617930748,8.01877182,1.79696217,1.57817745,0.10977377,-0.17760561,-0.01332680,0.95887536,0.06556929,0.25530378,0.10525539
1761617930759,-2.75495349,-0.62390128,-0.57879398,-0.00591440,-0.04262814,-0.00472908,0.95894283,0.06553676,0.25506933,0.10522938
1761617930775,-0.08978357,-0.07211798,-0.02150181,-0.00925897,-0.02264244,-0.00227658,0.95899874,0.06546176,0.25488592,0.10521094
1761617930782,0.78601065,-0.17107212,0.06204358,-0.00361138,-0.02669600,-0.00612488,0.95902919,0.06544804,0.25478448,0.10518766
1761617930795,-0.53354314,0.05230151,-0.33625553,0.00207015,-0.01571822,-0.01713113,0.95906613,0.06546097,0.25468624,0.10508059
1761617930807,-0.53920746,0.19054413,-0.99525452,-0.00611856,-0.01292081,-0.00084572,0.95909076,0.06542273,0.25460549,0.10507531
1761617930818,0.09455112,0.02884596,-0.00205329,0.02334637,-0.01697246,-0.01386740,0.95911446,0.06554764,0.25451468,0.10500111
1761617930829,0.34352179,0.03807534,0.68386841,0.02129235,-0.00487061,-0.01730847,0.95912415,0.06566687,0.25448741,0.10490419
1761617930841,0.18360729,-0.09446282,0.65747255,0.02439602,-0.02677068,-0.01845048,0.95916771,0.06580959,0.25433080,0.10479625
1761617930852,0.08189076,-0.05717408,-0.01589162,0.00743252,-0.01829367,-0.01134996,0.95919895,0.06585121,0.25422835,0.10473269
1761617930863,-0.02723376,-0.10722854,0.02887870,0.00727367,-0.02823997,-0.02570776,0.95925278,0.06589122,0.25407303,0.10459130
1761617930875,0.06638756,-0.01465794,0.01325657,-0.00121931,-0.02754737,-0.00230746,0.95929703,0.06588414,0.25391326,0.10457792
1761617930886,-0.00230011,-0.03542632,0.00162406,0.01153423,-0.03371832,-0.01176566,0.95935114,0.06595047,0.25371938,0.10451026
1761617930900,-0.30997756,0.25749171,-0.44256527,0.00165361,-0.03960920,0.00014775,0.95942145,0.06596171,0.25345004,0.10451127
1761617930912,-0.00180142,0.12503905,-0.11612316,0.01182952,-0.05317816,0.00339591,0.95950115,0.06603505,0.25312033,0.10453232
1761617930920,0.49830133,0.26277159,-0.36389349,0.04464548,-0.06741810,0.00575974,0.95955603,0.06620917,0.25285740,0.10455479
1761617930931,0.14321232,-0.37529462,0.86190113,0.01364120,-0.06055608,0.01058156,0.95963429,0.06628624,0.25251526,0.10461457
1761617930942,0.03553530,-0.18744597,-0.05447276,0.01048784,-0.04593647,0.00260126,0.95969574,0.06634445,0.25226031,0.10462901
1761617930954,-0.13305592,-0.06047600,0.03515522,-0.01243989,-0.04606264,-0.01003342,0.95977936,0.06627043,0.25198624,0.10456931
1761617930966,0.00769809,-0.13278124,-0.02851530,-0.01057450,-0.05126921,-0.00164883,0.95986409,0.06620805,0.25168375,0.10455958
1761617930976,0.21972281,-0.10647924,0.01220265,-0.02972027,-0.04897823,-0.03682337,0.95995572,0.06606390,0.25144621,0.10438099
1761617930987,-0.10011976,0.03551801,0.04765020,-0.02879154,-0.04993069,-0.01605429,0.96004809,0.06590555,0.25117159,0.10429269
1761617930998,-0.80283431,0.12144229,-0.89936536,-0.00053543,-0.04312460,-0.02378078,0.96012798,0.06590247,0.25092362,0.10415595
1761617931010,-0.16975403,0.16233605,-0.08413821,-0.02245791,-0.03648003,-0.02014706,0.96020353,0.06577446,0.25071569,0.10404111
1761617931021,0.04150677,-0.03554447,0.08347219,0.00850702,-0.03020400,-0.01877113,0.96025673,0.06582295,0.25054352,0.10393412
1761617931033,0.75112171,-0.05538035,0.94847549,-0.00416747,-0.02577618,-0.00549707,0.96030045,0.06579899,0.25039531,0.10390251
1761617931046,-0.09516889,0.04513344,0.03705668,-0.00039697,-0.01284079,-0.02596215,0.96034155,0.06579635,0.25030992,0.10372986
1761617931056,0.08930182,-0.10993086,-0.02645675,0.01213058,-0.03456327,-0.02047566,0.96039296,0.06585639,0.25013883,0.10362851
1761617931068,0.05599224,0.12198758,0.02414540,-0.00481917,-0.01939597,-0.01410626,0.96043437,0.06582748,0.25002245,0.10354387
1761617931077,0.02053669,0.02070036,0.01042340,0.02347367,-0.06129557,-0.04000032,0.96052107,0.06593663,0.24973743,0.10335787
1761617931089,-0.00555884,0.06214103,-0.02306855,0.01969584,-0.04033621,-0.04139500,0.96059779,0.06604791,0.24950953,0.10312399
1761617931135,-0.08167164,0.00948160,-0.01667523,0.00373074,-0.00969162,-0.00821780,0.96067144,0.06613540,0.24928226,0.10293128
1761617931151,0.98512177,0.62256692,0.24453353,0.03836157,-0.13165635,-0.04766077,0.96096555,0.06644421,0.24822243,0.10254761
1761617931167,-0.64323675,-0.66760777,0.00604364,0.01527000,-0.06963081,0.01093794,0.96108754,0.06656255,0.24768279,0.10263238
1761617931179,0.41221151,0.10287719,0.22833006,0.03641840,-0.09698546,-0.02292254,0.96123932,0.06678470,0.24709118,0.10249255
1761617931194,-0.38123494,-0.06414077,-0.17226148,0.03466444,-0.06001448,-0.02129799,0.96135536,0.06704815,0.24663507,0.10233069
1761617931203,-1.15394413,0.40636297,-1.15797886,0.00926792,-0.10495130,-0.00975910,0.96146998,0.06708708,0.24619427,0.10228970
1761617931220,0.02663152,-0.23470444,0.11737655,0.01011202,-0.05266771,-0.00900844,0.96159007,0.06717556,0.24573343,0.10221087
1761617931234,0.11851694,-0.01124451,0.05309466,-0.01104258,-0.07648568,0.00527636,0.96172229,0.06710157,0.24522098,0.10224622
1761617931237,11.11888569,-2.88781044,5.35413796,-0.00304670,-0.34635301,0.03683508,0.96184905,0.06709700,0.24470145,0.10230148
1761617931255,-1.48992745,0.33475548,-0.62228584,0.00276111,-0.05143408,0.00597331,0.96196231,0.06712254,0.24422568,0.10235673
1761617931269,0.13785859,-0.05936261,0.02105618,-0.02377735,-0.06354339,0.02051461,0.96207221,0.06695491,0.24377770,0.10250136
1761617931271,20.34860071,-5.67260686,7.15042936,-0.13529725,-0.39135267,0.02689758,0.96218311,0.06681285,0.24336678,0.10252960
1761617931282,-3.96553351,1.15370805,-1.35644493,-0.00698467,-0.07970427,-0.02053745,0.96230288,0.06677618,0.24294833,0.10242178
1761617931299,-0.15995730,0.11851199,-0.09145468,0.00024765,-0.05394076,-0.00463272,0.96242256,0.06677829,0.24248984,0.10238240
1761617931323,-0.04193076,0.05210314,-0.06632636,-0.00150301,-0.02770072,-0.00826636,0.96252004,0.06675987,0.24215050,0.10228114
1761617931327,15.98655441,3.58069009,2.52553845,-0.08794828,-0.39889884,-0.07278561,0.96272527,0.06660157,0.24143248,0.10215012
1761617931345,-3.16842839,-0.74616185,-0.32157074,-0.00442469,-0.04385464,0.00671942,0.96282050,0.06656175,0.24103779,0.10221060
1761617931360,0.04149825,0.00270233,0.02055727,-0.00676937,-0.04107707,-0.00321882,0.96290696,0.06650894,0.24071739,0.10218549
1761617931364,7.73314164,0.34582020,5.07494163,-0.06637406,-0.24275555,-0.00682389,0.96301576,0.06639943,0.24031684,0.10217423
1761617931411,-0.64224092,-0.02782837,-0.41012655,0.00116979,-0.01002382,-0.00532497,0.96308529,0.06642668,0.24008329,0.10205016
1761617931414,10.57878876,2.96341000,1.04211941,-0.05436310,-0.34085189,-0.05663768,0.96326029,0.06632611,0.23945271,0.10194538
1761617931437,-1.65104310,-0.53138229,-0.12606473,0.00006926,-0.01191427,-0.00104752,0.96329540,0.06632690,0.23931630,0.10193339
1761617931455,-0.07774685,-0.10911969,0.07380543,-0.02190212,-0.00388611,-0.01256886,0.96332866,0.06613526,0.23928229,0.10182341
1761617931477,-0.03605293,0.01135327,-0.06196360,-0.01089372,-0.00227609,-0.00883507,0.96335393,0.06601271,0.23925669,0.10172402
1761617931482,0.11777254,-1.72804210,1.30091653,-0.07849428,0.04082167,-0.02039097,0.96334817,0.06584002,0.23934649,0.10167916
1761617931498,-0.08831090,0.47503240,-0.43401335,-0.00499418,0.00795172,-0.00454288,0.96333858,0.06579857,0.23941249,0.10164145
1761617931512,0.01531454,0.04702004,-0.04540091,-0.01501853,0.00804763,-0.00203823,0.96333322,0.06569269,0.23946923,0.10162708
1761617931518,-0.11276565,-0.70612826,-0.01513787,-0.07820258,0.01715527,0.01072775,0.96333302,0.06547372,0.23951726,0.10165712
1761617931534,0.06234568,0.13143539,0.06594945,-0.03186103,0.00612446,0.00326694,0.96333545,0.06520927,0.23956810,0.10168423
1761617931548,-0.01728140,-0.07683692,0.08744563,-0.04998463,-0.00583034,-0.01149008,0.96337530,0.06487937,0.23952962,0.10160840
1761617931550,0.91055126,-15.54349155,4.19625730,-0.26502057,-0.01944199,-0.07294620,0.96340563,0.06461435,0.23951017,0.10153545
1761617931560,-0.06218843,2.88985707,-0.80756158,-0.04313752,-0.00087108,-0.01092769,0.96342734,0.06439435,0.23950573,0.10147972
1761617931575,0.00481666,0.21742134,-0.00842710,-0.01493295,-0.01222840,-0.00494978,0.96346061,0.06428534,0.23941646,0.10144359
1761617931588,0.05841629,0.10570061,0.03859624,0.00608336,-0.01587924,0.01118363,0.96347655,0.06432640,0.23930928,0.10151908
1761617931595,-0.60408305,0.64088156,0.25075020,-0.00539024,0.01456053,-0.01576968,0.96347072,0.06430673,0.23936243,0.10146152
1761617931612,-0.10383868,0.09237863,-0.12963062,0.00036834,-0.00121276,-0.00497864,0.96347729,0.06430975,0.23935248,0.10142069
1761617931625,-0.01895749,0.10727599,0.06890357,-0.00704723,0.00147130,-0.01698223,0.96348996,0.06426253,0.23936234,0.10130691
1761617931629,0.75959181,0.30358799,1.77196633,0.02426669,0.00276091,-0.06212025,0.96349862,0.06431228,0.23936800,0.10117957
1761617931647,0.16094850,-0.41778630,-0.45481974,0.01346248,0.01107451,-0.02019047,0.96348459,0.06443546,0.23946933,0.10099482
1761617931652,1.10288155,-0.53291820,1.54305475,0.02716521,0.01445775,-0.05905704,0.96348626,0.06449387,0.23950041,0.10086785
1761617931663,-0.25069388,0.16167536,-0.48461012,-0.00674538,0.00610482,-0.01198853,0.96348733,0.06445542,0.23953521,0.10079952
1761617931678,-0.05963195,0.00864570,-0.13275044,0.00892721,0.00043287,-0.00025283,0.96348231,0.06452148,0.23953841,0.10079764
1761617931689,-0.04045315,-0.01397608,-0.05605925,0.02099250,-0.00598609,-0.01369838,0.96349094,0.06464114,0.23950429,0.10071956
1761617931697,0.17119857,0.89723258,-0.76911456,0.04973082,-0.01784595,-0.02720904,0.96350688,0.06484255,0.23943202,0.10060937
1761617931711,-0.02620167,-0.29854551,0.14475917,0.00685034,0.00518607,-0.00589955,0.96349934,0.06488810,0.23946651,0.10057014
1761617931723,0.00112350,-0.03543227,-0.02438400,-0.01955595,-0.01198264,-0.00284708,0.96352688,0.06477077,0.23939461,0.10055305
1761617931732,0.04026547,-0.63151341,0.19364972,-0.03350367,-0.01049633,-0.02837950,0.96356245,0.06461833,0.23934685,0.10042393
1761617931747,-0.10804147,0.11003595,0.05537868,-0.04093125,-0.01610361,-0.02520629,0.96363126,0.06431748,0.23922849,0.10023866
1761617931758,0.10417646,0.00976141,-0.08058825,-0.04146397,-0.01824990,-0.00962285,0.96367977,0.06407492,0.23912173,0.10018237
1761617931765,0.31521687,0.02644496,-0.40162733,-0.03911201,-0.03930950,-0.02767675,0.96373458,0.06393411,0.23898021,0.10008273
1761617931820,-0.08694232,0.02878558,0.08305848,-0.00669529,-0.00774276,-0.00615551,0.96381636,0.06375167,0.23876922,0.09991499
1761617931865,0.10399987,-0.09714833,-0.17738024,-0.05453123,-0.06855325,0.00243423,0.96426881,0.06253289,0.23723706,0.09996940
1761617931900,0.14026265,-0.00879406,0.09229876,-0.05123446,-0.10389683,-0.01761366,0.96480847,0.06162861,0.23540328,0.09965852
1761617931911,1.67589892,0.61670602,-1.37921769,-0.01353196,-0.25614566,-0.07603618,0.96520957,0.06155215,0.23395606,0.09922891
1761617931966,-0.44927035,-0.04228540,0.33349654,-0.01020431,-0.03325784,-0.01380661,0.96548810,0.06127102,0.23303980,0.09884854
1761617931998,0.14742115,-0.01494093,0.03907088,-0.03929217,-0.06757926,-0.05184023,0.96586907,0.06064824,0.23196867,0.09802687
1761617932031,-0.20144083,0.06727146,-0.15115985,-0.00302899,-0.05829916,-0.04544528,0.96618319,0.06059750,0.23099216,0.09726566
1761617932064,-0.04814687,0.03280967,-0.02920092,0.00553721,-0.05612406,-0.02264274,0.96643515,0.06068859,0.23006892,0.09689319
1761617932085,0.43611060,0.00857070,0.36890306,0.00915590,-0.08343084,-0.02600994,0.96666021,0.06078290,0.22920958,0.09662529
1761617932143,-0.10971330,-0.02179683,-0.04949797,0.01717398,-0.02801356,-0.00309347,0.96682883,0.06127751,0.22840279,0.09653620
1761617932175,0.07777245,0.01206198,-0.03210010,0.00394669,-0.06318513,-0.01721458,0.96709790,0.06134243,0.22736340,0.09625302
1761617932211,-0.04338898,-0.05832632,0.02572772,-0.00802321,-0.05856734,-0.02453787,0.96739480,0.06119962,0.22632090,0.09581624
1761617932242,-0.23078243,0.07951196,-0.26901962,-0.00998474,-0.06297453,-0.01555686,0.96765879,0.06104336,0.22533535,0.09557278
1761617932263,0.37918316,-0.23677472,0.14199783,-0.02799852,-0.09529880,-0.04219091,0.96794780,0.06075497,0.22435377,0.09513821
1761617932288,0.05313853,-0.01666773,-0.01903121,-0.01382100,-0.11284973,-0.03893565,0.96832760,0.06058428,0.22296007,0.09465736
1761617932345,-0.00266201,0.07800401,0.10177641,0.00058950,-0.05465994,0.00515117,0.96867016,0.06060111,0.22139953,0.09480442
1761617932377,0.38502550,0.05110540,-0.34698073,0.01020242,-0.22977435,0.01934168,0.96947729,0.06076741,0.21765421,0.09511969
1761617932411,-0.10411440,0.04163976,0.04981734,-0.00445575,-0.19784606,-0.01903146,0.97025121,0.06069278,0.21434029,0.09480091
1761617932446,-0.00633244,0.02025533,-0.12645796,0.00622777,-0.21877669,-0.03331429,0.97114151,0.06080208,0.21050076,0.09421625
1761617932479,0.01450870,-0.03745296,0.02753219,0.03612372,-0.24257795,-0.04936391,0.97203080,0.06139089,0.20654674,0.09341162
1761617932511,0.02601215,0.29380519,0.03254125,0.04209095,-0.26250884,-0.03897887,0.97293911,0.06207066,0.20230722,0.09278211
1761617932541,-0.01730390,0.04958227,-0.22297034,0.11651571,-0.35481798,-0.06517675,0.97402436,0.06384170,0.19691399,0.09179142
1761617932579,-0.08499487,-0.14332454,0.18426766,0.04487488,-0.26873412,-0.00067841,0.97498271,0.06468984,0.19183491,0.09177860
1761617932607,0.02948037,-0.12379707,-0.28160033,0.01680559,-0.37785999,-0.05848743,0.97608118,0.06492763,0.18648819,0.09095100
1761617932629,0.10636162,0.07004062,-1.14974907,0.00856169,-0.50115121,-0.04491395,0.97716272,0.06502224,0.18095047,0.09045470
1761617932652,-0.01269036,-0.41712900,1.18496510,-0.04981876,-0.36764114,-0.03638172,0.97800906,0.06445182,0.17674098,0.09003813
1761617932674,0.14240399,-0.16146886,-0.01303105,-0.10273202,-0.42008277,-0.02227185,0.97892912,0.06332176,0.17212007,0.08979314
1761617932685,1.03663367,-0.52542324,-1.04227971,-0.17097195,-0.60017801,-0.00635985,0.97953284,0.06243271,0.16899914,0.08976007
1761617932698,-0.77530685,0.13278253,0.48117828,-0.13420030,-0.40200891,-0.02392985,0.98006527,0.06153357,0.16630569,0.08959974
1761617932719,-0.38686427,0.16526699,0.48135880,-0.06294018,-0.24095078,-0.01001331,0.98053756,0.06087899,0.16379980,0.08949560
1761617932730,0.75722270,0.35839399,-0.88093936,-0.13368604,-0.46538980,-0.06164531,0.98105149,0.06012366,0.16117034,0.08914731
1761617932741,0.82624315,-0.53225623,-0.06328720,-0.06966706,-0.47611168,-0.02957642,0.98151206,0.05974398,0.15857554,0.08898611
1761617932753,-0.28638670,0.13970585,0.33590061,-0.07381620,-0.45530438,-0.01274919,0.98199108,0.05929370,0.15579818,0.08890834
1761617932764,0.70785279,-0.30717470,-0.05503616,-0.11154469,-0.51037340,-0.01854837,0.98248278,0.05867463,0.15296561,0.08880540
1761617932767,52.40213722,-13.98074601,-38.71435229,-0.53906380,-2.44658613,0.05020480,0.98296834,0.05802775,0.15002970,0.08886565
1761617932779,-10.42940492,3.02944139,7.75824379,-0.12633963,-0.52600158,-0.01810976,0.98350348,0.05726340,0.14684739,0.08875608
1761617932791,0.08345629,0.05102527,0.06374875,-0.11137407,-0.49173182,-0.03280192,0.98401213,0.05657288,0.14379866,0.08855271
1761617932797,5.44407243,-1.22932405,-4.90350816,-0.22294267,-1.02920009,-0.00693002,0.98449045,0.05591520,0.14076252,0.08853227
1761617932815,-2.48547515,0.51779754,1.82647744,-0.05776591,-0.32032381,-0.01383922,0.98493644,0.05539819,0.13789562,0.08840841
1761617932817,124.67387087,-13.12970203,-91.90549901,-0.68684378,-3.91917986,-0.25438525,0.98547891,0.05478003,0.13436836,0.08817946
1761617932828,-18.59780963,1.63234872,14.18463941,-0.08431688,-0.51084120,0.00277174,0.98588947,0.05430786,0.13150765,0.08819498
1761617932837,2.08408871,-0.48054041,0.00474602,-0.18233696,-0.68318051,-0.00887348,0.98634806,0.05347822,0.12839917,0.08815461
1761617932853,-1.62027223,0.35423498,0.47582842,-0.12359916,-0.44613180,-0.00117907,0.98684425,0.05252033,0.12494165,0.08814547
1761617932867,-0.03211258,-0.15417103,-0.14949326,-0.13318597,-0.48365166,-0.05100957,0.98735861,0.05156805,0.12148354,0.08778075
1761617932881,0.43082425,-0.10733743,0.08268574,-0.14428079,-0.45333843,-0.03208578,0.98781280,0.05056530,0.11833284,0.08755775
1761617932883,92.29253329,-24.83662714,-32.10615938,-1.14465730,-2.91514914,-0.16492428,0.98827134,0.04930618,0.11512618,0.08737634
1761617932893,-19.95113763,5.24932688,6.65027987,-0.22961877,-0.56087561,-0.07118426,0.98868198,0.04815808,0.11232180,0.08702042
1761617932905,-1.03884906,0.47329312,0.12917847,-0.18089652,-0.48245242,-0.07995568,0.98909745,0.04708175,0.10945121,0.08654468
1761617932916,-0.11945263,0.54587462,-0.14230648,-0.21070755,-0.48218987,-0.06943741,0.98947172,0.04593339,0.10682327,0.08616625
1761617932926,0.31839948,0.09393612,-0.34612782,-0.17652552,-0.47619639,-0.05683021,0.98980378,0.04501546,0.10434705,0.08587073
1761617932940,0.02518616,-0.25067599,0.56025716,-0.09313630,-0.35368773,-0.03240844,0.99009120,0.04440542,0.10203040,0.08565845
1761617932951,0.13464281,-0.15179313,-0.13251762,-0.08550526,-0.39755317,-0.07700986,0.99038675,0.04390949,0.09972459,0.08521180
1761617932964,-0.21319515,-0.07820601,0.37527150,-0.10204863,-0.32756694,-0.05835364,0.99066056,0.04324617,0.09759540,0.08483250
1761617932978,-0.35411131,-0.12692720,0.02861299,-0.13000408,-0.32653254,-0.03871579,0.99093144,0.04238164,0.09542396,0.08457504
1761617932982,5.23053614,-3.94217054,-2.53081322,-0.44569921,-0.83938730,-0.07888879,0.99119511,0.04126739,0.09332549,0.08437782
1761617933002,-1.64422597,1.04652235,0.85528342,-0.12156390,-0.17491896,-0.00694816,0.99141076,0.04006999,0.09160254,0.08430938
1761617933016,0.30475968,-0.45424125,-0.50335747,-0.13800395,-0.25193395,-0.00650961,0.99161168,0.03911776,0.08986420,0.08426446
1761617933018,83.61777418,-43.15815137,-69.66473818,-1.17475427,-1.78298922,-0.13313284,0.99181785,0.03800175,0.08817036,0.08413798
1761617933027,-17.68724263,8.58291393,14.38133433,-0.12863668,-0.26326219,-0.03178416,0.99195659,0.03742288,0.08698568,0.08399496
1761617933038,-0.33988291,0.83868003,0.45331010,-0.14679918,-0.20468456,-0.05517455,0.99211877,0.03657145,0.08579851,0.08367494
1761617933050,-0.10199928,-0.30824161,0.11483248,-0.14041825,-0.17244416,-0.02634539,0.99224621,0.03576404,0.08480695,0.08352346
1761617933060,0.45793490,0.09607305,-0.33310969,-0.16425669,-0.20377335,-0.00581871,0.99236682,0.03492633,0.08376771,0.08349378
1761617933082,-0.62072114,0.14452991,0.39539027,-0.06193968,-0.09238899,-0.01412403,0.99248889,0.03424499,0.08275143,0.08333842
1761617933111,-0.08352617,0.10559882,0.13586583,-0.06467522,-0.06473984,-0.02210870,0.99262595,0.03330397,0.08180947,0.08301674
1761617933121,4.66850873,-1.53929772,-2.48705216,-0.45825823,-0.37400936,-0.15321835,0.99289054,0.03121890,0.08010772,0.08231959
1761617933130,-3.09014006,1.66990924,1.15458015,-0.13422186,-0.18276355,-0.07113729,0.99301291,0.03055450,0.07920304,0.08196746
1761617933141,-0.01605219,-1.11894768,0.15753870,-0.02215028,-0.10981814,-0.03269190,0.99308007,0.03043156,0.07859355,0.08178602
1761617933153,-0.57547884,1.11833698,0.59686460,-0.07474459,-0.10120796,-0.04802504,0.99316173,0.03000178,0.07801161,0.08150988
1761617933163,0.11578594,-0.10364667,0.00910841,-0.06209929,-0.12252955,-0.03909420,0.99324013,0.02966955,0.07735607,0.08130072
1761617933175,-0.02831070,0.11423748,0.15679406,-0.06728221,-0.11901371,-0.00443430,0.99330560,0.02928941,0.07668365,0.08127567
1761617933185,0.11792886,0.07778715,0.01922181,-0.05980313,-0.13232820,-0.01706083,0.99337751,0.02896647,0.07596907,0.08118354
1761617933197,0.01519018,0.05752344,-0.11873152,-0.05353372,-0.12089717,-0.04568190,0.99345934,0.02866400,0.07528601,0.08092544
1761617933209,0.23237557,-0.12308322,-0.37018600,-0.03308879,-0.10165886,-0.04187589,0.99352972,0.02847043,0.07469130,0.08068047
1761617933220,-0.19006691,0.12450787,0.00509634,-0.02564650,-0.10471236,-0.05819223,0.99360613,0.02832297,0.07408921,0.08034586
1761617933230,-0.12193580,0.10105729,0.16658723,-0.04017732,-0.09267465,-0.05622533,0.99367022,0.02811806,0.07361656,0.08005911
1761617933241,-0.53941214,0.28354040,0.52213860,-0.03652407,-0.10021278,-0.06695042,0.99374548,0.02791901,0.07307040,0.07969423
1761617933253,-0.17662780,-0.02550182,0.04880605,-0.02795256,-0.10104569,-0.07967636,0.99383496,0.02774710,0.07244897,0.07920422
1761617933282,-0.08114186,-0.07208543,0.04258491,-0.00934859,-0.03932252,-0.02186361,0.99390414,0.02761388,0.07188863,0.07889267
1761617933310,0.00513253,0.00954053,-0.01435906,-0.03537315,-0.06487572,-0.03890421,0.99402657,0.02711689,0.07097712,0.07834606
1761617933322,-0.32034508,1.03368017,-0.87780281,-0.13276904,-0.23483809,-0.07925365,0.99418233,0.02633355,0.06959158,0.07787846
1761617933332,0.05447053,-1.26414253,0.95123976,-0.02923557,-0.10887669,-0.03863489,0.99423869,0.02618883,0.06905264,0.07768722
1761617933353,0.03145893,-0.10146720,0.05694019,-0.01789756,-0.03872318,-0.02829934,0.99429575,0.02599823,0.06864024,0.07738583
1761617933364,-0.18078009,-0.20151237,-0.07705896,-0.06168767,-0.07052565,-0.03342751,0.99434375,0.02567128,0.06826645,0.07720867
1761617933375,-0.00237458,-0.19462301,0.10006368,-0.05800163,-0.04814790,-0.01281693,0.99437786,0.02532907,0.06798238,0.07713305
1761617933387,-0.00611777,-0.25944940,-0.00741206,-0.06193375,-0.04552040,-0.00377379,0.99440616,0.02497605,0.06772291,0.07711154
1761617933397,0.37214458,-0.18855989,-0.28111359,-0.08690226,-0.04163363,-0.02203980,0.99444034,0.02453285,0.06751058,0.07699913
1761617933408,0.06398005,-0.02414596,-0.19771361,-0.06307109,-0.05455471,-0.02339440,0.99448052,0.02417334,0.06719962,0.07686579
1761617933421,-0.06085547,0.08702821,0.04703880,-0.03827317,-0.04445217,-0.03045122,0.99451848,0.02394179,0.06693068,0.07668156
1761617933431,-0.39629421,-0.01401621,0.19808343,-0.05389509,-0.06111483,-0.04413464,0.99456463,0.02365884,0.06660983,0.07644985
1761617933433,-8.71813837,-12.79968031,0.94319025,-0.21094312,-0.18047071,-0.10818686,0.99459381,0.02341626,0.06640229,0.07632544
1761617933443,1.71139188,3.09322191,0.21667584,-0.07651878,-0.04304703,-0.01198862,0.99462169,0.02303366,0.06618705,0.07626549
1761617933454,0.05141596,-0.06831864,0.07179638,-0.07465801,-0.03606248,-0.00515757,0.99464489,0.02264917,0.06600133,0.07623893
1761617933464,-0.19256156,0.02636458,0.09642540,-0.10903644,-0.03255019,0.00709983,0.99466563,0.02209309,0.06583533,0.07627514
1761617933475,0.03982038,-0.06810823,0.07459473,-0.08556848,-0.00681004,0.03785464,0.99466231,0.02160107,0.06579617,0.07649280
1761617933509,0.12419264,0.18961910,-0.06831411,-0.02316780,-0.00942861,0.00416204,0.99467561,0.02121648,0.06563965,0.07656189
1761617933511,-43.38298963,-18.78304146,-9.69766702,-0.58614534,-0.21600714,0.04062891,0.99470253,0.02054242,0.06539125,0.07660862
1761617933531,4.78968475,2.16087138,1.06524135,-0.00682942,-0.01009217,-0.01520682,0.99472266,0.02047276,0.06528831,0.07645351
1761617933542,-0.38647670,-0.03994925,0.68511915,-0.07706516,-0.03495132,-0.04703779,0.99476299,0.02005660,0.06509957,0.07619950
1761617933553,-0.07467457,-0.02534155,0.04625882,-0.03558492,-0.02054711,-0.05781623,0.99479862,0.01986089,0.06498656,0.07588151
1761617933564,0.03547752,0.03943434,0.02599150,-0.01585505,0.00569453,-0.03381747,0.99481273,0.01977210,0.06501845,0.07569214
1761617933575,-0.06888049,0.22486767,0.02698306,-0.03800986,-0.00405868,-0.01045807,0.99482270,0.01956304,0.06499613,0.07563462
1761617933586,0.08998321,-0.00251405,-0.04384473,0.02079521,0.00979785,-0.01908108,0.99482493,0.01967950,0.06505099,0.07552776
1761617933599,-0.10533917,-0.07287679,-0.20028066,-0.01297882,-0.00388947,0.00044156,0.99482784,0.01960033,0.06502727,0.07553046
1761617933609,-0.44786760,-0.06723764,-0.33790366,-0.02693252,-0.01077918,-0.01227769,0.99483942,0.01945624,0.06496960,0.07546477
1761617933620,0.10404007,-0.07590377,-0.16068541,0.00505632,-0.04195347,0.00839322,0.99485032,0.01948379,0.06474095,0.07551051
1761617933622,-23.54804890,-1.03141027,11.83975158,0.01853813,-0.24735459,-0.23377345,0.99488707,0.01950419,0.06446886,0.07525336
1761617933632,5.58934179,0.32992062,-1.34598490,0.00901239,-0.03593798,-0.03607505,0.99491120,0.01954880,0.06429097,0.07507479
1761617933643,0.08850796,-0.03168429,-0.11235310,0.00364002,-0.01423057,0.00100848,0.99491525,0.01956791,0.06421626,0.07508009
1761617933654,-0.10301881,-0.00794054,-0.00710509,0.00843377,-0.03172419,0.00908967,0.99492163,0.01961303,0.06404654,0.07512872
1761617933665,-0.07149615,0.03731688,0.20873833,-0.00474750,-0.02933189,-0.01564637,0.99493964,0.01958597,0.06387934,0.07503953
1761617933676,-0.21302933,-0.01217235,0.10607679,0.00563635,-0.04121509,-0.00365466,0.99495493,0.01961669,0.06365472,0.07501961
1761617933687,0.09811407,-0.02959417,-0.10666835,0.00537024,-0.00815934,0.00426281,0.99495547,0.01964703,0.06360862,0.07504370
1761617933699,-0.01179057,0.47135346,-0.34578053,-0.01302082,-0.00503224,0.01955955,0.99494999,0.01956760,0.06357792,0.07516301
1761617933710,-0.32966121,0.17468337,0.06379314,0.00349673,-0.01869726,-0.01052620,0.99495988,0.01958561,0.06348163,0.07510880
1761617933720,-0.00973137,-0.19309212,-0.02906551,0.01942175,-0.00454744,0.00814118,0.99495616,0.01968757,0.06345776,0.07515154
1761617933731,0.21004640,-0.64401426,0.32484998,-0.00499171,-0.00669920,0.00714102,0.99495608,0.01966037,0.06342125,0.07519046
1761617933743,0.06082364,0.05290726,0.05452061,-0.02225280,0.00308927,-0.01316178,0.99496325,0.01953130,0.06343917,0.07511412
1761617933754,-0.36490507,0.74598471,0.19272725,-0.00602110,0.00304224,-0.00928818,0.99496684,0.01949668,0.06345666,0.07506072
1761617933765,0.19811559,-0.35565669,-0.27933345,0.02051760,0.00949771,-0.02020810,0.99496962,0.01960748,0.06350795,0.07495159
1761617933777,0.22795039,-0.38236286,-0.17280572,0.02515649,0.00393134,-0.00806607,0.99496878,0.01975716,0.06353134,0.07490360
1761617933788,-0.08459581,0.18236302,0.37062268,-0.00150207,0.00749233,0.00719188,0.99496328,0.01974882,0.06357292,0.07494351
1761617933823,0.25817292,-0.04581182,-0.39421380,-0.00085986,0.00019274,0.00275190,0.99495969,0.01973356,0.06357634,0.07499236
1761617933833,-4.57580985,-1.57158101,0.80147418,0.02413331,-0.00616338,0.01365667,0.99495428,0.01985060,0.06354645,0.07505860
1761617933844,2.65778314,1.28210853,0.78823967,0.03248125,-0.00921970,-0.00419623,0.99495569,0.02003088,0.06349528,0.07503531
1761617933854,0.36129602,-0.07967563,-0.34577254,-0.00140985,-0.02864017,-0.01229324,0.99496973,0.02002376,0.06335065,0.07497323
1761617933865,0.31261698,-0.01809829,-0.18617722,0.00379337,-0.02612168,-0.01156991,0.99498250,0.02004348,0.06321481,0.07491306
1761617933876,0.13990589,0.10455523,-0.05627804,-0.00366582,-0.02106053,0.00542402,0.99498836,0.02002204,0.06309161,0.07494479
1761617933888,-0.08507436,-0.12887367,-0.04012146,-0.00413195,-0.04606709,0.00023800,0.99500490,0.01999910,0.06283594,0.07494611
1761617933898,-0.33791276,0.48001465,-0.54579455,-0.01653342,-0.03145575,-0.01374654,0.99502333,0.01990817,0.06266293,0.07487051
1761617933910,-0.02092691,-0.04148441,-0.19593583,0.00326226,-0.04047081,0.00856773,0.99503333,0.01992595,0.06244237,0.07491720
1761617933921,0.00976850,0.02196247,0.02118135,-0.01898763,-0.05159847,-0.00972490,0.99505742,0.01982057,0.06215599,0.07486323
1761617933932,0.44590129,-0.44307171,0.65703275,-0.01979280,-0.05392154,-0.02341286,0.99508830,0.01970973,0.06185403,0.07473212
1761617933944,0.12637734,-0.05490206,-0.03017377,-0.01893484,-0.05237608,-0.00694363,0.99511294,0.01959707,0.06154240,0.07469080
1761617933955,-0.07493114,-0.07520021,0.05564521,-0.01719722,-0.05543752,-0.01009730,0.99513778,0.01950248,0.06123749,0.07463527
1761617933966,0.06594852,0.02741700,-0.01879060,-0.02839730,-0.05191543,0.00158621,0.99515806,0.01934346,0.06094676,0.07464415
1761617933977,0.00351322,-0.06583865,0.08466403,-0.03048343,-0.06904606,0.00230601,0.99518308,0.01917885,0.06057391,0.07465660
1761617933988,-0.01050844,-0.02197098,-0.03827116,-0.03192390,-0.05926688,-0.01214980,0.99521150,0.01900167,0.06024498,0.07458917
1761617934000,-0.04280168,-0.12855048,-0.77544770,-0.02540306,-0.05609886,-0.00584989,0.99523735,0.01884925,0.05990839,0.07455407
1761617934010,-0.15468774,-0.13307071,-0.28974333,-0.02416259,-0.05471212,-0.00475095,0.99525906,0.01872119,0.05961842,0.07452889
1761617934021,0.00286100,0.01237873,0.01144872,-0.02663988,-0.06447677,-0.00833080,0.99528617,0.01857600,0.05926702,0.07448349
1761617934032,0.16987649,0.09327756,0.89616334,-0.01275311,-0.04743889,-0.00864998,0.99530599,0.01850777,0.05901322,0.07443721
1761617934044,0.10111084,0.11767945,0.15784159,-0.02918713,-0.04311593,-0.00969465,0.99532926,0.01832973,0.05875021,0.07437807
1761617934055,-0.15366505,-0.04472549,0.25625625,-0.04943335,-0.05353108,-0.00803317,0.99535394,0.01806773,0.05846650,0.07433550
1761617934066,0.14159106,0.16918986,-0.04543108,-0.04159663,-0.03467449,0.01308046,0.99536432,0.01782855,0.05826712,0.07441071
1761617934077,-0.07252684,0.03074219,-0.05261467,-0.01284521,-0.03364710,-0.00725996,0.99537952,0.01775726,0.05808038,0.07437042
1761617934088,-0.11270860,0.25506379,-0.04770483,-0.00122689,-0.03256908,-0.01965149,0.99539798,0.01775058,0.05790288,0.07426332
1761617934099,0.00425715,-0.00153881,-0.33845713,0.00089566,-0.03448432,0.00214942,0.99540802,0.01775550,0.05771321,0.07427514
1761617934111,0.06868318,0.07939864,-0.13201697,0.01469455,-0.03289262,-0.01324930,0.99542301,0.01783926,0.05752572,0.07419962
1761617934122,0.13081473,-0.03452970,-0.05760418,0.02928908,-0.02853186,0.00250679,0.99542837,0.01800767,0.05736167,0.07421403
1761617934132,-0.33636233,0.23504690,0.28210100,0.00458577,-0.05532734,-0.04367233,0.99546043,0.01803083,0.05708226,0.07399349
1761617934144,0.22396822,0.02413857,-0.03730413,-0.00384720,-0.01812848,-0.01192177,0.99547239,0.01800775,0.05697349,0.07392196
1761617934155,-0.18404645,-0.02326916,0.06932760,0.02197796,-0.03348329,0.00359296,0.99547882,0.01812093,0.05680105,0.07394046
1761617934167,0.16476515,0.05744707,-0.11725201,0.00034903,-0.01578103,-0.01197649,0.99548987,0.01812310,0.05670321,0.07386621
1761617934177,-0.21096408,-0.11381169,0.02825891,0.02896076,-0.02091841,-0.00532897,0.99549542,0.01827514,0.05659339,0.07383823
1761617934188,0.02595032,-0.02730190,0.02216590,0.01991409,-0.02576699,0.00021047,0.99550109,0.01837969,0.05645811,0.07383933
1761617934199,-0.11701831,-0.03830286,-0.84636473,0.01043272,-0.02851006,-0.00050869,0.99550941,0.01843916,0.05629561,0.07383643
1761617934211,0.04023550,-0.01527434,-0.02142914,0.01079176,-0.02413994,-0.00525402,0.99551842,0.01850175,0.05615559,0.07380596
1761617934222,-0.13680088,-0.01035581,-0.16510258,0.00024594,-0.04000113,-0.00769717,0.99553377,0.01850309,0.05593759,0.07376401
1761617934233,0.26141463,-0.14065525,0.65394198,0.00747579,-0.02424020,0.00274446,0.99553947,0.01854495,0.05580184,0.07377938
1761617934244,0.03490710,-0.12161494,0.12698560,-0.00757912,-0.01832989,0.00126990,0.99554532,0.01850365,0.05570194,0.07378630
1761617934256,0.05180252,-0.14243581,-0.08165951,-0.01957501,-0.02617513,0.01517446,0.99554945,0.01838816,0.05554751,0.07387583
1761617934267,0.00287232,-0.06637819,0.07360369,-0.04804717,-0.01704082,0.00267146,0.99555876,0.01811429,0.05545038,0.07389106
1761617934277,-0.10874657,-0.18534929,0.03697704,-0.04436070,-0.03246237,0.01155211,0.99556742,0.01789470,0.05528969,0.07394824
1761617934289,0.15750486,0.26274937,-0.08215428,-0.03914962,-0.01560623,0.00232693,0.99557543,0.01766959,0.05519995,0.07396162
1761617934299,-0.17787887,0.73266132,-1.12974418,-0.03114568,-0.00865603,0.00575651,0.99557865,0.01750296,0.05515364,0.07399242
1761617934311,0.04424706,0.01533433,-0.18200736,0.03215946,-0.00340226,-0.00597635,0.99557901,0.01768466,0.05513442,0.07395865
1761617934322,0.09276080,-0.17634935,-0.00077274,-0.01448412,-0.01624399,0.00273808,0.99558429,0.01760428,0.05504427,0.07397385
1761617934333,0.12885260,-0.56095813,1.05289119,-0.04606965,-0.02206384,-0.02952738,0.99560834,0.01734168,0.05491850,0.07380554
1761617934344,-0.11156125,-0.21538414,0.16061962,-0.04303389,-0.03786899,-0.02691612,0.99563414,0.01711145,0.05471590,0.07366154
1761617934355,0.11719086,-0.02825728,-0.02628379,-0.04635425,-0.02770774,-0.02036175,0.99565532,0.01685418,0.05456213,0.07354853
1761617934366,0.09954912,0.14037475,0.06558769,-0.04339139,-0.01205421,-0.01627451,0.99566983,0.01661119,0.05449462,0.07345740
1761617934377,-0.07532317,0.03557723,-0.04696539,-0.04088347,-0.05122984,0.00921094,0.99568576,0.01637815,0.05420261,0.07350990
1761617934389,0.17404769,-0.01989182,0.02442362,-0.03246721,-0.03291354,-0.00740530,0.99570252,0.01618822,0.05401007,0.07346658
1761617934399,0.06939450,0.06878487,-0.56016520,-0.04047364,-0.05688801,0.00257325,0.99572059,0.01598181,0.05371994,0.07347970
1761617934412,0.02979183,0.21534186,0.00414251,-0.03324897,-0.04260341,-0.00069768,0.99573841,0.01577566,0.05345580,0.07347537
1761617934422,-0.07337298,-0.07962322,-0.06175805,-0.00732445,-0.03878251,-0.01710137,0.99575672,0.01573684,0.05325025,0.07338474
1761617934433,-0.12861638,0.02402247,0.69836779,-0.03180371,-0.05542037,-0.00634968,0.99577790,0.01556510,0.05295098,0.07335045
1761617934444,0.01156243,-0.02751720,0.10286682,-0.01927191,-0.04132758,-0.01232717,0.99579661,0.01545911,0.05272368,0.07328265
1761617934456,0.04576179,-0.03486925,-0.05720042,0.00918701,-0.02835062,-0.00849029,0.99580869,0.01551515,0.05255074,0.07323086
1761617934496,0.08629188,0.08441960,-0.10414326,-0.01089502,-0.00858236,-0.00395741,0.99582665,0.01530052,0.05238167,0.07315290
1761617934522,-0.27175611,-0.04369141,0.27585547,0.00420014,-0.03424147,-0.00928614,0.99585846,0.01535596,0.05192968,0.07303032
1761617934533,-1.22198488,0.89874545,0.70409566,0.04328154,-0.03231272,0.02417400,0.99585433,0.01558968,0.05175519,0.07316086
1761617934556,0.58879179,-0.38088099,-0.41757779,0.00881416,-0.01025440,0.00288170,0.99585644,0.01569148,0.05163675,0.07319414
1761617934567,-0.24718490,-0.01798411,0.29479802,-0.01024821,-0.00088482,0.00255368,0.99585654,0.01563460,0.05163184,0.07320832
1761617934580,0.28339256,-0.06618092,-0.19784091,-0.00084541,0.00372367,0.01200576,0.99584969,0.01562915,0.05165586,0.07328575
1761617934600,0.08440570,0.04007671,-0.27555193,-0.00122375,-0.00965962,0.00484465,0.99585131,0.01561697,0.05155975,0.07333396
1761617934611,-0.49217444,-0.05918849,-0.05294668,-0.00375786,-0.01267197,0.00181217,0.99585465,0.01559537,0.05148688,0.07334438
1761617934622,-0.02226339,-0.02793901,-0.07521793,0.00820373,-0.01731256,0.01241792,0.99585383,0.01564049,0.05139166,0.07341268
1761617934625,-16.20085794,-1.86972570,9.38381356,-0.00846282,-0.07486838,0.09072898,0.99585073,0.01563075,0.05130557,0.07351702
1761617934636,3.64068669,0.43118155,-1.43986244,0.00204923,-0.01225926,0.01754842,0.99584685,0.01564213,0.05123753,0.07361441
1761617934645,-0.08439237,0.02802882,0.21247544,-0.00696364,-0.00578681,0.01468513,0.99584360,0.01560870,0.05120975,0.07368490
1761617934656,0.08494676,-0.08042741,-0.15949480,0.00434783,-0.00714159,0.00301516,0.99584399,0.01563153,0.05117226,0.07370073
1761617934668,0.13839423,0.00443355,-0.01541923,-0.00643933,-0.00326040,0.01831887,0.99583752,0.01559321,0.05115286,0.07380972
1761617934679,-0.28203813,-0.00315845,0.07408375,-0.00576518,-0.01451255,0.02162016,0.99583321,0.01556093,0.05107159,0.07393080
1761617934690,0.01140395,0.15205267,-0.01282944,0.00103372,-0.00946241,0.00583915,0.99583341,0.01556672,0.05101860,0.07396350
1761617934700,-0.19688629,0.47389499,-1.00052062,0.02393087,-0.00328791,0.00732254,0.99582962,0.01568757,0.05100199,0.07400048
1761617934712,0.09819150,0.01381907,-0.05479100,0.02698443,-0.00906674,-0.00351911,0.99583138,0.01584678,0.05094850,0.07397971
1761617934723,0.06849985,0.11710180,-0.01393283,0.02589843,0.00657245,0.00257457,0.99582615,0.01599051,0.05098498,0.07399400
1761617934734,0.09699482,-0.55342678,0.56552090,0.06885557,-0.01586734,-0.00460941,0.99582635,0.01637266,0.05089691,0.07396842
1761617934745,-0.02397669,0.02268379,0.09219065,-0.01883834,-0.02440888,-0.03296837,0.99584675,0.01627659,0.05077243,0.07380028
1761617934756,0.15401678,0.03855225,-0.03653295,-0.00212222,-0.02657879,-0.00625503,0.99585740,0.01626438,0.05061960,0.07376431
1761617934767,0.04063953,-0.05274037,-0.03637747,0.01070325,-0.01833503,0.00973809,0.99585758,0.01632325,0.05051876,0.07381787
1761617934780,0.11456379,-0.12639989,-0.07898710,-0.00442775,-0.01931824,0.00686563,0.99586116,0.01629403,0.05039126,0.07386319
1761617934791,-0.17412177,-0.22562647,0.09806230,-0.02807145,-0.02185122,0.01575738,0.99586324,0.01614525,0.05027545,0.07394670
1761617934801,-0.52623538,-0.24242900,-0.48804088,-0.06833020,-0.02632708,0.01933382,0.99586847,0.01578310,0.05013591,0.07404917
1761617934812,0.13052516,0.03179131,-0.00108279,-0.03718367,-0.02095327,0.00817872,0.99587414,0.01557859,0.05002067,0.07409415
1761617934823,-0.01450137,0.05639476,-0.05961622,-0.02637240,-0.02641886,-0.02535969,0.99589333,0.01543882,0.04988065,0.07395975
1761617934834,0.48314824,0.25089586,0.35159041,-0.03188317,-0.03582029,-0.02031328,0.99591455,0.01526027,0.04968006,0.07384599
1761617934845,0.02410843,-0.07446118,-0.05336021,0.00153233,-0.03011957,-0.00555620,0.99592465,0.01526847,0.04951892,0.07381627
1761617934857,0.05205711,0.10337766,0.01091602,-0.02910097,-0.02706179,0.00822837,0.99593154,0.01509823,0.04936060,0.07386440
1761617934867,0.03128694,-0.13985608,-0.03844387,-0.00644163,-0.02370704,0.00496779,0.99593632,0.01506409,0.04923496,0.07389073
1761617934879,0.07330413,-0.03718248,0.05973433,-0.02828914,-0.01036061,0.00752737,0.99593850,0.01490142,0.04917538,0.07393401
1761617934890,-0.09612461,-0.09916281,-0.15504388,-0.01862585,-0.02096202,-0.00995503,0.99595008,0.01479619,0.04905695,0.07387777
1761617934901,0.03098151,0.31438148,-0.45074896,-0.06307552,-0.01859636,-0.00051975,0.99596042,0.01444927,0.04895467,0.07387491
1761617934912,-0.12358809,-0.01764158,-0.11088757,-0.02113093,-0.04137849,-0.02699987,0.99598361,0.01433622,0.04873329,0.07373046
1761617934923,0.18562932,-0.03761093,0.15075299,0.00603540,-0.01412132,-0.00688069,0.99599012,0.01437153,0.04865068,0.07369021
1761617934934,-0.00667621,-0.26202937,0.46836579,-0.02306698,-0.03455947,-0.02383322,0.99601071,0.01424581,0.04846233,0.07356032
1761617934946,0.01868738,0.11260803,0.07787544,-0.03366512,-0.03856621,-0.03176838,0.99603770,0.01405224,0.04824058,0.07337765
1761617934956,0.07097812,-0.06271648,-0.00459441,0.00208276,-0.03334570,-0.00867908,0.99604948,0.01406328,0.04806385,0.07333165
1761617934968,-0.00535681,0.09907630,0.01152947,0.00704944,-0.03040905,-0.01125442,0.99606176,0.01410276,0.04789356,0.07326863
1761617934980,-0.02926619,0.10925168,0.02130842,-0.01904765,-0.03386890,0.00520499,0.99607075,0.01398942,0.04769204,0.07329959
1761617934990,-0.02117439,-0.04815862,-0.03817297,-0.00985304,-0.02069508,0.01076696,0.99607254,0.01393671,0.04758132,0.07335720
1761617935001,-0.49451138,-0.12442837,-0.55570473,-0.00906375,-0.02525051,0.01082070,0.99607556,0.01388550,0.04743865,0.07341834
1761617935013,-0.02777411,0.00560150,0.05204729,-0.02139530,-0.01904160,0.02237848,0.99607303,0.01376461,0.04733107,0.07354477
1761617935024,-0.04852768,-0.05540664,0.09511764,-0.02204240,-0.01934392,-0.00107211,0.99608018,0.01364338,0.04722468,0.07353888
1761617935035,0.44951148,-0.04965803,0.64661341,-0.01408786,-0.01075515,-0.00300664,0.99608544,0.01356308,0.04716337,0.07352174
1761617935045,-0.11097893,-0.10734242,0.14373572,-0.03764599,-0.01091733,0.01718557,0.99608421,0.01337297,0.04710824,0.07360853
1761617935058,0.12247967,0.15856677,-0.00715676,-0.02371800,0.01309307,0.01349103,0.99607628,0.01322829,0.04718811,0.07369082
1761617935069,-0.09704586,0.04459661,-0.02792288,-0.00579290,0.00871818,-0.00517162,0.99607655,0.01319411,0.04723954,0.07366031
1761617935081,-0.08148253,0.04035264,-0.05288048,-0.00668315,-0.00887842,0.00746885,0.99607630,0.01315568,0.04718849,0.07370325
1761617935092,0.03059378,0.01391618,0.08238464,0.00036712,0.02039704,-0.00021702,0.99607109,0.01315768,0.04729966,0.07370207
1761617935102,-0.10184502,0.51874893,-0.51181104,-0.00445723,0.01619834,0.00883828,0.99606413,0.01313495,0.04738227,0.07374715
1761617935112,-0.11539307,0.04851374,-0.17805864,-0.00447232,0.00461567,0.00933894,0.99605966,0.01311147,0.04740650,0.07379618
1761617935124,0.12748279,-0.03399541,0.11726700,-0.01320862,0.01294185,0.00125668,0.99605657,0.01303552,0.04748092,0.07380340
1761617935164,0.13917442,-0.06492371,0.04880535,-0.00880122,0.00012354,0.00186690,0.99605598,0.01285950,0.04748339,0.07384074
1761617935192,-0.14369858,-0.14367013,0.32395283,-0.02821146,-0.00742117,0.02765744,0.99603689,0.01245890,0.04737801,0.07423348
1761617935203,-2.12478330,0.68110528,0.70381393,0.03534619,-0.00620909,0.05957315,0.99601321,0.01264093,0.04734603,0.07454028
1761617935224,0.75866392,-0.06001456,-0.62061106,0.01204934,-0.00193547,0.01880231,0.99599769,0.01276805,0.04732561,0.07473864
1761617935236,0.50712337,-0.17802208,0.66599734,-0.00430278,-0.00861737,0.00435570,0.99599853,0.01274180,0.04727304,0.07476521
1761617935258,0.14530802,0.06795331,-0.30050122,0.00581962,0.00352621,0.00930087,0.99598837,0.01280465,0.04731113,0.07486566
1761617935268,-0.07530528,0.20761857,0.53669112,0.01917077,0.01347565,0.00879254,0.99598008,0.01290722,0.04738322,0.07491270
1761617935280,-0.00217710,0.06716048,-0.13421110,0.02232773,0.00305107,-0.00051657,0.99597776,0.01303783,0.04740107,0.07490968
1761617935291,0.06118139,-0.01987243,0.03508409,0.02335518,0.00258583,0.00440442,0.99597357,0.01316629,0.04741529,0.07493390
1761617935302,-0.00070919,-0.37614626,-0.56838562,0.01330268,-0.01000285,0.01973174,0.99596710,0.01323879,0.04736078,0.07504144
1761617935313,0.05734353,0.01337825,-0.04488471,0.01955290,-0.00606074,0.02237262,0.99595822,0.01334340,0.04732835,0.07516114
1761617935325,-0.00424990,-0.01394059,-0.07621475,0.04598197,-0.00200423,0.00142341,0.99595438,0.01362159,0.04731623,0.07516975
1761617935335,-0.06107242,0.43401673,0.50295478,0.03732043,-0.00266232,0.02219202,0.99594376,0.01381379,0.04730252,0.07528404
1761617935337,-3.25185360,5.14882746,12.64144209,0.25524602,0.00329274,0.10453730,0.99593037,0.01410732,0.04730630,0.07540425
1761617935347,0.77991612,-0.98137328,-2.88081199,0.03906679,0.01318360,0.01016929,0.99592050,0.01430461,0.04737288,0.07545561
1761617935358,-0.01124531,-0.25525303,-0.12371547,0.05352093,-0.00218607,0.01841372,0.99590995,0.01457756,0.04736173,0.07554952
1761617935399,0.04355283,-0.04048129,-0.12665311,0.00493752,0.00153325,-0.00216256,0.99591034,0.01467977,0.04739347,0.07550475
1761617935428,-0.17707983,-0.02754029,0.13808566,0.00237452,0.01103450,0.01424339,0.99588660,0.01471408,0.04755292,0.07571057
1761617935447,-0.15102997,-0.14643221,-0.10728247,0.02582808,0.01643156,0.02179128,0.99585944,0.01496203,0.04771066,0.07591977
1761617935458,0.54362981,0.29232464,0.92719483,0.02906242,0.00692227,-0.01100501,0.99585982,0.01512769,0.04775012,0.07585704
1761617935480,0.07463796,-0.06239738,-0.34216398,0.01746169,0.00423629,0.01214907,0.99584495,0.01531365,0.04779523,0.07598643
1761617935492,-0.03969581,0.25129894,-0.22462897,0.00773403,0.00291587,0.03449983,0.99582642,0.01536315,0.04781390,0.07620723
1761617935514,-0.04249000,0.05848712,-0.15763178,-0.01114266,-0.00528186,0.00245695,0.99582898,0.01524281,0.04775685,0.07623376
1761617935524,-0.00193898,-0.13707566,0.48520416,-0.03152294,-0.00055650,0.01543325,0.99582547,0.01507889,0.04775396,0.07631401
1761617935536,0.31655890,-0.53386170,0.17091088,-0.02895425,0.01590914,0.00054541,0.99582338,0.01491530,0.04784384,0.07631709
1761617935547,-0.04340607,0.08941504,-0.13330889,-0.00552469,0.01293224,0.00050849,0.99582014,0.01488436,0.04791626,0.07631994
1761617935559,0.00328808,-0.01833018,-0.10555774,0.00965009,0.01530520,-0.00315286,0.99581617,0.01494419,0.04801116,0.07630039
1761617935569,-0.01578702,0.08147016,0.25659073,-0.01927692,0.01972619,-0.02600952,0.99582241,0.01485359,0.04810387,0.07617815
1761617935580,-0.02721581,-0.07968106,-0.08755666,-0.00777168,0.01415145,-0.02396321,0.99582949,0.01481007,0.04818312,0.07604396
1761617935591,-0.03302394,0.12378037,-0.02898504,-0.02159730,0.01974317,0.00257574,0.99582482,0.01468913,0.04829368,0.07605838
1761617935603,-0.19405586,0.26827532,-0.13860681,-0.02136330,0.01283646,0.00857858,0.99581923,0.01456522,0.04836813,0.07610814
1761617935614,0.06422914,0.02391982,0.00819475,-0.01303165,0.01886731,0.00213911,0.99581406,0.01448963,0.04847756,0.07612054
1761617935625,0.08455516,-0.01496918,0.10629967,-0.01757476,0.01004329,0.00440225,0.99581098,0.01439473,0.04853180,0.07614431
1761617935636,0.26376013,-0.17290729,0.18399536,-0.00787118,0.00028297,0.00900081,0.99580774,0.01435144,0.04853335,0.07619382
1761617935648,-0.00813838,0.01112634,-0.07876627,0.01853674,-0.00107835,-0.00826905,0.99581016,0.01445895,0.04852710,0.07614586
1761617935658,0.12225390,0.08589223,0.07425307,0.01061659,-0.00502673,0.00405700,0.99580901,0.01451416,0.04850096,0.07616695
1761617935669,-0.02400006,-0.05402500,-0.05487284,0.01661509,-0.00330006,0.00384700,0.99580694,0.01460554,0.04848281,0.07618811
1761617935681,-0.00514092,-0.04638085,-0.05643337,0.00794020,-0.00971526,0.00130595,0.99580840,0.01465080,0.04842743,0.07619556
1761617935692,-0.02290844,-0.00862847,-0.07055974,-0.00048498,-0.00509399,0.00127775,0.99580931,0.01464801,0.04839814,0.07620290
1761617935703,-0.05661588,-0.03124960,-0.18122103,-0.00076209,-0.00687153,0.01116276,0.99580655,0.01464390,0.04836103,0.07626318
1761617935714,-0.00393742,0.01736566,0.02046637,-0.01059894,-0.00821053,0.00871671,0.99580589,0.01458242,0.04831341,0.07631374
1761617935750,-0.04062929,0.01094591,-0.07336633,-0.00025500,-0.00113256,0.00126400,0.99580521,0.01457783,0.04829303,0.07633649
1761617935759,1.20000339,-0.69538752,2.43744364,-0.01114059,-0.01453659,-0.00518509,0.99581090,0.01452770,0.04822761,0.07631316
1761617935771,-0.81820921,0.25653533,-1.47739061,-0.01056477,-0.00956444,0.00307411,0.99581299,0.01446959,0.04817501,0.07633007
1761617935781,0.04297636,-0.10936124,-0.01184151,-0.01253051,0.00828909,0.01170530,0.99580702,0.01440256,0.04821935,0.07639269
1761617935793,-0.14466102,0.17917091,-0.53008466,-0.00894614,0.00609026,0.01194589,0.99580079,0.01435112,0.04825437,0.07646138
1761617935803,0.03712151,0.14254281,-0.06948296,-0.00817881,0.01441041,0.00585399,0.99579554,0.01430940,0.04832787,0.07649123
1761617935815,-0.02147520,-0.00017044,-0.03588940,0.00597782,0.00722198,-0.00002501,0.99579293,0.01434527,0.04837120,0.07649108
1761617935826,0.03956537,-0.06908893,0.20671243,0.00902092,0.00581056,-0.00492277,0.99579273,0.01439579,0.04840374,0.07646352
1761617935837,0.04941712,-0.07555117,0.41885758,0.00484319,0.00989434,0.00239113,0.99578862,0.01442291,0.04845915,0.07647691
1761617935860,-0.05732098,0.10606665,-0.17114404,0.00063218,-0.00129053,0.00340920,0.99578622,0.01443018,0.04844430,0.07651611
1761617935900,0.00035641,0.00691491,-0.00906941,0.00210305,0.00190997,0.00158888,0.99578130,0.01447235,0.04848260,0.07654797
1761617935940,0.07771850,-0.02991419,0.10093390,-0.01349198,-0.00837946,0.00117014,0.99579138,0.01420655,0.04831752,0.07657102
1761617935950,0.85660658,0.30555266,1.18276769,0.04240560,-0.04422980,-0.03946707,0.99581465,0.01442282,0.04809195,0.07636974
1761617935970,-0.34760783,-0.00601546,-0.54926906,0.03647313,-0.03525448,0.01114652,0.99581776,0.01479485,0.04773236,0.07648343
1761617935993,-0.05533058,0.06200725,-0.13932067,0.04945762,-0.02158431,0.00195926,0.99581924,0.01534383,0.04749277,0.07650518
1761617936005,-0.23824626,-0.16419985,-0.06171644,0.05947758,-0.02955754,0.00131060,0.99582164,0.01572151,0.04730508,0.07651350
1761617936026,0.00172990,-0.07392096,-0.00026803,0.00908345,-0.03130522,-0.01035691,0.99584351,0.01581462,0.04698420,0.07640735
1761617936037,0.15171251,-0.05200126,0.05243500,-0.01972632,-0.05393181,-0.03848604,0.99587482,0.01570809,0.04669297,0.07619952
1761617936048,0.08552332,0.08818597,0.01149144,-0.01239077,-0.02333973,0.01223365,0.99587682,0.01563747,0.04655993,0.07626925
1761617936059,-0.01753917,-0.04537109,-0.09383605,0.02052247,-0.02307830,0.01112363,0.99587628,0.01575034,0.04643300,0.07633043
1761617936071,-0.01629815,-0.05358561,0.03407362,-0.00988315,-0.02612973,0.00971853,0.99587979,0.01569499,0.04628668,0.07638486
1761617936083,-0.01148405,-0.14286879,-0.04319498,-0.00001693,-0.03095629,0.00872506,0.99588455,0.01569489,0.04609475,0.07643895
1761617936093,0.05494115,0.10733594,-0.04212743,-0.04617753,-0.05025712,0.00295268,0.99589961,0.01544784,0.04582587,0.07645475
1761617936104,0.03327032,0.08319455,-0.24444962,0.00722738,-0.04170692,-0.00290106,0.99591064,0.01548723,0.04559857,0.07643894
1761617936115,-0.01056605,0.05167107,-0.03185181,-0.01830586,-0.03560058,0.00515928,0.99591897,0.01538655,0.04540277,0.07646731
1761617936126,-0.01415232,-0.17031375,0.16879869,-0.02393122,-0.01931975,0.01841559,0.99591804,0.01525373,0.04529554,0.07656952
1761617936137,-0.17076893,-0.13497034,0.20221363,-0.04557285,-0.02765480,0.01459711,0.99592262,0.01500080,0.04514206,0.07665053
1761617936149,-0.05303764,0.01202094,-0.01865485,-0.05475113,-0.02478577,0.01264271,0.99592807,0.01469145,0.04500202,0.07672197
1761617936159,0.11783064,0.11719485,-0.02146480,-0.01721501,-0.01235539,-0.00233260,0.99593337,0.01459935,0.04493592,0.07670949
1761617936170,-0.03127532,0.14929445,-0.08653283,0.00732362,-0.03882007,-0.00654368,0.99594505,0.01463927,0.04472435,0.07667382
1761617936182,-0.02258478,-0.00719094,-0.07306236,0.01867389,-0.03123475,-0.00082842,0.99595183,0.01474571,0.04454631,0.07666910
1761617936193,0.01048338,0.08744178,-0.01263601,-0.01328389,-0.02979725,0.00792448,0.99595714,0.01466866,0.04437348,0.07671506
1761617936205,0.11522894,-0.01811622,-0.05272760,-0.00672030,-0.01628169,0.00845277,0.99595812,0.01463036,0.04428068,0.07676324
1761617936216,0.02058983,-0.08738039,-0.10293619,0.02111664,-0.02460589,0.01363726,0.99595663,0.01474650,0.04414535,0.07683825
1761617936227,-0.10805674,0.13276962,0.01320094,0.01303954,-0.01338969,-0.03845153,0.99597546,0.01481952,0.04407036,0.07662292
1761617936238,-0.12617835,0.18626667,0.05774077,0.00806009,-0.01441776,-0.00985604,0.99598254,0.01486425,0.04399035,0.07656822
1761617936249,-0.00435388,0.05660047,-0.05805176,0.01299431,-0.01346717,0.00849143,0.99598113,0.01493637,0.04391560,0.07661535
1761617936261,-0.07692729,-0.05328262,-0.02846037,0.03594507,-0.00784814,0.00091727,0.99597961,0.01514126,0.04387087,0.07662058
1761617936272,-0.02274586,0.01612274,0.08906715,-0.00726654,-0.00405700,-0.00276785,0.99598244,0.01510020,0.04384795,0.07660494
1761617936283,0.00492541,-0.12157477,-0.06628004,0.02223579,0.01936930,0.00167755,0.99597511,0.01522361,0.04395545,0.07661425
1761617936293,-0.26932552,0.09924353,-0.12068087,0.01823195,0.00444097,0.00896088,0.99596917,0.01531659,0.04397810,0.07665995
1761617936304,-0.08715461,0.13335311,-0.04285440,0.02671359,0.01712256,-0.00137717,0.99596353,0.01545818,0.04406885,0.07665265
1761617936316,0.00019834,-0.05181762,-0.00513572,0.01348029,0.00930513,-0.00040415,0.99595981,0.01554310,0.04412747,0.07665010
1761617936327,0.06965138,-0.08992507,-0.12767919,0.01401362,0.00816907,0.00111897,0.99595630,0.01561667,0.04417035,0.07665598
1761617936338,0.18893936,-0.21635938,-0.07140344,0.01879346,0.01352523,0.00087693,0.99595081,0.01572380,0.04424745,0.07666098
1761617936349,-0.02579917,-0.01634866,-0.06276493,0.00633115,0.01742276,0.01122436,0.99594177,0.01575672,0.04433805,0.07671934
1761617936360,0.02169650,0.06751727,0.02552129,-0.00875085,0.01983409,0.00836415,0.99593370,0.01570596,0.04445308,0.07676785
1761617936372,-0.01463559,-0.08779540,-0.05275489,0.00809667,0.01916441,-0.00877911,0.99593187,0.01575414,0.04456711,0.07671562
1761617936382,-0.04520233,-0.10821050,-0.10752513,-0.00435608,0.00433179,0.00730271,0.99592830,0.01573149,0.04458964,0.07675359
1761617936394,0.13063371,0.02386788,0.02496442,-0.01231924,0.01991479,-0.00161041,0.99592508,0.01566250,0.04470116,0.07674458
1761617936405,0.11438066,0.08767767,-0.15667950,-0.00912167,0.01216363,0.00642079,0.99592000,0.01561096,0.04476989,0.07678085
1761617936416,-0.01015093,0.13835659,0.04646859,-0.02916347,0.01406985,-0.00013984,0.99591905,0.01544473,0.04485008,0.07678006
1761617936428,-0.02669617,-0.19377958,-0.07318850,-0.01195076,0.00405431,0.00744541,0.99591588,0.01537840,0.04487259,0.07682138
1761617936439,0.00563606,-0.18183389,0.14098578,-0.01569719,0.00756929,0.00741180,0.99591218,0.01529207,0.04491422,0.07686214
1761617936449,0.03913901,-0.08430333,-0.04107622,0.00122465,0.01682767,-0.01126351,0.99591267,0.01529868,0.04500509,0.07680132
1761617936460,-0.07753001,0.19255849,0.10149652,-0.03146325,0.00930588,-0.00213845,0.99591392,0.01512406,0.04505673,0.07678945
1761617936500,-0.01550929,0.04150611,0.10700964,-0.00420486,0.00558188,0.00014849,0.99590991,0.01503996,0.04516837,0.07679242
1761617936518,0.13619053,-0.08662136,-0.68992376,-0.04370281,0.01769391,-0.00997552,0.99591530,0.01465756,0.04532319,0.07670513
1761617936529,0.01106240,0.10907580,-0.22871435,-0.02215812,0.01627824,-0.00097002,0.99591342,0.01453569,0.04541272,0.07669980
1761617936539,0.17487723,-0.08516166,0.88390478,-0.01254920,-0.00046420,-0.02400371,0.99592408,0.01447044,0.04541031,0.07657498
1761617936560,-0.12022947,0.02876395,0.19818700,0.00051338,0.00053588,-0.00671001,0.99592916,0.01447583,0.04541594,0.07650453
1761617936572,0.18155645,-0.08429704,-0.17236954,0.00994734,0.00259567,0.00001402,0.99592767,0.01453203,0.04543060,0.07650460
1761617936583,-0.05613597,0.05225301,0.07720542,0.00604937,-0.00661999,-0.02660705,0.99594019,0.01456561,0.04539386,0.07635694
1761617936594,-0.02467057,-0.05494846,0.05118250,-0.00650027,-0.00660874,-0.01754127,0.99595019,0.01452823,0.04535586,0.07625607
1761617936605,-0.05907177,-0.12616389,0.02299223,0.00162303,-0.00622959,0.00104931,0.99595117,0.01453707,0.04532191,0.07626179
1761617936616,-0.06931954,0.08691370,-0.03607763,0.00331240,-0.01740707,0.00684103,0.99595240,0.01455562,0.04522443,0.07630010
1761617936627,0.03726610,0.02807382,0.01597433,0.01367446,-0.00730449,-0.00217051,0.99595403,0.01463083,0.04518425,0.07628816
1761617936639,0.20882187,0.16534431,-0.01260050,0.00156665,-0.01126093,0.00708352,0.99595372,0.01463961,0.04512119,0.07632783
1761617936641,9.23550993,0.63481988,-8.10229521,-0.01467070,-0.06888640,0.01003267,0.99595642,0.01462420,0.04504886,0.07633837
1761617936651,-1.98295540,-0.01846165,1.55434096,0.01191887,-0.01763394,-0.00145297,0.99596005,0.01468320,0.04496157,0.07633117
1761617936661,-0.09032512,0.00831455,0.05913202,0.01863767,-0.01846539,-0.01462973,0.99596843,0.01477639,0.04486925,0.07625803
1761617936672,0.05235543,0.10783598,0.12015021,-0.00357334,-0.00850599,-0.02455645,0.99598128,0.01475656,0.04482204,0.07612174
1761617936683,-0.00687958,0.04513250,-0.06332309,0.00514467,-0.02156270,-0.02144537,0.99599570,0.01478588,0.04469913,0.07599950
1761617936694,-0.05343137,0.12039258,-0.00183455,0.00455927,-0.01039934,-0.00420091,0.99599980,0.01481187,0.04463986,0.07597555
1761617936705,-0.17936271,0.16869402,-0.00512045,-0.02179063,-0.01260821,0.00280290,0.99600351,0.01469202,0.04457051,0.07599097
1761617936716,-0.09296734,-0.14412911,-0.02510936,-0.00856545,-0.00957655,0.01038329,0.99600222,0.01464577,0.04451880,0.07604704
1761617936727,0.19146538,-0.24124090,0.11226260,0.00279275,-0.01118771,0.01015134,0.99600050,0.01466099,0.04445782,0.07610236
1761617936740,0.12029648,-0.07231443,0.14235418,-0.00160941,-0.00615327,0.00790867,0.99599850,0.01465053,0.04441783,0.07615377
1761617936751,-0.05185648,0.04370052,-0.07274235,0.00390982,-0.02172580,-0.01141734,0.99600778,0.01467086,0.04430485,0.07609440
1761617936761,0.06396112,-0.01301698,-0.05257471,0.01876858,-0.01264646,0.00436651,0.99600753,0.01476658,0.04424036,0.07611667
1761617936773,-0.08895169,0.06141735,0.02244838,0.02772379,-0.00447751,0.00712686,0.99600301,0.01493153,0.04421372,0.07615907
1761617936783,0.12852001,0.12376333,0.09220873,0.01477394,0.00296785,0.01676605,0.99599458,0.01500762,0.04422900,0.07624542
1761617936794,0.00322708,-0.29470098,0.08176208,0.02808662,0.00239514,0.00717430,0.99598836,0.01516912,0.04424277,0.07628667
1761617936805,0.10692878,-0.05426568,0.25362990,0.00035728,-0.00224471,-0.00234344,0.99598983,0.01517103,0.04423076,0.07627413
1761617936816,0.01569597,-0.11670397,0.01903545,0.00166280,-0.00478513,-0.00835931,0.99599446,0.01518034,0.04420397,0.07622732
1761617936828,-0.02946430,0.09949600,-0.11835024,0.00443423,-0.00101568,-0.00701178,0.99599749,0.01520650,0.04419797,0.07618595
1761617936839,-0.09162662,0.17249079,-0.09786877,-0.00163185,-0.01283994,0.00525667,0.99599859,0.01519720,0.04412479,0.07621591
1761617936851,0.04946713,0.09165675,-0.02277872,0.02334964,0.00576807,-0.00200107,0.99599601,0.01532796,0.04415709,0.07620471
1761617936861,-0.02649635,0.01307762,-0.04077538,0.04055412,0.00846088,-0.00692024,0.99599357,0.01553681,0.04420066,0.07616907
1761617936873,-0.05827653,-0.08623007,0.01433715,0.01403562,-0.00986314,-0.01431974,0.99600124,0.01561892,0.04414296,0.07608530
1761617936884,0.06008796,0.08033499,0.07119117,-0.00333643,-0.00297488,-0.02020145,0.99601134,0.01559940,0.04412556,0.07596712
1761617936896,0.14070730,0.05160777,-0.00654943,0.00370725,-0.01316649,-0.00135816,0.99601483,0.01561998,0.04405248,0.07595958
1761617936906,0.10227274,0.18561270,0.12386985,-0.00352028,-0.00744799,-0.00245824,0.99601794,0.01560079,0.04401189,0.07594619
1761617936917,-0.03043657,0.02435075,0.10076333,-0.02066549,-0.01938020,-0.00470766,0.99602601,0.01549230,0.04391015,0.07592147
1761617936928,0.04429187,-0.22243296,-0.04596121,-0.00276409,-0.00437219,0.00423530,0.99602552,0.01547668,0.04388544,0.07594540
1761617936940,-0.09545892,-0.06395048,-0.10782891,0.00494082,-0.01641495,0.00032584,0.99602903,0.01550460,0.04379270,0.07594724
1761617936951,-0.04127864,0.10263721,-0.02350802,0.00132787,-0.01780870,-0.00329746,0.99603485,0.01551223,0.04369030,0.07592828
1761617936961,0.21741392,-0.03012391,-0.06685055,0.04599157,-0.01294582,-0.00585591,0.99603635,0.01574909,0.04362363,0.07589812
1761617936973,-0.13636202,0.04207889,0.00556589,0.02570266,-0.01044350,-0.01316050,0.99604240,0.01589688,0.04356358,0.07582245
1761617936984,-0.07788915,0.05791355,0.00776078,0.00839364,-0.00215967,-0.00502347,0.99604427,0.01594263,0.04355181,0.07579507
1761617936996,0.04482480,-0.16369279,0.02843965,-0.00158039,0.00295541,-0.00725264,0.99604698,0.01593306,0.04356969,0.07575119
1761617937032,-0.11555964,-0.07596392,-0.01435955,0.00160425,0.00066192,-0.00478853,0.99605257,0.01596210,0.04358167,0.07566452
1761617937041,2.99253024,-0.66582059,0.01467298,-0.02380848,0.00121223,-0.07150726,0.99607786,0.01585734,0.04358700,0.07534989
1761617937052,-1.83542898,0.68797799,-0.03011020,0.00202183,-0.00610767,-0.00791812,0.99608245,0.01586846,0.04355341,0.07530634
1761617937063,-0.06397892,0.00474778,-0.03006155,0.01889574,-0.01495017,-0.03637011,0.99609917,0.01597050,0.04347268,0.07510994
1761617937074,-0.01756349,-0.08787025,0.09138999,-0.00703854,-0.00643963,-0.00670055,0.99610421,0.01593109,0.04343662,0.07507242
1761617937084,-0.03156943,-0.07720772,-0.00920368,-0.02179076,-0.01746012,-0.01092180,0.99611377,0.01582322,0.04335019,0.07501835
1761617937095,0.05899417,0.21635669,0.12190114,-0.01612785,-0.00528195,-0.01149659,0.99612160,0.01572968,0.04331956,0.07495167
1761617937106,0.24108396,0.10607060,0.08985032,-0.01405884,-0.00909526,0.00100026,0.99612452,0.01565376,0.04327044,0.07495708
1761617937117,-0.01668356,0.04764845,-0.05959796,0.00044943,-0.02585333,-0.01527337,0.99613719,0.01565628,0.04312566,0.07487154
1761617937129,-0.19928247,-0.22236392,-0.11040799,0.00577453,-0.01381511,-0.01180217,0.99614541,0.01569035,0.04304415,0.07480191
1761617937140,0.00542617,-0.12780054,-0.06810814,0.00543115,-0.00284539,-0.01272382,0.99615067,0.01571913,0.04302907,0.07473448
1761617937151,-0.10433532,-0.05817126,-0.00916513,-0.00172818,-0.01554694,-0.00193668,0.99615527,0.01570971,0.04294434,0.07472392
1761617937162,-0.01642405,0.04358276,0.07908861,-0.01790290,-0.01154067,-0.00057288,0.99616004,0.01560588,0.04287741,0.07472060
1761617937173,0.06649046,-0.05278001,0.02702185,-0.01440114,-0.00806290,-0.00889612,0.99616648,0.01553099,0.04283548,0.07467434
1761617937185,-0.12389237,0.10092663,0.06019375,-0.02466891,-0.00291592,-0.01459827,0.99617601,0.01538421,0.04281813,0.07458748
1761617937195,0.25861412,-0.30060983,0.03127703,-0.02088597,-0.00052422,-0.00320726,0.99617919,0.01527038,0.04281527,0.07457000
1761617937207,-0.00077620,-0.01560315,0.03058860,-0.01296685,0.00179766,-0.00741207,0.99618311,0.01519518,0.04282570,0.07452701
1761617937217,0.04473821,0.03959213,-0.01296570,-0.01517498,-0.00124424,-0.00380209,0.99618604,0.01511702,0.04281929,0.07450743
1761617937229,-0.28309192,0.20819631,-0.05642589,0.00726609,-0.00620321,-0.02483169,0.99619811,0.01516062,0.04278207,0.07435844
1761617937240,0.16631548,0.21831891,0.15075669,-0.00658805,-0.00891208,-0.00245303,0.99620157,0.01512636,0.04273573,0.07434568
1761617937252,-0.12820411,0.04217220,-0.01972493,0.00528983,-0.00327850,-0.00006871,0.99620196,0.01515810,0.04271606,0.07434527
1761617937262,0.12481834,0.04051359,0.04115559,0.02805474,0.00127756,0.00487678,0.99619751,0.01530539,0.04272276,0.07437087
1761617937274,-0.07882188,0.01460741,-0.07669910,0.02689791,0.00221199,0.00616404,0.99619164,0.01546812,0.04273615,0.07440817
1761617937284,0.09094105,0.33302557,0.05162863,0.02245896,0.00835613,-0.00311358,0.99618924,0.01558154,0.04277835,0.07439244
1761617937296,-0.00393248,-0.24372316,-0.21823468,0.05923926,-0.00370713,0.00144805,0.99618419,0.01591920,0.04275721,0.07440070
1761617937308,0.02373325,-0.18678673,-0.05228478,0.03092583,-0.02213394,-0.05230322,0.99621007,0.01610321,0.04262552,0.07408949
1761617937319,0.18613964,-0.00401443,0.15456281,-0.03526461,0.00016145,-0.03746708,0.99622862,0.01590749,0.04262641,0.07388155
1761617937329,0.05441641,-0.02950462,0.02733586,0.01754492,-0.01749805,-0.00906358,0.99623437,0.01599610,0.04253805,0.07383578
1761617937341,-0.24325044,0.15189749,0.08719515,-0.00528899,-0.02172546,-0.00628260,0.99624308,0.01596489,0.04240987,0.07379871
1761617937352,0.05534755,-0.05465570,0.03704477,0.00557939,0.00507150,-0.00995524,0.99624554,0.01599669,0.04243878,0.07374197
1761617937363,-0.02348902,0.04039088,0.01999626,-0.01749154,-0.00086301,-0.00022168,0.99624729,0.01590486,0.04243425,0.07374080
1761617937373,-0.05155124,-0.03837616,-0.03261639,-0.01573758,-0.01353892,0.00398476,0.99625019,0.01581909,0.04236046,0.07376252
1761617937385,0.02037759,-0.00867938,-0.03948443,0.00340286,-0.01531127,-0.00829999,0.99625697,0.01583815,0.04227472,0.07371604
1761617937397,0.18493493,-0.07262572,-0.09729499,0.01151655,-0.01602789,-0.02127578,0.99626907,0.01590552,0.04218095,0.07359158
1761617937407,0.27618328,-0.17808829,-0.17889412,0.03650054,-0.02250001,-0.02742099,0.99628197,0.01610262,0.04205945,0.07344350
1761617937418,0.03474894,-0.15611470,0.06847584,0.00367206,-0.00377436,0.00484530,0.99628058,0.01612245,0.04203907,0.07346967
1761617937429,-0.30149812,0.02044055,0.19060813,0.00358163,0.00211331,0.01341717,0.99627444,0.01614179,0.04205048,0.07354212
1761617937442,-0.38530015,0.02512414,0.05422025,-0.01557299,-0.00950026,0.00454774,0.99627653,0.01603901,0.04198778,0.07357214
1761617937453,0.14738357,-0.12703616,0.12322102,-0.01091259,0.00026120,-0.00251746,0.99627837,0.01598172,0.04198915,0.07355892
1761617937464,-0.07093013,-0.07502900,-0.00193163,-0.00159061,0.00215666,-0.00697973,0.99628091,0.01597273,0.04200134,0.07351948
1761617937474,0.07079651,0.13854015,0.11160070,-0.03079196,0.00244743,0.01246288,0.99627814,0.01581262,0.04201406,0.07358429
1761617937485,-0.04379637,0.12463640,-0.06520850,-0.01385954,0.00978072,-0.00572934,0.99627935,0.01573985,0.04206541,0.07355421
1761617937497,-0.03873119,0.00750971,-0.07761021,0.01719562,-0.00004969,-0.00259283,0.99627887,0.01584303,0.04206511,0.07353865
1761617937551,-0.06630037,0.02320451,-0.05208435,0.00186601,0.00118235,-0.00032052,0.99627734,0.01589406,0.04209745,0.07352989
1761617937566,1.22967313,-0.67630347,1.65657435,-0.08800705,0.01083433,-0.00589951,0.99628728,0.01524721,0.04217708,0.07348653
1761617937597,-0.52290273,0.29370415,-0.61388898,-0.00723422,0.00492009,0.01136927,0.99627275,0.01513508,0.04225335,0.07366275
1761617937608,0.63712031,0.21437207,0.68347639,0.03016952,0.01347977,0.01513284,0.99626101,0.01529950,0.04232681,0.07374522
1761617937630,-0.24770673,0.07019259,-0.30422528,0.03703653,0.00757959,0.00204890,0.99624972,0.01569765,0.04240829,0.07376725
1761617937652,-0.06483917,-0.09011168,0.06548947,0.03207658,0.00433129,-0.00259210,0.99624406,0.01605851,0.04245702,0.07373809
1761617937663,0.03845224,-0.07550411,0.26253684,0.00256102,0.01766192,0.00865335,0.99623587,0.01607311,0.04255769,0.07378741
1761617937676,-0.11922187,0.01355339,-0.19582884,-0.00430263,0.01273270,0.00062979,0.99623256,0.01604578,0.04263854,0.07379141
1761617937688,-0.10676012,0.06474241,-0.02939820,0.00717438,0.00337879,-0.00634622,0.99623377,0.01608704,0.04265797,0.07375492
1761617937698,-0.04022465,0.09165661,0.05728721,0.01889143,0.00813692,0.00448005,0.99622869,0.01618433,0.04269988,0.07377799
1761617937708,0.05403420,-0.01314867,0.00161204,0.02409825,0.00811369,0.00519782,0.99622272,0.01631205,0.04274288,0.07380554
1761617937719,-0.06613304,0.06775249,0.02270600,0.00929337,-0.00142984,-0.00294331,0.99622335,0.01635851,0.04273573,0.07379083
1761617937730,0.06519566,-0.13677049,-0.02576300,0.02122076,0.00378170,0.00039473,0.99622038,0.01647523,0.04275653,0.07379300
1761617937741,-0.02479716,-0.00137560,-0.04684313,0.00708528,0.00908102,0.00142639,0.99621673,0.01651739,0.04281056,0.07380148
1761617937752,-0.02820825,-0.23296456,0.06783338,0.00752648,0.00607394,0.01100973,0.99621042,0.01655690,0.04284245,0.07385928
1761617937763,-0.12946801,-0.10685805,-0.09786558,0.00328327,-0.00761864,0.00338648,0.99621054,0.01657578,0.04279864,0.07387876
1761617937774,0.07935057,0.00987656,0.08064839,0.00298313,0.01230872,0.00045171,0.99620721,0.01659204,0.04286572,0.07388122
1761617937786,-0.07151539,0.14633361,-0.03163800,-0.00577206,0.00754637,0.02135760,0.99619650,0.01655798,0.04291025,0.07400723
1761617937796,0.11248046,-0.19193193,0.16075031,0.01318823,0.01732095,0.01125694,0.99618722,0.01662590,0.04299945,0.07406520
1761617937808,0.00670462,-0.04982177,-0.01111801,0.00333791,0.03471790,0.00272205,0.99617692,0.01664543,0.04320255,0.07408113
1761617937820,-0.11544020,0.00098814,0.01861945,-0.00763780,0.04040786,0.00089282,0.99616708,0.01660113,0.04343692,0.07408630
1761617937832,-0.22043094,0.05892239,-0.08612453,0.00090037,0.04941416,0.00575015,0.99615093,0.01660671,0.04374328,0.07412195
1761617937842,-0.40541535,-0.03493877,0.25233666,-0.02481975,0.05144408,0.01926353,0.99613499,0.01648634,0.04399279,0.07421538
1761617937853,-0.03221757,0.09608112,-0.14350531,-0.02166359,0.05232058,0.00537979,0.99612223,0.01636935,0.04427532,0.07424443
1761617937864,-0.00514000,-0.00868089,-0.07030713,0.00870364,0.05343355,0.01270156,0.99610296,0.01641766,0.04457188,0.07431493
1761617937875,-0.04384784,0.11380834,-0.02794053,-0.00339362,0.05031374,0.02327280,0.99608089,0.01639865,0.04485363,0.07444526
1761617937886,-0.01771725,0.11313866,-0.03700575,0.02406119,0.04823257,0.03332235,0.99605224,0.01653460,0.04512615,0.07463353
1761617937897,-0.04391118,0.71934912,0.08606993,0.02518881,0.05358390,0.00999215,0.99603242,0.01667314,0.04542086,0.07468848
1761617937908,0.11730950,0.21164262,-0.01108429,0.02288294,0.04941334,0.03622449,0.99600238,0.01680128,0.04569757,0.07489134
1761617937919,-0.01329705,0.16062067,0.02319911,0.01487431,0.03374911,0.05204263,0.99597061,0.01688383,0.04588488,0.07518018
1761617937932,0.06039132,-0.63697508,-0.15464960,0.03557026,0.03581259,0.02096349,0.99594735,0.01709903,0.04610155,0.07530701
1761617937942,-0.06461588,-0.03167546,0.01898721,0.05180710,0.04594982,0.04313300,0.99591367,0.01737620,0.04634738,0.07553777
1761617937954,-0.00791571,0.10093917,-0.14537372,0.04315718,0.04034495,0.03560323,0.99588374,0.01761788,0.04657331,0.07573715
1761617937965,-0.02505938,0.02620384,-0.07195530,0.06916322,0.02529174,0.01382380,0.99586481,0.01799482,0.04671115,0.07581249
1761617937975,0.16860490,-0.24131995,-0.02391145,0.07114922,0.03189907,0.01895523,0.99584148,0.01838614,0.04688659,0.07591674
1761617937987,0.02523492,0.00124020,-0.00875614,-0.00238244,0.01795589,0.01125398,0.99583226,0.01837292,0.04698625,0.07597920
1761617937997,-0.11106571,-0.07454021,-0.18317661,0.01498718,0.01188872,0.01153637,0.99582289,0.01845460,0.04705104,0.07604207
1761617938008,-0.06986824,-0.12719320,-0.20206140,0.03639083,0.02035367,0.01544719,0.99580766,0.01865111,0.04716095,0.07612549
1761617938020,0.08763131,-0.05725727,-0.07097639,0.03102666,0.01895391,0.02116424,0.99578982,0.01882951,0.04726994,0.07624718
1761617938031,0.08965028,0.06879128,0.16522298,0.00260364,0.02324130,0.04781923,0.99576354,0.01884370,0.04739660,0.07650780
1761617938043,0.11000619,-0.02541248,-0.01463534,-0.00600418,0.02388173,0.02971810,0.99574368,0.01880768,0.04753989,0.07668610
1761617938054,0.01048809,-0.10065561,-0.01829078,-0.00413567,0.01739869,0.03063958,0.99572576,0.01878390,0.04763994,0.07686228
1761617938064,-0.14780619,0.00190052,-0.02122243,-0.00545195,0.02709488,-0.00394860,0.99572158,0.01875827,0.04776728,0.07684372
1761617938075,0.07439373,-0.09935466,-0.13769265,0.00537631,0.02846486,-0.01710044,0.99572071,0.01878919,0.04793095,0.07674540
1761617938086,-0.14061739,-0.03109808,-0.01081672,-0.00785401,0.03705470,-0.01499622,0.99571793,0.01874403,0.04814402,0.07665917
1761617938125,0.12733091,0.03609665,0.00260236,0.00019384,0.01602650,0.01711685,0.99567736,0.01874777,0.04845333,0.07698952
1761617938143,-0.28560906,-0.64544178,0.17919700,-0.04735639,0.00846599,0.05790676,0.99564176,0.01832867,0.04852825,0.07750200
1761617938153,0.43461233,0.17714559,-0.14182677,-0.02997409,0.00659048,0.04568508,0.99562409,0.01816980,0.04856318,0.07774413
1761617938164,0.12068402,0.00557003,0.07002326,-0.01004515,0.01572715,0.01322734,0.99561551,0.01811656,0.04864654,0.07781423
1761617938176,0.03239038,0.23820362,-0.09321375,-0.03655593,-0.00945943,0.00483555,0.99561984,0.01790454,0.04859167,0.07784228
1761617938188,0.12662699,0.13238823,0.05735843,-0.00068535,-0.00048007,-0.01094056,0.99562536,0.01790029,0.04858870,0.07777445
1761617938199,-0.20295488,-0.01173683,0.18506940,-0.00975310,-0.01397972,-0.01509882,0.99563635,0.01784762,0.04851321,0.07769292
1761617938209,0.09423441,0.03990216,0.01030721,-0.01249445,-0.00477421,0.00126357,0.99563821,0.01778265,0.04848838,0.07769949
1761617938221,-0.01522327,-0.03186655,-0.10436669,-0.00321667,-0.01336971,-0.00352085,0.99564381,0.01776432,0.04841217,0.07767942
1761617938231,0.30088999,0.06065745,0.10852470,-0.03575254,-0.01520116,0.00138789,0.99565045,0.01757662,0.04833237,0.07768670
1761617938243,0.10882885,-0.06149545,-0.00375883,-0.03764356,-0.02533237,0.01618126,0.99565408,0.01735828,0.04818544,0.07778055
1761617938254,-0.01754013,0.07233971,-0.01958006,-0.01605632,-0.03239934,-0.00840179,0.99566808,0.01726837,0.04800400,0.07773350
1761617938265,-0.07337889,0.11364582,0.03112075,-0.01898431,-0.00921389,-0.03081614,0.99568570,0.01716300,0.04795287,0.07756247
1761617938276,-0.12209375,0.15512411,0.05278608,-0.01346511,0.00443259,0.01265986,0.99568028,0.01708760,0.04797769,0.07763337
1761617938287,0.09731031,0.02049499,-0.02071671,0.00162661,0.00636452,-0.00052866,0.99567868,0.01709647,0.04801238,0.07763049
1761617938299,0.21404530,0.64550668,-0.24315537,-0.01018955,-0.00325553,0.01526165,0.99567348,0.01703482,0.04799268,0.07772282
1761617938311,0.18575994,0.22410922,-0.11565504,0.01840984,-0.00420191,0.01209017,0.99566713,0.01714528,0.04796747,0.07779536
1761617938332,-0.19423219,-0.20339846,0.00844068,0.01032623,-0.00231302,-0.00568327,0.99567105,0.01725267,0.04794341,0.07773626
1761617938343,0.18050320,0.32070784,0.72908757,0.03728505,0.00045593,0.00606804,0.99566498,0.01745028,0.04794583,0.07776842
1761617938345,4.47359980,4.89960228,7.97572014,0.19828027,0.01941626,-0.00453780,0.99566070,0.01765848,0.04796622,0.07776365
1761617938354,-1.28049741,-1.47733976,-2.15554800,0.02288860,-0.00540828,0.00086907,0.99565968,0.01776720,0.04794053,0.07776778
1761617938365,0.06014844,-0.03236442,0.07522621,0.02052162,0.00301486,0.00111961,0.99565659,0.01787288,0.04795605,0.07777355
1761617938376,0.05502471,0.13974458,0.10521647,0.01729870,0.00270082,0.00076087,0.99565381,0.01796889,0.04797104,0.07777777
1761617938387,-0.03599462,0.01106815,-0.04180444,0.02741608,0.00630434,0.00795633,0.99564542,0.01813065,0.04800824,0.07782471
1761617938398,0.37794972,-0.15999493,-0.31449611,0.04990241,0.00704360,-0.00471378,0.99564054,0.01840511,0.04804698,0.07779879
1761617938410,0.03995898,0.07289504,-0.02495876,0.03679121,0.01906349,-0.00113255,0.99563175,0.01861850,0.04815755,0.07779222
1761617938420,0.05805021,-0.04023388,-0.09199013,0.04826550,-0.00040550,-0.00230673,0.99562810,0.01886706,0.04815546,0.07778034
1761617938432,-0.39527198,0.24453737,0.15076030,0.04861319,0.00659100,-0.01357606,0.99562696,0.01916117,0.04819533,0.07769820
1761617938444,-0.02376019,-0.01765570,-0.11171865,0.06306144,-0.00321990,0.00043743,0.99562079,0.01951432,0.04817730,0.07770065
1761617938455,0.05440634,-0.08267864,-0.05654458,0.05037149,0.01072409,0.01593852,0.99560534,0.01979640,0.04823736,0.07778991
1761617938466,-0.04896759,-0.07318262,-0.05611653,0.04893411,0.00648507,-0.00601845,0.99560085,0.02006309,0.04827270,0.07775711
1761617938476,0.03128964,-0.13772373,-0.08676616,0.02797440,0.00997358,0.00246406,0.99559458,0.02020436,0.04832307,0.07776955
1761617938487,-0.06843068,-0.17255250,-0.00366209,0.00584499,0.01028726,0.00400969,0.99558917,0.02023826,0.04838273,0.07779281
1761617938499,0.26411160,0.29082739,-0.07541504,0.00925456,0.00618125,-0.00538012,0.99558879,0.02029055,0.04841766,0.07776241
1761617938510,-0.00023340,-0.01026942,-0.09009082,-0.00223136,0.00536565,-0.00161738,0.99558828,0.02027794,0.04844797,0.07775327
1761617938521,0.07069853,0.01907031,-0.02092895,0.00640345,0.01285303,-0.00872090,0.99558787,0.02031252,0.04851738,0.07770618
1761617938531,-0.32751689,-0.49598824,-0.01736828,-0.00593264,0.00155213,-0.00067452,0.99558839,0.02028108,0.04852561,0.07770260
1761617938543,-0.06668994,-0.07363888,-0.04342490,0.00548438,0.00670618,-0.01528903,0.99559288,0.02031371,0.04856551,0.07761163
1761617938555,0.07958396,0.04681565,0.00532504,-0.01099502,0.01392620,-0.00786222,0.99559378,0.02025049,0.04864558,0.07756643
1761617938565,0.01473296,-0.18222008,-0.12943635,-0.00908638,0.00208642,-0.00063576,0.99559447,0.02020324,0.04865643,0.07756312
1761617938576,-0.08515228,0.00243285,0.02244130,-0.02199794,-0.00855058,-0.00332114,0.99560047,0.02008555,0.04861069,0.07754535
1761617938587,0.05672988,-0.01655510,0.00163522,-0.02408677,0.00650542,0.01039274,0.99559674,0.01994585,0.04864842,0.07760563
1761617938599,0.14528162,-0.26954450,-0.08482146,-0.01797100,-0.00479976,-0.00428781,0.99560189,0.01984611,0.04862178,0.07758183
1761617938610,0.10414776,0.03010282,0.04575441,-0.01483061,0.00674979,-0.00131485,0.99560228,0.01975935,0.04866127,0.07757414
1761617938622,0.03631956,0.12452599,0.03739873,-0.03067672,0.01039024,0.01880720,0.99559469,0.01958909,0.04871893,0.07767852
1761617938661,-0.15039651,0.09705791,0.06794560,-0.00440312,0.00128444,-0.00200054,0.99559828,0.01950103,0.04874462,0.07763851
1761617938689,0.08391254,0.08385502,-0.18677592,0.02917804,0.02519691,-0.00348359,0.99557736,0.01989639,0.04908604,0.07759131
1761617938699,0.38758170,0.35731139,-0.51762087,0.00980146,0.01863284,-0.05316323,0.99559352,0.01994883,0.04918572,0.07730688
1761617938721,-0.12416176,-0.09812185,0.42534316,0.01018766,-0.00141696,-0.00396777,0.99559542,0.02006090,0.04917014,0.07726324
1761617938733,-0.02961054,-0.01141196,-0.21381695,-0.00522783,0.00033113,-0.00371383,0.99559763,0.02003031,0.04917208,0.07724151
1761617938746,-0.01063949,-0.26146101,0.03973643,0.00816761,-0.00787685,0.00966075,0.99559421,0.02008340,0.04912088,0.07730431
1761617938766,-0.09438607,0.02468412,0.10524981,-0.00631806,-0.01209240,-0.00279985,0.99560385,0.02001864,0.04899693,0.07727561
1761617938777,0.27621665,0.02820528,-0.21841521,0.00196841,-0.01010524,-0.01655548,0.99561282,0.02002878,0.04894489,0.07719035
1761617938788,-0.08804517,-0.03974620,-0.01591727,0.01040081,-0.01428234,-0.01284250,0.99562108,0.02008650,0.04886562,0.07711907
1761617938799,0.21164704,-0.11102399,-0.16931763,0.01611975,-0.01477771,0.00333188,0.99562186,0.02017597,0.04878360,0.07713756
1761617938811,0.20037558,-0.06733712,-0.05953486,0.00969248,-0.01015308,0.00521682,0.99562125,0.02023267,0.04872421,0.07716808
1761617938813,20.02416768,-6.66171058,-17.32100788,0.08642270,-0.03290251,0.00247242,0.99562091,0.02031909,0.04869131,0.07717056
1761617938824,-3.86657377,1.11502918,3.16382093,0.00887724,-0.00950540,-0.00129281,0.99562304,0.02036836,0.04863855,0.07716338
1761617938833,-0.16467908,-0.00512207,-0.03753078,0.00920369,-0.00569622,-0.01615022,0.99562927,0.02041116,0.04861206,0.07708828
1761617938844,-0.04594961,0.06895138,0.21555533,-0.00600927,-0.00077086,-0.00649609,0.99563289,0.02037841,0.04860786,0.07705288
1761617938855,0.00098068,0.05367084,-0.04003621,-0.01624836,-0.00884939,-0.01528580,0.99564359,0.02028904,0.04855919,0.07696881
1761617938866,0.06759913,-0.11793678,-0.09454622,0.00377974,-0.00324717,-0.02136139,0.99565346,0.02031059,0.04854068,0.07684705
1761617938877,0.00819504,0.03304047,-0.01192380,0.00922112,0.00205032,-0.02198491,0.99566099,0.02035992,0.04855165,0.07672943
1761617938888,-0.16901246,-0.08151209,0.01206699,0.00669639,-0.01211979,-0.02763723,0.99567532,0.02039708,0.04848439,0.07657604
1761617938899,0.40055715,-0.44796608,0.32605739,0.00364035,-0.00158337,-0.02590945,0.99568638,0.02041729,0.04847560,0.07643224
1761617938911,-0.06561209,0.11605454,0.01560595,-0.01174055,-0.01439523,-0.00813218,0.99569577,0.02034684,0.04838923,0.07638345
1761617938922,0.14494799,-0.10708131,0.02231365,-0.01132981,-0.01330071,0.00282357,0.99569943,0.02028396,0.04831541,0.07639912
1761617938933,-0.39032572,0.46061533,-0.33916367,-0.01580225,-0.02020806,0.00162267,0.99570549,0.02020258,0.04821134,0.07640748
1761617938944,-0.03618607,0.14052189,0.05687288,-0.02698206,-0.01762873,0.01045542,0.99570879,0.02005283,0.04811350,0.07646550
1761617938955,-0.00989503,0.03324802,0.03382256,-0.02345942,-0.03049121,0.02592226,0.99570850,0.01991794,0.04793817,0.07661456
1761617938966,0.16759453,0.05764464,-0.00449754,-0.02256571,-0.02956601,0.01558038,0.99571206,0.01979834,0.04778147,0.07669713
1761617938977,-0.11330155,-0.00486838,0.02785631,-0.01945947,-0.04035122,-0.01552532,0.99573243,0.01968548,0.04754744,0.07660709
1761617938989,0.02556058,-0.05392299,0.04486209,-0.01106231,-0.00924452,0.00677927,0.99573320,0.01962353,0.04749567,0.07664505
1761617939000,0.08077798,-0.03730042,-0.08030281,-0.01184918,-0.01454482,-0.00517451,0.99574062,0.01955717,0.04741421,0.07661607
1761617939010,0.14634720,0.14938952,-0.00055315,0.02013639,-0.00534693,-0.01090168,0.99574435,0.01966490,0.04738561,0.07655775
1761617939022,-0.12603857,0.09047553,-0.06227929,0.02169788,-0.00795493,-0.00222874,0.99574504,0.01979075,0.04733947,0.07654482
1761617939033,-0.28505420,0.33297950,0.08157421,0.04124753,0.00559889,-0.01434330,0.99574510,0.02001142,0.04736942,0.07646809
1761617939044,0.04445210,-0.15906476,-0.00353802,0.03976973,0.00148696,0.00742338,0.99573694,0.02023612,0.04737783,0.07651003
1761617939055,-0.03969653,0.04904860,0.07533457,0.01808117,-0.00706107,-0.00344171,0.99573823,0.02033647,0.04733864,0.07649093
1761617939067,0.03419335,-0.14737167,-0.02903057,0.02898967,-0.00050781,0.00273868,0.99573378,0.02050172,0.04733574,0.07650654
1761617939078,0.06036515,0.07692344,0.01026683,-0.00600192,-0.00763356,0.00188226,0.99573566,0.02046870,0.04729376,0.07651689
1761617939089,-0.03363620,-0.25709968,-0.06043630,0.02113539,-0.01343485,-0.00067006,0.99573714,0.02059235,0.04721516,0.07651297
1761617939100,-0.10997696,0.17081189,0.28792104,-0.00277027,-0.01374816,-0.00345035,0.99574225,0.02057780,0.04714299,0.07649486
1761617939112,-0.00427956,-0.08319010,-0.02718265,0.01095723,-0.01374014,-0.01294189,0.99575054,0.02064190,0.04706261,0.07641915
1761617939122,0.02360256,-0.02141789,-0.10333758,0.01752894,-0.02072513,-0.00445565,0.99575575,0.02073744,0.04694965,0.07639486
1761617939133,0.07460801,-0.17469169,-0.36186806,0.01996247,-0.03034220,-0.02411347,0.99577119,0.02084523,0.04678581,0.07626465
1761617939145,0.06359606,-0.17733766,0.02542719,0.00348786,-0.01093998,0.00019887,0.99577360,0.02086494,0.04672400,0.07626577
1761617939156,-0.02637374,-0.05834897,0.09429194,-0.02372779,-0.00973191,-0.00217188,0.99577991,0.02073088,0.04666901,0.07625350
1761617939190,-0.06187568,0.06104828,0.10861041,-0.01328412,-0.00430171,0.00059774,0.99578726,0.02050438,0.04659567,0.07626369
1761617939200,0.91090230,-2.08889634,-1.34759285,-0.18847277,-0.03294323,0.01347853,0.99580875,0.01956202,0.04643095,0.07633109
1761617939211,-0.56573095,1.41289237,0.85284439,-0.05290846,-0.01666275,-0.00448374,0.99582079,0.01926573,0.04633764,0.07630598
1761617939222,0.05630700,-0.00950329,0.09123160,-0.03567197,-0.01232616,-0.00600696,0.99583042,0.01906597,0.04626861,0.07627234
1761617939234,-0.13306981,0.20494792,0.02627700,-0.04002348,-0.02634871,-0.01739604,0.99584965,0.01883383,0.04611579,0.07617144
1761617939245,0.09904157,0.01398915,0.02596767,-0.02184202,-0.00868996,-0.01148494,0.99585871,0.01871698,0.04606930,0.07611000
1761617939256,-0.09615693,-0.00603121,-0.00858112,-0.00890108,-0.02586721,-0.00463890,0.99586840,0.01866669,0.04592315,0.07608379
1761617939267,0.11062966,0.02287280,0.13396925,-0.01306936,-0.01019655,-0.00238231,0.99587347,0.01859284,0.04586554,0.07607033
1761617939279,-0.03118145,-0.06735559,-0.01652388,-0.01851108,-0.02067315,0.00010387,0.99588119,0.01848178,0.04574150,0.07607095
1761617939290,0.11127325,0.01400178,0.06454104,-0.04673123,-0.02532063,0.00922543,0.99588831,0.01822943,0.04560477,0.07612077
1761617939301,-0.21396486,0.20135616,-0.12295329,-0.03587222,-0.04075079,-0.00015379,0.99590170,0.01803931,0.04538879,0.07611995
1761617939303,5.40975969,-1.95609219,-4.95239037,-0.24258519,-0.08015306,-0.01668055,0.99591145,0.01778459,0.04530463,0.07610244
1761617939313,-1.14854292,0.69760091,1.15218785,-0.04300227,-0.03198651,0.00594463,0.99592035,0.01756743,0.04514310,0.07613246
1761617939323,0.01206098,0.04304414,0.12674804,-0.02967003,-0.01867682,0.03154808,0.99591490,0.01741315,0.04504598,0.07629651
1761617939334,0.03616681,-0.04000419,0.10582561,0.01335476,-0.00705932,0.00647358,0.99591266,0.01748593,0.04500750,0.07633179
1761617939344,0.00613109,0.24704395,-0.13175152,0.03350632,-0.01840270,0.00688169,0.99591119,0.01765681,0.04491365,0.07636689
1761617939356,-0.04895226,0.06817525,-0.00540532,0.01305496,-0.00095788,0.00436981,0.99590805,0.01773514,0.04490790,0.07639310
1761617939367,0.00505643,-0.00394796,0.00113667,0.04342611,0.00275188,0.00044571,0.99590304,0.01796747,0.04492262,0.07639549
1761617939378,-0.05190544,-0.07793209,0.02814840,0.03263470,0.00065841,-0.00957920,0.99590368,0.01815349,0.04492638,0.07634089
1761617939389,-0.05122241,-0.05818833,0.02864367,0.00740328,0.00571752,-0.02563295,0.99591216,0.01819347,0.04495725,0.07620247
1761617939401,-0.39107840,0.38213496,0.49112527,-0.02533761,0.01127762,-0.01532501,0.99591856,0.01804904,0.04502153,0.07611512
1761617939412,0.01026606,0.02980199,-0.01211253,-0.02010043,0.02464504,-0.01401576,0.99592034,0.01793648,0.04515955,0.07603663
1761617939423,-0.02322081,-0.07803342,-0.07189844,-0.02304859,0.01291278,0.00139286,0.99591877,0.01780626,0.04523250,0.07604450
1761617939435,0.40025125,-0.33579474,-0.35967928,-0.01591352,0.02464912,-0.01027318,0.99591846,0.01771396,0.04537547,0.07598491
1761617939445,0.05895216,-0.01529615,-0.08201290,-0.00928956,0.02238360,0.00652209,0.99591135,0.01766519,0.04549298,0.07601916
1761617939458,0.01011045,0.04721010,-0.00016795,0.01139111,0.01285102,-0.00141211,0.99590692,0.01773923,0.04557651,0.07600998
1761617939468,0.14114514,0.00671453,-0.10404920,0.03343684,0.00270751,-0.01181006,0.99590776,0.01789638,0.04558924,0.07595447
1761617939479,-0.17914220,-0.16324111,0.05068442,0.01204261,-0.00636276,-0.01883248,0.99591636,0.01796503,0.04555297,0.07584712
1761617939490,0.06749185,-0.04180548,0.03572824,0.00171304,0.00416608,0.00074825,0.99591489,0.01797410,0.04557505,0.07585109
1761617939501,0.03304605,-0.01040502,0.14053052,0.02021141,0.00848015,0.00191688,0.99590993,0.01808527,0.04562169,0.07586163
1761617939512,-0.00723888,-0.08125487,0.00398006,0.00058623,-0.00273795,0.01395446,0.99590467,0.01808852,0.04560650,0.07593908
1761617939525,-0.04726296,-0.02587893,0.02607137,-0.01332282,-0.00549163,0.00520320,0.99590530,0.01800126,0.04557053,0.07597316
1761617939535,0.06052608,-0.19298473,-0.18167079,-0.00879530,0.00455051,0.00293425,0.99590388,0.01795552,0.04559419,0.07598842
1761617939546,-0.11413812,0.02051493,-0.13582263,0.01071247,-0.01110520,0.02466757,0.99589579,0.01801069,0.04553700,0.07611546
1761617939558,0.02084307,0.12925932,0.11261511,-0.01033964,0.00746249,0.00199123,0.99589397,0.01794917,0.04558140,0.07612730
1761617939570,-0.02389846,-0.16401159,-0.02269501,-0.01639437,0.00001437,0.01823851,0.99588720,0.01784834,0.04558149,0.07623947
1761617939581,0.08647698,0.08812037,0.08989751,-0.02701788,0.00477923,0.01521814,0.99588201,0.01769299,0.04560897,0.07632698
1761617939591,-0.19659073,0.09981299,-0.05569536,-0.01442282,0.00875499,-0.02444887,0.99589004,0.01762592,0.04564968,0.07621329
1761617939602,0.00923761,0.41855868,0.19319272,0.00388351,0.02636945,-0.01054703,0.99588739,0.01764767,0.04579735,0.07615423
1761617939613,-0.04635625,0.09415428,0.10767790,0.00046947,0.02786610,-0.00565678,0.99588275,0.01765021,0.04594783,0.07612368
1761617939624,0.03794847,0.04123704,0.17573062,-0.01547525,0.03468888,0.00484391,0.99587340,0.01756509,0.04613861,0.07615032
1761617939635,-0.02307417,-0.27039463,-0.29378692,-0.03083485,0.03003344,0.02467409,0.99585750,0.01738625,0.04631281,0.07629343
1761617939692,0.00105604,-0.01162876,-0.01741178,0.00319683,0.00659124,0.00152088,0.99584392,0.01747672,0.04649934,0.07633647
1761617939696,4.85902308,6.83260787,1.61399994,0.11591396,0.27070579,0.06447457,0.99580846,0.01768537,0.04698661,0.07645252
1761617939736,-0.33264880,-0.53079613,-0.14833791,0.01560942,0.00658559,0.00548000,0.99578772,0.01800536,0.04712162,0.07656486
1761617939758,-0.02251693,-0.14262247,-0.06681755,-0.00472763,0.00421022,-0.00940644,0.99579439,0.01795359,0.04716772,0.07646186
1761617939780,-0.00149133,-0.02721673,-0.00062139,-0.00774071,-0.00472465,-0.01239013,0.99580877,0.01786883,0.04711598,0.07632619
1761617939791,0.09170577,-0.33122539,0.04259306,-0.01872162,-0.01344268,-0.00335135,0.99581552,0.01776586,0.04704205,0.07630776
1761617939814,-0.05338906,0.03174531,0.08643028,-0.01080161,-0.00937201,-0.00026516,0.99582285,0.01764489,0.04693708,0.07630479
1761617939824,0.49087669,-0.37293450,0.04282817,-0.04157741,-0.02484655,-0.00331361,0.99583417,0.01742660,0.04680664,0.07628739
1761617939848,-0.25657522,0.29647452,-0.10736945,-0.00674381,-0.01103467,0.00097957,0.99584078,0.01734703,0.04667643,0.07629895
1761617939858,0.63291906,-0.12512271,-0.35636735,-0.00028175,-0.03979038,0.00540545,0.99584797,0.01734563,0.04647947,0.07632571
1761617939868,-0.11226043,0.04329680,0.13532573,-0.02395515,-0.04630992,-0.00617638,0.99586441,0.01721627,0.04622939,0.07629236
1761617939880,-0.15373159,-0.03103998,0.07702575,-0.00868268,-0.02555770,0.01147962,0.99586704,0.01716591,0.04608116,0.07635894
1761617939891,-0.14200015,0.30775363,0.03275774,0.00239007,-0.01345514,-0.00435573,0.99587198,0.01717882,0.04600850,0.07633542
1761617939902,-0.08463292,0.30551814,-0.06067296,0.00393753,-0.01090490,0.00653604,0.99587161,0.01720146,0.04594580,0.07637300
1761617939914,-0.01085595,0.01972297,0.01359379,0.00523242,-0.00877752,-0.00177815,0.99587415,0.01723103,0.04589620,0.07636295
1761617939924,-0.00773889,-0.15330849,-0.02481047,0.00952307,-0.00723120,0.00074800,0.99587474,0.01728150,0.04585788,0.07636692
1761617939935,-0.06454254,-0.28765280,0.05777978,-0.00923778,-0.01342598,-0.00805061,0.99588269,0.01722884,0.04578135,0.07632103
1761617939947,0.06375382,0.06860870,0.01803578,-0.00061031,0.01800576,-0.00649047,0.99588085,0.01722533,0.04588488,0.07628371
1761617939958,-0.06871551,-0.05020409,-0.16393192,0.01358716,-0.00178335,0.00597878,0.99587761,0.01729734,0.04587543,0.07631540
1761617939969,-0.01537934,0.05788966,0.02094752,-0.00221668,-0.00535338,0.00873990,0.99587551,0.01728526,0.04584625,0.07636303
1761617939980,0.03127539,-0.08297975,0.04137812,0.00172309,-0.00379684,0.00106170,0.99587588,0.01729526,0.04582423,0.07636919
1761617939991,-0.07438891,-0.11275839,0.00224543,0.00046080,-0.00004240,-0.00770675,0.99587918,0.01729786,0.04582399,0.07632564
1761617940003,0.02364902,0.01470940,-0.05845393,-0.01207740,-0.00825435,-0.00809273,0.99588637,0.01722600,0.04577488,0.07627749
1761617940015,0.09825886,0.00305977,-0.05783415,-0.01022451,-0.00062226,0.02196422,0.99587780,0.01716670,0.04577127,0.07640488
1761617940025,-0.08412882,0.07973385,-0.21144758,0.01192823,-0.01368015,0.01187074,0.99587523,0.01722932,0.04569945,0.07646721
1761617940036,-0.04733827,0.13794822,-0.05322947,0.01910015,-0.00413788,0.01344386,0.99586918,0.01732769,0.04567814,0.07653644
1761617940047,-0.04576146,0.00676622,-0.00470871,0.02141020,-0.00389275,0.01022380,0.99586364,0.01744866,0.04565615,0.07659421
1761617940058,0.05811073,-0.08178131,-0.10112205,0.01706479,-0.00032892,0.00775624,0.99585901,0.01753825,0.04565442,0.07663493
1761617940069,-0.00948745,-0.14177327,0.06135959,0.00577287,-0.00928662,-0.00146484,0.99586146,0.01757057,0.04560241,0.07662672
1761617940080,-0.00622397,-0.03485559,0.03359915,-0.03455941,-0.01371453,-0.02064561,0.99587683,0.01738222,0.04552767,0.07651421
1761617940091,-0.04191686,0.01499911,0.02540441,-0.04985926,-0.01402516,-0.00982428,0.99588982,0.01709553,0.04544703,0.07645772
1761617940102,0.13866542,0.22094120,-0.19230530,-0.03051220,-0.00417253,0.00421722,0.99589199,0.01692467,0.04542366,0.07648133
1761617940114,-0.00458780,0.03171116,0.05318679,-0.05045075,-0.01103724,0.01276602,0.99589415,0.01663205,0.04535964,0.07655537
1761617940124,-0.04487625,-0.02543254,-0.09398076,-0.04296089,-0.00847768,0.00723369,0.99589694,0.01641080,0.04531598,0.07659263
1761617940136,-0.06184494,-0.27436149,0.14500988,-0.00842309,0.00018297,0.00209396,0.99589677,0.01636279,0.04531703,0.07660456
1761617940148,0.04894282,0.11445274,0.05536389,-0.00633793,-0.01192062,-0.00188739,0.99590143,0.01632540,0.04524669,0.07659343
1761617940158,-0.07526061,0.02444700,-0.12617313,-0.01517998,-0.02346545,-0.00891456,0.99591202,0.01624494,0.04512233,0.07654618
1761617940170,0.01450336,-0.07469748,0.08523751,-0.00737557,0.00505031,0.00050911,0.99591118,0.01620290,0.04515111,0.07654908
1761617940180,0.03267566,0.07529548,0.07436946,-0.01990281,0.01056036,0.00432029,0.99590859,0.01609742,0.04520708,0.07657198
1761617940192,-0.07950333,0.09952745,0.05983212,-0.03548428,0.00210927,-0.00292876,0.99591261,0.01589338,0.04521921,0.07655514
1761617940203,0.23941890,0.03673849,-0.24429244,0.00714918,-0.00417779,-0.00196799,0.99591388,0.01593342,0.04519582,0.07654412
1761617940215,0.04420983,-0.05105897,0.02794694,0.00372380,-0.00381850,-0.00213122,0.99591552,0.01595539,0.04517329,0.07653155
1761617940226,-0.01583864,-0.02418603,0.01391232,0.00006965,0.00207157,-0.02436625,0.99592600,0.01595580,0.04518551,0.07638778
1761617940236,-0.16225597,-0.16122046,0.06351431,-0.02487885,-0.00392266,-0.00435973,0.99593054,0.01583141,0.04516590,0.07636599
1761617940248,0.01828433,0.08233652,0.04981625,-0.03428136,-0.00474722,-0.00377208,0.99593640,0.01563943,0.04513931,0.07634486
1761617940289,-0.03970566,-0.00685106,0.12337738,-0.00178373,0.00038567,-0.00053202,0.99593745,0.01560277,0.04514724,0.07633393
1761617940317,0.09511562,-0.02315424,-0.31722673,-0.02983394,-0.00941351,-0.01795158,0.99596922,0.01518361,0.04501498,0.07608171
1761617940326,1.17641863,0.26931116,-1.65157648,-0.03677159,0.00592959,-0.02335164,0.99597906,0.01500894,0.04504314,0.07597079
1761617940347,-0.50231077,-0.00797464,0.78470021,0.00381507,-0.01046126,-0.01440904,0.99599510,0.01504938,0.04493225,0.07581805
1761617940360,0.05918935,-0.19108451,-0.17195448,0.00538278,-0.01774759,-0.02479492,0.99601124,0.01508276,0.04482222,0.07566432
1761617940381,-0.03518458,-0.03278028,0.18600231,-0.02282464,-0.00424704,-0.00284088,0.99601904,0.01484538,0.04477805,0.07563478
1761617940392,-0.17757187,-0.19986923,-0.08752652,-0.02471769,-0.00839798,0.00382524,0.99602155,0.01470820,0.04473144,0.07565601
1761617940403,-0.23316804,-0.05630096,0.15554039,-0.02155887,-0.00714278,-0.01094826,0.99602993,0.01458531,0.04469073,0.07559360
1761617940415,-0.00183316,-0.06231270,-0.09168020,-0.00186659,-0.00946623,-0.01254889,0.99603828,0.01457420,0.04463440,0.07551894
1761617940426,0.21845633,0.20081925,-0.02759288,-0.01069945,-0.00344786,-0.01276073,0.99604537,0.01451482,0.04461527,0.07544812
1761617940437,0.17403563,0.01079065,-0.17792704,-0.00289287,-0.00319286,-0.00646248,0.99604905,0.01449906,0.04459787,0.07541290
1761617940448,-0.16077243,0.01415602,0.04863069,-0.01265914,0.00152859,-0.01004337,0.99605377,0.01443070,0.04460612,0.07535866
1761617940459,0.00894274,-0.05212340,0.06770932,-0.02086325,0.00443757,-0.00467676,0.99605624,0.01431804,0.04463008,0.07533341
1761617940471,0.04510348,0.02452946,0.19697507,-0.02464092,0.00213353,-0.00342845,0.99605944,0.01416526,0.04464331,0.07531215
1761617940482,0.05376425,-0.05676020,-0.00793001,-0.03626720,-0.00020872,-0.00874653,0.99606618,0.01395854,0.04464212,0.07526230
1761617940493,-0.06925065,0.00078249,-0.05542898,-0.03671249,-0.02142340,-0.01685499,0.99608057,0.01376580,0.04452965,0.07517381
1761617940504,-0.28517035,0.14738223,-0.08875658,-0.01039775,0.00059602,-0.00111833,0.99608165,0.01371017,0.04453284,0.07516782
1761617940515,0.04085551,0.22887268,0.08170876,-0.00946834,0.00954729,-0.00371085,0.99608156,0.01365762,0.04458583,0.07514723
1761617940526,0.20069475,0.00889014,0.01371712,0.00981100,-0.00431401,0.01888429,0.99607410,0.01371109,0.04456231,0.07525015
1761617940537,0.05665867,0.20702264,0.23546032,0.00267508,-0.01452452,-0.01620928,0.99608457,0.01372634,0.04447952,0.07515776
1761617940549,0.04019364,0.04754595,0.10586128,0.00587058,-0.00718863,-0.00882319,0.99608991,0.01376097,0.04443711,0.07510570
1761617940560,-0.14910342,0.02005079,-0.12457909,0.02897346,-0.01707007,-0.02160385,0.99610064,0.01391743,0.04434493,0.07498904
1761617940571,0.19151706,0.00151848,0.04823537,0.03467919,-0.00028968,-0.00179839,0.99609875,0.01410990,0.04434333,0.07497906
1761617940582,-0.04761162,0.01928760,0.02798314,0.03212584,-0.01769906,-0.00069389,0.99610092,0.01429302,0.04424244,0.07497510
1761617940593,0.05797564,0.02549505,0.08070351,0.04042510,-0.02274053,-0.01969781,0.99611093,0.01450525,0.04412305,0.07487169
1761617940604,0.01098837,-0.10173571,0.15349162,0.01233443,-0.02337996,0.00081906,0.99611533,0.01457371,0.04399329,0.07487623
1761617940616,0.00340646,0.03636353,-0.00922932,0.02156972,-0.01624730,0.00476826,0.99611558,0.01470312,0.04389581,0.07490484
1761617940626,0.15613455,0.18572098,-0.16534040,0.04745988,-0.02057247,-0.00082155,0.99611687,0.01493805,0.04379398,0.07490078
1761617940637,-0.28000859,0.05891957,-0.12790569,0.04096323,-0.02372681,-0.01978128,0.99612727,0.01516130,0.04366467,0.07479297
1761617940649,-0.05657894,-0.11912355,0.05815485,0.02391005,-0.02286285,-0.01358285,0.99613745,0.01530835,0.04352406,0.07470943
1761617940660,0.08090310,-0.07201764,-0.09271502,0.04068281,0.00328619,0.01511671,0.99612705,0.01553007,0.04354197,0.07479182
1761617940671,-0.09005442,0.07962012,0.04791896,0.01583828,-0.00714240,0.02123415,0.99611840,0.01561956,0.04350161,0.07491179
1761617940683,0.04466271,-0.19496563,-0.11057935,0.04983413,0.01246710,-0.00634828,0.99611330,0.01591607,0.04357579,0.07487402
1761617940694,-0.14474053,0.10240268,-0.09894653,0.02442623,0.00949818,-0.00853749,0.99611241,0.01604675,0.04362661,0.07482835
1761617940704,0.09671552,-0.24143215,0.12745829,0.01971741,0.01525059,0.00039625,0.99610738,0.01614435,0.04370210,0.07483031
1761617940716,-0.02297071,-0.12779779,0.05117791,0.02505027,0.01276771,-0.01908402,0.99611035,0.01630467,0.04378381,0.07470817
1761617940727,0.03220175,-0.09931151,-0.11021535,-0.02081423,-0.00296256,-0.03191243,0.99612551,0.01619436,0.04376811,0.07453903
1761617940737,0.01418768,0.16827405,-0.29962367,-0.02838428,-0.00924144,-0.00935026,0.99613310,0.01605669,0.04372329,0.07449368
1761617940749,-0.02851531,0.02131527,0.05771183,-0.01218644,-0.01284963,0.00322622,0.99613626,0.01598235,0.04364491,0.07451336
1761617940760,-0.01660306,0.03822902,-0.13799674,-0.00655408,-0.00653560,-0.00804792,0.99614172,0.01594631,0.04360896,0.07446910
1761617940771,0.03891543,-0.15443022,-0.01551691,-0.01269161,-0.00794335,0.01195128,0.99613983,0.01587650,0.04356527,0.07453483
1761617940811,-0.02696155,0.01110605,0.18928064,-0.00730053,-0.00170101,0.00079130,0.99614248,0.01572903,0.04353091,0.07455082
1761617940839,0.10374909,-0.36825417,-0.23330400,-0.02548283,-0.00447999,-0.00047238,0.99615106,0.01538119,0.04346976,0.07454437
1761617940849,-0.11573959,0.76753419,-1.44672525,-0.01199684,0.01899333,-0.02838229,0.99615874,0.01531881,0.04356853,0.07439678
1761617940871,-0.09194339,0.12072261,0.72052988,0.00238003,0.00369253,0.00278067,0.99615428,0.01534499,0.04360914,0.07442737
1761617940883,0.04460941,-0.06139203,-0.11179634,0.00930295,0.00020355,0.00005696,0.99615334,0.01540081,0.04361037,0.07442771
1761617940905,-0.05285160,0.03732956,0.20659009,0.00628788,-0.00289449,-0.00132007,0.99615472,0.01546872,0.04357910,0.07441345
1761617940915,0.00448274,-0.06499970,-0.40302216,0.01684456,0.00078299,0.00198901,0.99615238,0.01555715,0.04358322,0.07442390
1761617940928,-0.01884702,-0.00754632,0.24313409,0.00503042,-0.00393081,-0.00779193,0.99615663,0.01558884,0.04355845,0.07437481
1761617940938,0.03532127,0.01851664,0.01018190,-0.00049001,-0.00146469,-0.01611616,0.99616332,0.01558627,0.04355076,0.07429020
1761617940949,0.00784368,0.07147225,0.03929977,-0.00342835,0.00126657,-0.00495182,0.99616523,0.01556844,0.04355735,0.07426445
1761617940960,-0.02713501,0.01882031,0.01499670,0.00633095,0.00032748,-0.00557934,0.99616691,0.01560358,0.04355917,0.07423348
1761617940971,0.01755213,-0.01382753,0.09332110,0.00304473,0.00266487,-0.00123075,0.99616649,0.01562139,0.04357475,0.07422628
1761617940983,-0.06502231,-0.02944735,-0.09341526,0.00967633,0.00123289,0.00210491,0.99616438,0.01567751,0.04358191,0.07423849
