UnixTime(ms),Ax,Ay,Az,Gx,Gy,Gz,QuatW,QuatX,QuatY,QuatZ
1755574764702,0.00000000,0.00000000,0.00000000,0.00000000,0.00000000,0.00000000,0.99639261,0.05172186,-0.00042415,0.06727886
1755574764710,-0.07800727,-0.19989363,0.02127471,-0.00309654,0.00570605,-0.01287679,0.99639684,0.05170916,-0.00040075,0.06722607
1755574764718,0.01812181,-0.23734537,-0.13853117,0.01723765,0.01341103,0.00026375,0.99639339,0.05177467,-0.00034979,0.06722707
1755574764729,-0.06668253,0.10191642,0.05620829,-0.00118558,0.01088056,0.01433778,0.99638842,0.05176815,-0.00028995,0.06730593
1755574764740,-0.01773361,-0.03275792,-0.08275686,-0.01239712,0.02824177,0.02418591,0.99638300,0.05169996,-0.00013462,0.06743895
1755574764751,-0.03560508,0.06022870,-0.08419264,-0.01462186,0.03344304,0.00711372,0.99638454,0.05161881,0.00005099,0.06747843
1755574764762,0.08715920,0.09981149,-0.10814131,0.00551087,0.00956384,-0.00194373,0.99638369,0.05164912,0.00010359,0.06746774
1755574764774,0.01950288,0.05934857,-0.06686701,0.00288643,0.01165141,-0.01644293,0.99638922,0.05166572,0.00017059,0.06737319
1755574764784,0.03507554,-0.04770373,-0.00756922,-0.00741048,0.01675614,-0.01113954,0.99639528,0.05162607,0.00026023,0.06731360
1755574764795,-0.05524864,-0.02322523,0.12181827,-0.00769944,0.02596830,-0.02870936,0.99640820,0.05158334,0.00040436,0.06715426
1755574764806,-0.02043182,-0.01289637,0.03315955,0.00453382,0.02359803,-0.00881680,0.99641011,0.05160828,0.00053415,0.06710577
1755574764818,0.06828547,-0.04997004,-0.10256643,-0.00575057,0.03014292,0.02188833,0.99640341,0.05157607,0.00070295,0.06722834
1755574764829,0.06937523,0.19135523,0.01505041,-0.04381072,0.02931018,0.01083692,0.99641163,0.05133730,0.00086269,0.06728740
1755574764840,0.09746697,0.09415341,0.04248085,-0.01259436,-0.00714733,-0.00788751,0.99641840,0.05126552,0.00082195,0.06724244
1755574764851,0.15271687,-0.00225969,0.15154565,-0.03187899,-0.03859266,-0.01186891,0.99643208,0.05108859,0.00060776,0.06717657
1755574764862,0.12582686,-0.08613762,0.10626585,-0.02923904,-0.04773294,-0.04468702,0.99645675,0.05092924,0.00034761,0.06693303
1755574764873,-0.02874183,-0.13625298,0.08141449,0.00233599,-0.05847700,-0.04583185,0.99647320,0.05094220,0.00002307,0.06667866
1755574764884,-0.14899952,-0.06409882,0.15093458,0.01903106,-0.03562318,-0.01974939,0.99647511,0.05104782,-0.00017464,0.06656905
1755574764895,-0.15034036,0.00898318,0.02082163,0.01512104,0.00146351,-0.00066211,0.99647102,0.05113250,-0.00016645,0.06656534
1755574764906,-0.21403131,0.12469682,-0.05971038,-0.00329861,0.00643838,0.00722571,0.99646929,0.05111419,-0.00013071,0.06660545
1755574764917,-0.08197580,0.15545758,-0.14016478,0.02814111,0.03577904,0.02679352,0.99645148,0.05126897,0.00006607,0.06675281
1755574764929,-0.10080401,-0.00423328,0.03718379,0.04496814,0.06861453,0.03018269,0.99642705,0.05152079,0.00045031,0.06692183
1755574764940,0.03201485,-0.03972917,0.14008443,0.00982944,0.04456387,0.02959967,0.99641304,0.05157534,0.00069764,0.06708611
1755574764951,0.07396337,-0.00876181,0.01850346,0.00156804,0.00530112,0.03913483,0.99639765,0.05158420,0.00072759,0.06730722
1755574764962,0.14483912,-0.21779144,-0.10328400,0.01387013,0.00675881,0.03119464,0.99638221,0.05165980,0.00076443,0.06747724
1755574764973,0.09290557,-0.12114735,-0.08359409,-0.01423418,-0.01581650,0.00885563,0.99638304,0.05158008,0.00067586,0.06752683
1755574764984,0.16282137,-0.18542225,-0.01496215,-0.00789232,-0.00022552,0.00319178,0.99638411,0.05153628,0.00067461,0.06754454
1755574764995,0.09522127,0.04145490,-0.08780699,-0.02785142,-0.02320856,-0.01334081,0.99639730,0.05138031,0.00054464,0.06746983
1755574765006,0.14386816,0.09894715,0.00732558,-0.05175241,-0.04476256,-0.02257512,0.99642065,0.05109309,0.00029621,0.06734454
1755574765018,-0.04063623,0.03483106,-0.11610352,-0.02519750,-0.03275034,-0.02179790,0.99643602,0.05095324,0.00011444,0.06722356
1755574765029,-0.03758356,0.03069159,0.04799589,-0.04835837,-0.02663386,-0.00824207,0.99645325,0.05067760,-0.00003737,0.06717658
1755574765040,0.01253321,-0.01927949,0.08336696,-0.02977705,-0.01520192,-0.01081545,0.99646546,0.05051531,-0.00012022,0.06711764
1755574765051,-0.09820752,-0.00610326,0.00467895,-0.00356532,-0.02108122,-0.00176481,0.99646714,0.05049499,-0.00024039,0.06710758
1755574765062,-0.09725399,0.02880504,0.08068638,-0.01398032,-0.00392398,0.01164297,0.99646673,0.05041950,-0.00026158,0.06717045
1755574765073,-0.04332381,0.13110023,-0.04418384,-0.00793559,-0.00431730,0.01023744,0.99646512,0.05037546,-0.00028554,0.06722727
1755574765084,-0.00303078,0.16791931,-0.06095805,-0.00612214,0.00325164,0.02857915,0.99645604,0.05034117,-0.00026733,0.06738731
1755574765095,-0.00950329,0.00000000,0.01520527,-0.01885719,0.00547618,0.00919805,0.99645790,0.05023557,-0.00023666,0.06743882
1755574765107,0.01845217,0.01875236,0.14291790,-0.01502939,-0.00145522,-0.00465340,0.99646384,0.05015216,-0.00024474,0.06741299
1755574765118,0.04257129,0.02273694,0.04644141,0.01462033,-0.00634172,-0.01051708,0.99646369,0.05023330,-0.00027993,0.06735462
1755574765129,0.08127246,0.00532141,-0.06579199,0.02735862,-0.01813914,0.00349245,0.99645468,0.05038514,-0.00038061,0.06737401
1755574765140,-0.03458856,-0.03047474,0.05239653,0.01875207,-0.01656690,-0.00957459,0.99645295,0.05049015,-0.00047338,0.06732039
1755574765151,0.03877028,-0.07132505,-0.03738810,0.01980261,-0.01418161,-0.00888677,0.99645067,0.05060006,-0.00055209,0.06727107
1755574765162,-0.01741553,-0.05466541,-0.01161035,0.01880763,-0.01117452,-0.01766756,0.99645194,0.05070444,-0.00061411,0.06717301
1755574765174,-0.02851215,0.02313773,0.00578654,0.00197032,-0.00391913,0.00068643,0.99645110,0.05071557,-0.00063625,0.06717689
1755574765185,-0.01741553,0.00958325,0.17987483,-0.00226778,0.00840908,0.00637252,0.99644938,0.05070299,-0.00058958,0.06721226
1755574765196,-0.02902588,0.02104376,0.09675293,0.00260192,0.00531073,0.00432615,0.99644704,0.05071743,-0.00056010,0.06723627
1755574765207,-0.00967529,0.00532141,-0.09288282,0.00314234,-0.00379107,-0.00023314,0.99644623,0.05073487,-0.00058115,0.06723498
1755574765218,0.04231105,-0.07261671,-0.11277239,-0.01352610,-0.00385302,0.00323306,0.99644885,0.05065912,-0.00060272,0.06725308
1755574765229,0.01342447,-0.01042038,-0.03327610,-0.02202997,0.01509447,-0.01298515,0.99645997,0.05053685,-0.00051895,0.06718101
1755574765240,-0.04837647,0.00580518,-0.03870117,-0.00950415,-0.01127117,0.00867361,0.99645936,0.05048411,-0.00058150,0.06722915
1755574765286,0.00962996,0.00077388,0.00686112,-0.00375392,-0.00426292,0.00856195,0.99645048,0.05039889,-0.00067827,0.06742351
1755574765308,-0.03806307,-0.00762238,0.00961550,-0.01771911,0.02129416,-0.02322680,0.99647845,0.05019867,-0.00043765,0.06716105
1755574765325,-0.05404184,0.07743461,-0.12516935,0.00866100,0.02536468,0.00728088,0.99647091,0.05026969,-0.00022966,0.06722075
1755574765338,-0.02537184,0.00924327,-0.05514524,0.01590934,0.00905465,0.02425623,0.99645432,0.05037787,-0.00016809,0.06738569
1755574765350,0.01011782,-0.13463891,0.07282439,0.01086771,0.00412799,0.01033027,0.99644677,0.05044362,-0.00014311,0.06744819
1755574765362,0.03207769,0.11425721,0.02038192,-0.00383366,-0.01871586,0.00000366,0.99644786,0.05042158,-0.00025073,0.06744821
1755574765374,0.04323588,-0.09318558,0.07387987,0.00300503,-0.02666575,0.01331382,0.99644138,0.05043991,-0.00041339,0.06752942
1755574765386,-0.01545675,0.15003923,0.02989906,-0.01008407,-0.03013236,0.00016430,0.99644431,0.05037890,-0.00059569,0.06753042
1755574765398,0.09635158,-0.12181350,-0.07410658,-0.00367987,-0.01788140,0.01360931,0.99643970,0.05035627,-0.00070566,0.06761412
1755574765410,-0.17915981,-0.03452093,-0.15562384,0.00086507,-0.00451217,-0.02189719,0.99644790,0.05036120,-0.00073138,0.06748930
1755574765422,-0.00907507,-0.14184380,-0.09432572,0.01060275,0.02356167,-0.01295764,0.99644998,0.05042322,-0.00059354,0.06741350
1755574765433,-0.14281776,-0.02481894,0.08011728,-0.01151052,0.03359257,0.00442364,0.99645173,0.05035589,-0.00039703,0.06743938
1755574765445,-0.07342918,0.04308849,0.15767753,-0.02916835,0.05769626,0.02975050,0.99644871,0.05018963,-0.00006816,0.06760896
1755574765456,-0.00345042,0.08152788,0.02101338,-0.00445385,0.03404145,0.01552734,0.99644389,0.05016380,0.00012928,0.06769901
1755574765468,0.12431460,0.02278738,-0.13309541,0.01192533,0.01522251,0.01802935,0.99643337,0.05023237,0.00021681,0.06780268
1755574765480,-0.02497872,0.07572204,-0.08660421,-0.03766943,0.02479751,-0.01705953,0.99645181,0.05000447,0.00036684,0.06769947
1755574765491,0.01907080,0.05463488,-0.09276158,-0.06003538,0.00945382,-0.01397326,0.99647450,0.04965926,0.00042120,0.06761913
1755574765503,0.02742498,-0.07645098,0.07327707,-0.03046031,0.02323039,-0.00578871,0.99648550,0.04948259,0.00055593,0.06758555
1755574765514,-0.04712905,-0.05150193,0.12474964,-0.02184368,-0.01450902,-0.01052067,0.99649579,0.04935808,0.00047323,0.06752558
1755574765526,0.13523859,0.14709469,0.10380794,0.01426526,0.00939960,-0.00436922,0.99649344,0.04943868,0.00052634,0.06750090
1755574765537,-0.03734334,0.10806230,-0.02614034,0.00648644,-0.00487386,-0.00052155,0.99649183,0.04947533,0.00049880,0.06749795
1755574765548,-0.03206727,0.07147532,-0.00708352,0.02896636,-0.01984058,-0.00578669,0.99648585,0.04964189,0.00038472,0.06746468
1755574765560,0.02153606,0.05564879,0.05857809,0.01395114,-0.02264976,-0.00556972,0.99648408,0.04972141,0.00025561,0.06743293
1755574765571,-0.02270082,-0.03225572,0.00039309,0.02195627,-0.03094167,-0.02016387,0.99648561,0.04984546,0.00008079,0.06731900
1755574765582,-0.01000789,-0.05664550,0.08403265,0.01999250,-0.02618879,-0.00562298,0.99648213,0.04995742,-0.00006586,0.06728752
1755574765593,-0.01710592,-0.05036745,0.06462238,0.03083522,-0.01244779,0.00988416,0.99646972,0.05013010,-0.00013557,0.06734287
1755574765605,-0.13874806,-0.04157690,-0.05321843,0.03052140,-0.01270324,0.02088730,0.99645318,0.05030102,-0.00020671,0.06745984
1755574765616,-0.05219733,-0.04107559,0.07345302,0.00424640,0.00421453,0.03655078,0.99643797,0.05032501,-0.00018290,0.06766635
1755574765627,-0.13817037,-0.02544015,0.07095235,-0.00207388,0.00194638,0.02273647,0.99642983,0.05031329,-0.00017190,0.06779481
1755574765639,-0.05414785,-0.09895986,0.05601502,0.01923440,-0.00313847,0.01562781,0.99641832,0.05042197,-0.00018963,0.06788311
1755574765650,0.03382499,-0.10460349,-0.00834271,0.01194316,0.02014318,0.00249232,0.99641400,0.05048885,-0.00007683,0.06789706
1755574765661,-0.11754818,0.08640650,-0.06641780,-0.01334746,0.02496538,0.00845316,0.99641456,0.05041343,0.00006422,0.06794482
1755574765672,0.04067072,0.01783339,-0.14206159,0.01368683,0.05052026,0.02235801,0.99640208,0.05049008,0.00034714,0.06807003
1755574765684,-0.07222502,0.11879114,-0.17866188,0.01368423,0.02325645,0.02808573,0.99638738,0.05056671,0.00047737,0.06822731
1755574765695,-0.03821741,-0.01615860,-0.06240564,-0.02781293,0.02021188,0.00329421,0.99639389,0.05041235,0.00058955,0.06824559
1755574765706,0.12483106,-0.09713685,0.03936190,-0.02961337,0.00715784,-0.00059948,0.99640255,0.05024504,0.00062999,0.06824220
1755574765717,0.17802272,-0.17892049,0.08675748,-0.01447936,-0.00624253,-0.00594933,0.99640894,0.05016395,0.00059503,0.06820889
1755574765728,0.10073489,-0.01710592,0.03801317,-0.02100622,-0.01989837,-0.01321223,0.99641998,0.05004632,0.00048360,0.06813490
1755574765740,0.01710592,-0.00498923,-0.04181448,-0.01286792,-0.02505524,-0.01262258,0.99642848,0.04997426,0.00034329,0.06806421
1755574765751,0.01710592,0.06390964,-0.00380132,-0.01617870,-0.03648656,-0.01407710,0.99643845,0.04988365,0.00013897,0.06798538
1755574765762,-0.06082107,0.01021604,0.04941712,-0.01509651,0.00040978,-0.01929935,0.99645005,0.04979911,0.00014126,0.06787731
1755574765773,-0.07412567,0.07412567,0.03041053,-0.01609277,0.00617334,-0.00593011,0.99645680,0.04970900,0.00017583,0.06784410
1755574765784,-0.18204880,0.07563694,0.09262483,-0.00898742,0.00460485,-0.00258803,0.99646033,0.04965822,0.00020185,0.06782947
1755574765796,-0.08848184,0.00764177,-0.10127378,0.00625581,0.00406493,0.00834197,0.99645544,0.04969294,0.00022441,0.06787577
1755574765807,0.03188312,0.00259414,-0.04249940,-0.00843225,0.00927597,0.01056947,0.99645375,0.04964572,0.00027636,0.06793496
1755574765818,0.06652304,-0.02257032,-0.00760263,-0.01539846,0.00584871,0.00588594,0.99645578,0.04955948,0.00030911,0.06796792
1755574765829,-0.05246194,0.00385724,0.11083508,-0.00597320,0.00081820,0.00255457,0.99645645,0.04952663,0.00031361,0.06798197
1755574765840,-0.05664306,0.02767651,0.05245042,0.00402152,0.00425145,0.00333348,0.99645403,0.04954935,0.00033763,0.06800081
1755574765851,-0.00899032,0.12675705,0.04599617,-0.00004728,0.02367539,0.01030197,0.99645009,0.04954909,0.00046903,0.06805798
1755574765863,-0.09719042,0.17100146,-0.05910876,0.00903248,0.02549695,0.01844415,0.99644043,0.04959967,0.00061181,0.06816127
1755574765874,-0.02771280,-0.01265779,-0.09903354,0.03989060,0.02249941,0.03681900,0.99641531,0.04982107,0.00073668,0.06836562
1755574765885,0.00085615,0.03392718,-0.08811520,0.00052182,0.02282539,0.02097908,0.99640699,0.04982399,0.00086451,0.06848310
1755574765896,0.05511909,-0.06485996,0.00380132,0.00374340,-0.00227773,0.01905597,0.99639861,0.04984495,0.00085175,0.06858981
1755574765907,0.06272172,-0.08647995,-0.04181448,0.00875197,-0.01272454,0.00849036,0.99639294,0.04989396,0.00078049,0.06863736
1755574765918,0.18016778,-0.07817983,0.13500490,-0.00330553,-0.01214646,-0.00440825,0.99639560,0.04987562,0.00071308,0.06861289
1755574765930,-0.08382067,0.00846113,-0.12844765,-0.00706001,-0.02460670,-0.01453514,0.99640333,0.04983573,0.00057405,0.06853077
1755574765941,0.05806259,0.16065188,0.01480159,-0.01931928,-0.01286821,-0.00402417,0.99641033,0.04972754,0.00050199,0.06850823
1755574765952,-0.09313226,-0.06842370,-0.11403950,0.00408058,-0.00581146,0.00324416,0.99640795,0.04975039,0.00046945,0.06852640
1755574765963,-0.01086743,0.04200546,0.04512833,-0.00816834,0.00710960,0.00803785,0.99640713,0.04970506,0.00050890,0.06857101
1755574765974,-0.01964014,-0.06610139,-0.04472540,-0.00516120,0.00836594,0.00145198,0.99640798,0.04967615,0.00055575,0.06857914
1755574765985,-0.08933094,-0.09930940,-0.21667505,-0.00118985,0.01262341,0.00449372,0.99640654,0.04966949,0.00062644,0.06860431
1755574765997,-0.00267412,0.03891983,-0.05397493,-0.03072868,0.01200764,0.00378885,0.99641347,0.04950048,0.00069249,0.06862514
1755574766008,-0.08665764,-0.07998237,0.07665098,-0.02821933,0.00853287,-0.00332350,0.99642272,0.04933963,0.00074112,0.06860620
1755574766019,0.11345364,-0.06710600,-0.16219515,0.00497082,0.01097808,-0.01573666,0.99642728,0.04936697,0.00080150,0.06851965
1755574766030,0.01539564,0.06214696,-0.03177579,-0.00203153,0.01935833,-0.01042740,0.99643180,0.04935549,0.00091088,0.06846073
1755574766041,-0.10839753,-0.03494451,-0.13730354,0.00682579,0.05072837,-0.00743390,0.99643246,0.04939338,0.00119242,0.06841948
1755574766053,-0.09025559,0.03327008,-0.06249912,-0.00893786,0.04202130,0.01890302,0.99642736,0.04934332,0.00142774,0.06852533
1755574766064,-0.04632047,-0.00768840,-0.01047005,-0.00562458,0.05792926,0.01616251,0.99642222,0.04931211,0.00174925,0.06861504
1755574766075,-0.00921220,-0.04155978,0.06359500,0.01493806,0.03760951,0.01618774,0.99641143,0.04939576,0.00195986,0.06870569
1755574766086,0.01330461,-0.07056194,-0.24708558,0.00826916,0.02169712,0.00083949,0.99640857,0.04944207,0.00208136,0.06871039
1755574766097,0.18323245,0.02480665,-0.03300885,-0.02649019,0.02920626,0.00330406,0.99641434,0.04929240,0.00224638,0.06872906
1755574766108,0.00237146,-0.16010384,-0.17227935,-0.02674171,-0.00157679,-0.01523512,0.99642740,0.04914532,0.00223771,0.06864526
1755574766120,0.01823034,0.12971295,0.20504891,-0.03336670,0.02486516,-0.02294378,0.99644527,0.04895680,0.00237820,0.06851563
1755574766131,0.03031021,-0.16754526,-0.08630704,0.01606505,-0.00583696,0.01369026,0.99643574,0.04904596,0.00234580,0.06859161
1755574766142,0.05427452,-0.02624288,0.03172682,-0.00625638,0.00860448,0.00659881,0.99643476,0.04900936,0.00239614,0.06863021
1755574766153,-0.20448387,-0.03598644,-0.05520611,-0.02308834,0.01374277,0.02196281,0.99643257,0.04888699,0.00246897,0.06874662
1755574766164,0.13498260,0.08774407,-0.08979714,-0.00774587,0.00743465,0.05869698,0.99641186,0.04884361,0.00251061,0.06907532
1755574766175,0.05798265,0.13652098,-0.01783018,-0.01054481,-0.00037591,0.00357817,0.99641336,0.04878509,0.00250852,0.06909518
1755574766187,-0.15059721,0.04407258,-0.06215666,-0.03478426,-0.00280990,0.00024571,0.99642282,0.04859030,0.00249279,0.06909655
1755574766198,0.06272172,0.02779713,-0.09123160,-0.01326175,0.00606156,0.00176897,0.99642567,0.04851603,0.00252673,0.06910646
1755574766209,-0.00340091,0.03659731,-0.11199669,-0.01088772,0.00033231,-0.00834199,0.99643192,0.04845452,0.00252861,0.06905933
1755574766220,0.12887414,-0.09849584,0.01967653,-0.01072295,0.01023124,0.01010193,0.99643080,0.04839608,0.00258437,0.06911438
1755574766231,0.05493583,0.05183102,0.18267405,-0.03217679,0.01458994,0.03946146,0.99642391,0.04821428,0.00266680,0.06933734
1755574766242,0.06639135,-0.13257721,0.04027662,-0.00747536,-0.00996636,0.02788979,0.99641528,0.04817279,0.00261149,0.06949213
1755574766254,0.14641918,-0.06438694,0.11671069,-0.01180450,-0.00737075,-0.00863999,0.99642195,0.04810668,0.00257021,0.06944375
1755574766265,0.08016344,-0.00072891,0.06918888,-0.02036786,-0.01648011,-0.00721912,0.99643066,0.04799059,0.00247628,0.06940260
1755574766276,0.05347739,-0.05708115,0.04314142,-0.02297861,-0.02895707,-0.03842479,0.99645181,0.04786421,0.00231701,0.06919126
1755574766287,0.06735242,0.04421190,-0.21923230,-0.00314586,-0.00582206,-0.00616038,0.99645513,0.04784659,0.00228441,0.06915676
1755574766298,-0.08011488,-0.00190698,0.03607502,0.00055698,-0.02180138,0.02063360,0.99644730,0.04784968,0.00216341,0.06927128
1755574766309,-0.01548047,-0.00338635,0.10836329,0.00427443,-0.01856332,0.02361740,0.99643726,0.04787340,0.00206038,0.06940236
1755574766321,-0.08459445,0.00470577,0.24902291,-0.00083345,-0.02894782,0.02650159,0.99642737,0.04786869,0.00189683,0.06955209
1755574766332,0.06483303,-0.06695431,0.06770993,0.00437170,-0.03496803,0.01102518,0.99642228,0.04789296,0.00170276,0.06961328
1755574766343,0.07022162,-0.09303808,0.13530632,0.01523561,-0.02479448,0.01334296,0.99641318,0.04797828,0.00156391,0.06968800
1755574766354,-0.03041053,-0.05868283,0.09503292,-0.02316177,-0.02679018,0.00266560,0.99641860,0.04784857,0.00141388,0.06970293
1755574766365,-0.05701975,-0.10216038,0.06082107,-0.03587234,0.00373592,0.00351309,0.99642682,0.04764769,0.00143480,0.06972260
1755574766376,-0.02177997,0.04559632,-0.07023074,-0.02817099,0.01588736,0.01618857,0.99642785,0.04749274,0.00152218,0.06981164
1755574766388,0.00618578,0.02340402,-0.09828131,-0.00394983,0.00951547,0.02290567,0.99641982,0.04747063,0.00157547,0.06993991
1755574766399,0.07222502,0.08362897,0.12164213,-0.01581034,0.02043586,0.01070153,0.99641964,0.04738209,0.00168991,0.06999984
1755574766410,-0.02072440,-0.03558158,0.08655692,-0.03959656,-0.00017340,0.00094809,0.99642961,0.04716431,0.00168896,0.07000505
1755574766421,0.09814510,0.02722245,0.21082015,-0.05271034,-0.00851871,-0.00848280,0.99644711,0.04686649,0.00164083,0.06995712
1755574766432,0.01636585,-0.00035953,0.08241793,-0.03949541,-0.02200048,-0.01597255,0.99646396,0.04664532,0.00151762,0.06986768
1755574766443,0.01650211,0.12141280,-0.00492600,-0.05057859,-0.02858856,-0.00979274,0.99648094,0.04636714,0.00136039,0.06981382
1755574766454,0.01420310,0.07295936,0.15308939,-0.02975107,0.00038315,-0.00615966,0.99649109,0.04620053,0.00136253,0.06977932
1755574766466,-0.08376703,0.13681347,0.11944254,-0.01899486,-0.01011710,0.01146897,0.99649161,0.04609226,0.00130486,0.06984470
1755574766477,-0.03996112,0.05017610,-0.00380253,0.02088846,0.00691955,0.01025703,0.99648228,0.04620715,0.00134292,0.06990111
1755574766488,-0.05795280,0.10178889,-0.04181448,-0.00304329,0.00883424,0.00091590,0.99648264,0.04619010,0.00139239,0.06990624
1755574766499,0.00188323,0.10294685,0.02090554,0.01059122,-0.00010201,0.00973372,0.99647612,0.04624889,0.00139183,0.06996026
1755574766510,0.13263616,0.01519807,0.10866577,0.01197434,-0.01483259,-0.00177363,0.99647380,0.04631654,0.00130802,0.06995024
1755574766521,0.20360927,0.01282833,0.16028451,0.00099525,-0.02665026,-0.01968724,0.99648139,0.04632206,0.00116012,0.06984098
1755574766533,0.02902588,0.02709082,0.23994728,-0.01101817,-0.03766369,-0.03755233,0.99649904,0.04626091,0.00095108,0.06963256
1755574766544,0.01958877,0.04502077,0.11540934,0.00847246,-0.05090343,-0.00090059,0.99649742,0.04630836,0.00066602,0.06962752
1755574766555,-0.08552962,0.07863974,0.06462238,0.03887295,-0.00198504,-0.02204277,0.99649590,0.04652605,0.00065491,0.06950408
1755574766566,-0.08633472,0.06099106,-0.08103058,0.04804195,-0.02986139,0.01380946,0.99647816,0.04679268,0.00048918,0.06958072
1755574766577,-0.00179988,0.13867291,-0.03266702,0.03598118,-0.00417761,0.00643971,0.99646607,0.04699597,0.00046557,0.06961711
1755574766588,0.07729960,-0.15205623,0.04099584,0.02108974,-0.00509055,0.01468989,0.99645485,0.04711302,0.00043732,0.06969863
1755574766600,-0.01548047,0.02056000,0.11223340,-0.00070653,-0.00403271,-0.00622417,0.99645746,0.04710910,0.00041494,0.06966409
1755574766611,-0.00049657,-0.04390135,0.05263625,0.02816432,0.00987734,-0.01799878,0.99645701,0.04726682,0.00047025,0.06956330
1755574766622,-0.16449334,0.11262516,0.17951765,0.01786267,0.01320515,0.00650773,0.99644981,0.04736507,0.00054288,0.06959909
1755574766633,-0.05511909,0.04120109,-0.04326589,0.04633186,0.01947795,0.01647760,0.99643093,0.04762452,0.00065196,0.06969136
1755574766644,-0.00950329,-0.02565889,-0.16725793,0.04379974,0.04127089,0.00153749,0.99641839,0.04786980,0.00088307,0.06969997
1755574766655,-0.10024295,-0.08565658,-0.05729156,0.01360228,0.05414359,0.00461621,0.99641266,0.04794530,0.00118357,0.06972559
1755574766667,-0.03940013,-0.09424526,-0.03445157,0.00026083,0.05602833,0.00885105,0.99640870,0.04794676,0.00149733,0.06977516
1755574766678,-0.07054326,0.02252961,0.07733324,0.00292921,0.05369790,-0.01520629,0.99641333,0.04796301,0.00179535,0.06969077
1755574766689,0.09842328,0.01354647,-0.05003355,0.00036528,0.05019566,-0.00416328,0.99641432,0.04796506,0.00207645,0.06966745
1755574766700,-0.03231119,0.07460084,0.11784082,-0.00008451,0.04729522,-0.01820873,0.99642088,0.04796459,0.00234130,0.06956548
1755574766711,-0.02026628,0.05183409,0.00124397,0.04503910,0.02556019,-0.00879571,0.99641187,0.04821455,0.00248316,0.06951667
1755574766722,0.02958863,0.05910448,-0.04684866,0.04094842,0.00590722,0.00518674,0.99639864,0.04844386,0.00251624,0.06954571
1755574766734,0.03231119,-0.03326152,-0.20527110,0.02680121,0.02920090,-0.02283203,0.99639982,0.04859395,0.00267977,0.06941785
1755574766744,-0.05626200,-0.03340006,-0.11245363,-0.00975122,0.04729905,-0.03016407,0.99641325,0.04854032,0.00293991,0.06925195
1755574766756,-0.09299403,0.01189639,0.01161129,0.01938890,0.04480993,-0.01879130,0.99641449,0.04864890,0.00319085,0.06914672
1755574766767,-0.04701733,-0.01357322,0.00901393,0.04655027,0.02829409,0.01759032,0.99639383,0.04891656,0.00335354,0.06924786
1755574766778,-0.05185957,0.08454944,0.11256994,0.02721301,0.02339609,0.01140929,0.99638155,0.04906759,0.00348338,0.06931118
1755574766789,0.05240978,-0.06168861,0.01833167,0.02240988,0.01310214,0.00755959,0.99637241,0.04918973,0.00355479,0.06935238
1755574766800,-0.01142471,-0.02999439,-0.00325387,0.02818655,0.01595240,0.00540145,0.99636236,0.04934475,0.00364253,0.06938209
1755574766812,-0.08633102,-0.01494158,-0.13986780,0.03794382,0.01170466,0.00533661,0.99634938,0.04955914,0.00370866,0.06941224
1755574766824,-0.17940002,-0.00926011,-0.17685056,0.03327513,0.01134472,0.01452434,0.99633309,0.04975879,0.00377673,0.06949939
1755574766834,-0.14024622,0.01437982,-0.09739321,0.02553396,0.03676792,0.03567275,0.99631315,0.04988901,0.00396425,0.06968132
1755574766942,0.08283857,-0.03971588,-0.03463707,0.00052842,0.00356415,0.00424780,0.99629485,0.04991757,0.00415689,0.06991092
1755574766945,-141.36334892,59.78350011,-6.40731084,0.54365733,1.38525458,0.53912275,0.99619319,0.05067869,0.00609624,0.07066569
1755574766988,9.00209011,-3.86408549,0.37191279,0.00428082,0.01515700,-0.01554536,0.99621014,0.05077094,0.00642288,0.07033068
1755574767012,-0.25938696,-0.27115935,0.07404900,0.00637543,0.03390108,-0.01473420,0.99621608,0.05084840,0.00683478,0.07015166
1755574767034,0.00096525,0.05463589,-0.11582979,-0.00687205,0.02878680,-0.01192889,0.99622674,0.05077419,0.00714567,0.07002283
1755574767050,-0.12517665,-0.04522089,0.10430813,0.00559008,0.03873554,-0.01377545,0.99622993,0.05081891,0.00745556,0.06991263
1755574767064,-0.10527769,0.15663807,0.17806902,-0.03688661,0.04778027,-0.00991864,0.99624560,0.05055701,0.00779480,0.06984221
1755574767075,-0.28303802,-0.08054271,0.22252359,-0.02954807,0.08491582,-0.00701961,0.99625303,0.05038859,0.00827882,0.06980219
1755574767087,-0.07818127,-0.04782701,0.29058027,-0.04267768,0.10174798,-0.02575895,0.99627181,0.05012825,0.00889948,0.06964506
1755574767100,-1.04729074,0.16544842,0.90342037,-0.03655449,0.11235711,-0.03378889,0.99629150,0.04989979,0.00960171,0.06943388
1755574767112,0.47981739,0.09071496,-0.64200825,-0.02783264,0.17667802,-0.03691194,0.99630448,0.04973279,0.01066178,0.06921241
1755574767124,-0.44913574,0.01313880,0.09483448,-0.02467903,0.18354175,-0.00924772,0.99630336,0.04958842,0.01173550,0.06915831
1755574767136,0.57046582,0.94967450,0.66907636,-0.00441043,0.25547740,-0.06231861,0.99631139,0.04956174,0.01328114,0.06878129
1755574767147,-0.97139685,-0.83083355,-1.23187157,0.08452072,0.18345985,-0.05352926,0.99629335,0.05005618,0.01435438,0.06846814
1755574767159,0.56397466,0.27631215,1.20597078,-0.00030405,0.31723537,-0.08573854,0.99629928,0.05005442,0.01619434,0.06797086
1755574767171,-0.75279948,0.36261504,0.28032408,-0.02506748,0.28816601,-0.09913868,0.99631749,0.04990527,0.01790893,0.06738098
1755574767183,-0.28375010,-0.33928786,0.00667647,0.00975300,0.33166967,-0.10084508,0.99631757,0.04996281,0.01986578,0.06678599
1755574767203,0.89498826,0.02205184,-0.46873031,-0.00295923,0.23117830,-0.01185763,0.99627737,0.04993263,0.02222380,0.06666505
1755574767205,-145.97326746,12.45947833,66.53860967,0.04413680,2.10404493,-0.31515704,0.99624867,0.04997456,0.02422264,0.06636565
1755574767214,26.00979821,-0.71585172,-11.34391851,-0.04998738,0.42833690,-0.07373221,0.99623286,0.04974461,0.02619299,0.06602648
1755574767226,0.69664065,-1.73755721,-0.48933555,0.07691686,0.47482876,-0.01098935,0.99613848,0.05019073,0.02894700,0.06596274
1755574767238,-0.10261902,0.74865976,0.04865252,0.05118713,0.40226985,-0.06681980,0.99607745,0.05049274,0.03132039,0.06556850
1755574767249,-0.10028385,-0.55825858,0.03443629,0.09071150,0.37888881,-0.03699070,0.99599396,0.05101433,0.03349900,0.06535581
1755574767261,-0.21788990,0.16883694,0.34515413,0.05894992,0.39987552,-0.08316595,0.99592722,0.05135624,0.03581828,0.06487345
1755574767273,0.50990190,-0.03729583,-0.08229486,0.04667330,0.40769565,-0.07566646,0.99584660,0.05165261,0.03840715,0.06439296
1755574767284,-1.65825951,0.52195864,1.42161809,0.04376524,0.49464966,-0.06055286,0.99575349,0.05187800,0.04095459,0.06408112
1755574767295,0.43576904,-0.35175723,-0.57686243,0.09295782,0.46621595,-0.03311702,0.99562270,0.05241716,0.04365865,0.06388904
1755574767308,0.19682503,-0.27954982,-0.24021674,0.13382379,0.47549042,-0.04743967,0.99546517,0.05324017,0.04658291,0.06359728
1755574767319,-0.71166736,0.47221553,0.80978695,0.11431545,0.52037491,-0.04643574,0.99530957,0.05386891,0.04944497,0.06334189
1755574767329,-0.37272942,0.09491074,0.61199766,0.06954728,0.56212309,-0.07722706,0.99516589,0.05423056,0.05236801,0.06294031
1755574767340,0.42924438,0.30065200,0.16619579,0.03334185,0.55914626,-0.07582195,0.99501558,0.05441394,0.05544332,0.06252329
1755574767352,-0.29418961,-0.33087069,-0.76588521,0.10728771,0.48338854,-0.11355136,0.99486234,0.05503620,0.05824697,0.06186469
1755574767363,-0.16020951,-0.15765932,0.02305389,0.14781242,0.59841486,-0.15499661,0.99466972,0.05585656,0.06156818,0.06100446
1755574767374,-0.19752008,0.57942708,-0.12482681,0.07936418,0.58303998,-0.16075785,0.99448543,0.05631688,0.06494981,0.06007206
1755574767386,-0.49580966,-0.66416539,0.18613344,0.11625434,0.66158040,-0.18693169,0.99426215,0.05696790,0.06865466,0.05902524
1755574767397,0.38583364,0.19861879,0.40293956,0.04566007,0.75399427,-0.18791097,0.99400882,0.05722360,0.07287703,0.05797294
1755574767408,-0.58536000,-0.29306488,-0.51423103,0.06004637,0.68669027,-0.22150726,0.99376060,0.05757487,0.07689416,0.05667712
1755574767419,-0.02389972,0.91728935,0.26887185,0.04458110,0.78640659,-0.25279987,0.99348584,0.05781561,0.08114076,0.05531201
1755574767431,0.11728576,-0.01465856,-0.28515792,0.06367445,0.76728108,-0.29304422,0.99319208,0.05817537,0.08547590,0.05365631
1755574767442,-0.40561394,1.30428051,0.80510541,0.01554061,0.82017084,-0.32405689,0.99287741,0.05826239,0.09006885,0.05184159
1755574767453,-0.37252903,-0.46661162,0.69183963,0.03938450,0.90741084,-0.30627184,0.99247846,0.05848295,0.09515035,0.05012646
1755574767464,-1.30780736,-0.25077692,-1.15072371,0.05571220,0.99691412,-0.35225941,0.99199791,0.05880051,0.10083276,0.04811859
1755574767475,-1.82659354,-2.02260098,-1.69633354,0.06412121,1.33981147,-0.34489030,0.99128379,0.05915638,0.10826872,0.04620444
1755574767487,-0.30369299,-0.20594723,-0.19753679,-0.15771230,1.59916439,-0.34417458,0.99038864,0.05825742,0.11738396,0.04424265
1755574767498,-1.18196439,-0.21299013,-0.10673376,-0.35826459,1.77581381,-0.33949692,0.98936829,0.05626905,0.12723972,0.04235844
1755574767509,-0.51859572,0.18818446,0.23994728,-0.53426411,1.83014860,-0.37905330,0.98826125,0.05330388,0.13739705,0.04025470
1755574767520,0.02672498,-0.67504133,1.43700084,-0.55772297,1.83007360,-0.39812844,0.98701132,0.05012486,0.14782847,0.03798536
1755574767532,-0.68343217,-1.61620683,-1.47970881,-0.30867665,1.82852963,-0.38000545,0.98560262,0.04841171,0.15797681,0.03587633
1755574767542,-1.71471639,0.33087854,0.10789292,-0.23183533,1.84882380,-0.47579970,0.98408714,0.04714821,0.16805290,0.03328323
1755574767554,1.32070389,0.41181101,-0.11483935,-0.27947140,1.80472820,-0.38695589,0.98243753,0.04556919,0.17824961,0.03109692
1755574767565,-0.64778809,0.55196463,0.49955356,-0.35103545,1.74026952,-0.34825313,0.98076860,0.04360339,0.18799512,0.02914671
1755574767576,0.01140395,-0.08077798,0.28890006,-0.33572937,1.68361229,-0.34445013,0.97905178,0.04172331,0.19742335,0.02721779
1755574767587,0.42954878,0.70276841,1.57374508,-0.34331100,1.64326725,-0.41756161,0.97729359,0.03980077,0.20662564,0.02487944
1755574767598,-0.54168762,0.55142849,0.71084621,-0.24742644,1.54578810,-0.57311994,0.97555539,0.03841518,0.21528206,0.02166997
1755574767610,-0.15933135,-1.05313193,-0.52001246,-0.02646185,1.46641282,-0.48012324,0.97378517,0.03826832,0.22342065,0.01900529
1755574767621,-0.47691113,0.48517300,-0.01301352,0.10393190,1.43414250,-0.50645044,0.97193583,0.03885034,0.23145185,0.01616916
1755574767632,-0.53788631,0.49773490,0.34972113,0.07829015,1.39749930,-0.35593043,0.97005234,0.03928876,0.23927784,0.01417595
1755574767643,-0.22047636,0.25801437,-0.01140395,0.10095696,1.33422478,-0.25770487,0.96817571,0.03985412,0.24674950,0.01273281
1755574767654,0.12019824,0.17693909,0.24454304,0.16687572,1.28249416,-0.21647072,0.96631018,0.04078028,0.25386734,0.01153139
1755574767666,0.20398687,0.49842410,0.47989054,0.22565715,1.11727142,-0.24571658,0.96460595,0.04204396,0.26012406,0.01015538
1755574767677,1.32475885,0.50533753,0.67663436,0.28648115,1.01509730,-0.26074843,0.96299793,0.04364825,0.26580861,0.00869519
1755574767688,-0.29270138,-0.00475165,-0.20146978,0.47515134,0.91228905,-0.33876620,0.96146399,0.04630910,0.27091743,0.00679810
1755574767699,0.73745543,1.12661522,0.92752126,0.40844530,0.91146580,-0.33640073,0.95990953,0.04859639,0.27602164,0.00491425
1755574767711,-0.25299321,0.04564066,0.27387560,0.28890368,0.84119998,-0.27414381,0.95841355,0.05027204,0.28090060,0.00332422
1755574767721,-1.40285570,-0.46425509,0.97050616,0.25451103,0.99871315,-0.15432015,0.95680814,0.05159549,0.28609390,0.00252176
1755574767732,1.13082109,0.31951450,-1.24224070,0.24128706,0.91423353,-0.07006942,0.95517478,0.05295877,0.29125932,0.00212586
1755574767744,-0.54198767,0.07676018,0.34844756,0.27881707,0.88986618,0.01520556,0.95356745,0.05450620,0.29619808,0.00221025
1755574767755,0.33939593,0.26691621,-0.13619672,0.24903028,0.84887099,0.05486987,0.95199622,0.05590077,0.30095176,0.00251753
1755574767766,1.02176281,0.43407297,0.26900771,0.22053804,0.85014263,0.08326058,0.95041765,0.05712476,0.30567005,0.00297962
1755574767777,-0.09628527,-0.45289528,-0.11677365,0.23773602,0.71933537,0.07390251,0.94901771,0.05846796,0.30973430,0.00339717
1755574767788,1.05928902,0.10300559,-0.09937247,0.17320577,0.74011287,0.07374744,0.94759307,0.05943792,0.31387893,0.00381016
1755574767799,0.03735354,0.20836435,0.14948328,0.06589558,0.69332113,0.10930774,0.94628413,0.05980364,0.31772686,0.00441681
1755574767811,0.45086867,-0.00967529,-0.44893361,0.03851476,0.63551957,0.12524795,0.94507547,0.06001739,0.32125399,0.00511194
1755574767822,0.58973887,-0.42119970,-0.68657925,0.02888029,0.56078114,0.15850947,0.94397686,0.06018057,0.32442241,0.00600752
1755574767833,0.21429490,0.07273809,-0.04411249,0.03077561,0.48388490,0.14565380,0.94303321,0.06035137,0.32710797,0.00681590
1755574767844,0.81087906,0.39615241,-0.12999818,0.02551794,0.41239935,0.08693336,0.94221616,0.06049427,0.32941740,0.00730272
1755574767856,0.90011060,0.35775842,-0.35878626,0.08058484,0.33531110,0.03839171,0.94151441,0.06095361,0.33132868,0.00752156
1755574767867,-0.76541755,-0.30321860,0.01975797,0.14895257,0.31377262,-0.03249533,0.94084728,0.06178029,0.33307012,0.00734121
1755574767878,0.18383058,0.85118393,-0.07353223,0.10534654,0.36048751,0.03465731,0.94009648,0.06236497,0.33507082,0.00753356
1755574767889,0.64333330,0.28328978,-0.39527191,0.15616960,0.34272229,0.09293555,0.93933400,0.06325513,0.33702434,0.00806329
1755574767900,-0.24550511,0.38928824,0.31077034,0.21230010,0.30527009,0.13682216,0.93864373,0.06442278,0.33870332,0.00881581
1755574767911,0.72038716,-0.69341728,-0.30063775,0.29494825,0.32377899,0.10181113,0.93787401,0.06605975,0.34050030,0.00938086
1755574767922,0.00802362,-0.02514037,0.70927353,0.27348549,0.26510138,0.14053999,0.93722809,0.06756392,0.34195836,0.01015383
1755574767933,0.02687972,-0.52923855,-0.47841687,0.25853922,0.27654957,0.12339102,0.93655438,0.06899881,0.34349321,0.01083865
1755574767945,0.40033240,-0.63979855,-0.24524400,0.21437650,0.26665828,0.13154222,0.93588985,0.07023147,0.34502649,0.01159502
1755574767956,-0.16191560,0.05221564,0.11651070,0.17641016,0.28870051,0.16776140,0.93521768,0.07120173,0.34661434,0.01251771
1755574767967,0.46360487,-0.12203623,-0.09358647,0.13877741,0.24364072,0.19262161,0.93464149,0.07197194,0.34796655,0.01358676
1755574767978,0.56920003,-0.54987233,-0.65697371,0.13516288,0.20556737,0.22016647,0.93413019,0.07273562,0.34912800,0.01483070
1755574767989,0.69768284,0.16962373,-0.02006981,0.08915077,0.16939123,0.25521112,0.93371604,0.07323040,0.35006813,0.01624712
1755574768001,0.35823128,-0.73233564,-0.57156734,0.09554935,0.08905919,0.24640116,0.93346174,0.07376548,0.35056686,0.01762697
1755574768012,0.19583830,-0.71139322,-0.15473558,0.05283557,0.06485465,0.21529655,0.93327993,0.07405872,0.35092680,0.01882186
1755574768023,0.24188234,0.02104376,-0.19350587,0.00359241,0.04469347,0.11522838,0.93317192,0.07407865,0.35117485,0.01946138
1755574768034,0.10217323,0.20213116,-0.26687982,-0.03455089,0.05290329,0.09353027,0.93306465,0.07388517,0.35147111,0.01998515
1755574768045,-0.18243111,-0.23709004,-0.24931158,-0.00443581,0.04792945,0.13017836,0.93295060,0.07386055,0.35173712,0.02070764
1755574768056,0.21332806,-0.18764189,-0.57882183,0.05141692,0.08360411,0.09899408,0.93273674,0.07415106,0.35220948,0.02126696
1755574768068,0.36528721,0.03786811,-0.28849572,0.04920093,0.06763433,0.14783580,0.93254913,0.07443150,0.35259500,0.02210962
1755574768079,0.16888145,-0.09116060,0.21148028,0.02014439,0.05243804,0.15917533,0.93241128,0.07454129,0.35288078,0.02297713
1755574768090,0.63313700,0.05878628,-0.14259075,0.00942379,0.02182217,0.15334164,0.93233989,0.07459359,0.35300190,0.02382817
1755574768101,0.37025421,-0.04442512,-0.56082301,0.05408546,-0.01409578,0.11167058,0.93232921,0.07489917,0.35292225,0.02445911
1755574768112,-0.10021206,-0.18020876,-0.10634261,0.05418224,-0.04260554,0.03937489,0.93238872,0.07519988,0.35268579,0.02467764
1755574768123,-0.30021108,-0.24758716,-0.21077970,0.03661969,-0.04319449,0.02624417,0.93245845,0.07540129,0.35244822,0.02482198
1755574768134,0.75477688,0.20797696,-0.31025529,-0.01582610,-0.01770391,0.05813452,0.93249468,0.07531187,0.35234820,0.02515044
1755574768146,0.13082584,-0.04596692,-0.03310173,-0.03254486,-0.02103350,0.08698110,0.93254061,0.07512962,0.35223041,0.02563754
1755574768156,0.18373816,-0.11480149,-0.04551619,-0.03453683,-0.02718263,0.10240521,0.93259517,0.07494485,0.35208498,0.02618541
1755574768168,0.48589353,0.23274405,-0.26442243,-0.02806745,-0.04718362,0.09624985,0.93269221,0.07478767,0.35182075,0.02672440
1755574768179,-0.68803831,-0.78259606,-0.60440934,0.03483491,-0.06970206,0.03189633,0.93281856,0.07498275,0.35143042,0.02690302
1755574768190,0.10898527,-0.18624724,0.18217195,-0.01943289,-0.01473879,0.00626496,0.93285704,0.07487490,0.35134862,0.02693779
1755574768201,0.56862217,0.52432699,0.04753358,-0.07756871,-0.01465167,0.03172479,0.93291755,0.07444051,0.35126657,0.02711545
1755574768212,-0.20907241,-0.36326332,-0.42574746,-0.00796723,-0.04774374,0.02021258,0.93301844,0.07439590,0.35099921,0.02722864
1755574768223,0.45995931,-0.28842490,-0.61961461,0.00081787,-0.06749289,0.04480150,0.93315282,0.07440048,0.35062125,0.02747953
1755574768235,0.18707871,-0.04927489,0.13991165,-0.05111005,-0.07954480,0.06125544,0.93333108,0.07411681,0.35017977,0.02781950
1755574768246,0.51403390,0.20658957,-0.18807956,-0.10371221,-0.09760837,0.05047898,0.93357344,0.07353603,0.34963317,0.02810218
1755574768257,-0.17866188,-0.35542311,-0.00760263,-0.10373740,-0.11071576,0.00711662,0.93384977,0.07295510,0.34901316,0.02814204
1755574768268,-0.25325080,-0.23393477,0.01554958,-0.10798167,-0.08874385,-0.02251564,0.93408407,0.07235580,0.34852063,0.02801707
1755574768280,-0.23630361,-0.01716967,-0.02551326,-0.09979990,-0.05799595,0.00057494,0.93425552,0.07177197,0.34818135,0.02802044
1755574768291,-0.41280148,-0.26043214,0.38501610,-0.07682938,-0.00667515,0.01973290,0.93429792,0.07135325,0.34814497,0.02812798
1755574768302,-0.00768276,0.22045222,-0.17288917,-0.02963456,-0.03458770,0.05413417,0.93437221,0.07119026,0.34795474,0.02842572
1755574768313,0.17528325,-0.18284245,-0.53528937,0.01426743,-0.03964622,0.06478737,0.93443883,0.07127158,0.34772876,0.02879501
1755574768324,0.48977353,0.09439776,-0.21835609,-0.01334941,-0.03451256,0.07786298,0.93450231,0.07119749,0.34753721,0.02922715
1755574768335,-0.00200590,-0.02349615,0.07363266,-0.02537451,-0.07141372,0.08440475,0.93464428,0.07105793,0.34714444,0.02969137
1755574768347,0.12338580,-0.17346195,-0.41288159,-0.02015251,-0.06423183,0.05309088,0.93477806,0.07094407,0.34678153,0.02999134
1755574768358,0.21114401,0.31355656,0.24672854,-0.07409372,-0.06653184,0.05288938,0.93493662,0.07053285,0.34641228,0.03028487
1755574768369,0.02748249,-0.24253299,-0.13095707,-0.06201601,-0.07254461,0.05533712,0.93510308,0.07018556,0.34600603,0.03059476
1755574768380,0.22963272,0.29285256,0.10117592,-0.04698477,-0.04971520,0.03309384,0.93521864,0.06992480,0.34573011,0.03077843
1755574768391,-0.35302588,0.31535945,0.01376693,-0.01534700,-0.07891812,0.02855896,0.93538304,0.06983885,0.34528817,0.03093836
1755574768402,0.03991383,-0.18911550,-0.07602633,-0.00760695,-0.02507911,0.02819754,0.93543282,0.06979626,0.34514772,0.03109627
1755574768413,-0.55379291,0.31261267,0.00788421,-0.05722982,-0.03642951,0.07055227,0.93551564,0.06948721,0.34495100,0.03147725
1755574768424,0.59704526,-0.15873984,-0.32838508,-0.05196516,0.00323894,0.09893350,0.93551164,0.06919101,0.34496947,0.03204117
1755574768435,-0.40521692,-0.04736919,-0.02277805,-0.05914218,-0.00077503,0.06849560,0.93552412,0.06886869,0.34496524,0.03241447
1755574768446,0.48275276,0.25862104,-0.01867598,-0.05992169,-0.00114998,0.08642061,0.93553416,0.06853612,0.34495886,0.03289411
1755574768458,0.18481591,0.05389973,0.12420867,-0.05272313,-0.01733548,0.08992230,0.93557404,0.06823824,0.34486091,0.03340217
1755574768469,-0.19008099,-0.21136877,-0.03743397,-0.02261841,-0.02929577,0.05970082,0.93563122,0.06811270,0.34469832,0.03373351
1755574768480,-0.10246088,0.49178825,-0.07260308,-0.03369513,-0.02156397,0.06922096,0.93567457,0.06792738,0.34457972,0.03411422
1755574768491,-0.01602369,-0.08368728,0.11118132,-0.02141164,-0.03247180,0.08711306,0.93573282,0.06780641,0.34439626,0.03460641
1755574768502,0.02496739,-0.05094941,-0.12637817,-0.02667393,-0.01101695,0.07937238,0.93574964,0.06765837,0.34433511,0.03504693
1755574768513,0.47602443,0.65017971,0.18963575,-0.05341784,-0.02116435,0.05340433,0.93580310,0.06736190,0.34421765,0.03534332
1755574768525,0.14831363,-0.40284132,-0.23765169,-0.01852171,-0.03802353,0.05242991,0.93587838,0.06725725,0.34400282,0.03563955
1755574768536,0.02703945,0.10581175,-0.05993545,-0.01659055,-0.00465814,0.02492218,0.93588922,0.06716517,0.34397696,0.03577787
1755574768547,0.15088830,0.03809236,-0.08027285,0.00320688,-0.00768267,0.02481139,0.93589842,0.06718313,0.34393394,0.03591681
1755574768558,-0.03981067,-0.04670210,-0.24993367,0.01544493,0.01374774,0.03361419,0.93585630,0.06727039,0.34401162,0.03610673
1755574768569,0.15357635,0.00584702,-0.01065516,0.02431194,-0.00156502,0.05770082,0.93583771,0.06740289,0.34400309,0.03642120
1755574768581,0.32798762,0.09191944,0.30529040,0.01468101,-0.00016261,0.05755955,0.93581936,0.06748584,0.34400217,0.03674641
1755574768592,-0.05974935,-0.06231671,-0.04854635,0.02072989,-0.02457487,0.03205265,0.93585480,0.06760297,0.34386332,0.03692751
1755574768603,-0.14563826,-0.05502057,-0.02134583,0.01221376,-0.02428378,0.00841449,0.93589680,0.06766953,0.34373097,0.03697337
1755574768614,0.37938231,0.14326559,-0.01965834,-0.00214078,-0.01212866,0.00082303,0.93592289,0.06765733,0.34366184,0.03697806
1755574768625,0.25185390,-0.23514394,-0.25222069,0.01957275,-0.01732665,0.00946039,0.93594848,0.06776694,0.34356481,0.03703104
1755574768636,-0.01944011,-0.11215468,0.11115804,0.00881683,-0.01728882,0.00983842,0.93597746,0.06781499,0.34347059,0.03708466
1755574768647,0.34468934,-0.09447181,0.02634590,0.01239494,-0.00988792,0.02357377,0.93598760,0.06788502,0.34341472,0.03721785
1755574768659,0.26503454,0.02230669,0.20936307,0.01846488,-0.02832206,0.04033830,0.93602889,0.06798750,0.34325753,0.03744173
1755574768670,0.13738917,0.05273035,0.19737598,0.01917700,-0.02250962,0.02328884,0.93606178,0.06809393,0.34313260,0.03757098
1755574768681,-0.43162943,0.02892986,-0.06844094,0.00727823,-0.02963654,0.00996498,0.93611888,0.06813578,0.34296219,0.03762828
1755574768692,0.84307482,-0.11955197,0.52275608,0.00731651,0.00383650,0.03152410,0.93610124,0.06817602,0.34298329,0.03780166
1755574768703,-0.05159570,0.03915855,-0.00594591,0.04381313,-0.01922499,-0.01020475,0.93612487,0.06841918,0.34287660,0.03774503
1755574768715,-0.02212004,0.13277073,-0.12713558,-0.00907520,0.01109848,0.00298755,0.93610496,0.06836791,0.34293930,0.03776191
1755574768725,0.01259085,0.06281216,-0.16099944,-0.00556798,0.01699559,0.01788139,0.93606930,0.06833756,0.34303193,0.03785936
1755574768737,0.12573199,0.11235994,0.05725916,0.00576206,0.01215358,0.04634189,0.93603046,0.06837070,0.34310181,0.03812583
1755574768748,0.14957917,-0.00242017,0.05894071,0.01061523,-0.00586766,0.04063149,0.93602889,0.06842908,0.34306954,0.03834930
1755574768759,0.21348975,-0.14782529,0.09626037,-0.02125259,-0.00606365,0.02067421,0.93604513,0.06831113,0.34303589,0.03846404
1755574768770,0.29333493,0.07326096,0.12790917,-0.01871564,-0.01644467,0.03005110,0.93607959,0.06820632,0.34294380,0.03863233
1755574768782,0.06803276,0.12706073,0.19208170,-0.00149980,-0.03622091,0.01334431,0.93615525,0.06819747,0.34273009,0.03871106
1755574768793,0.16461040,0.12335890,-0.00625786,-0.00814692,-0.01864790,-0.02124281,0.93619922,0.06815429,0.34263126,0.03859847
1755574768804,-0.02599957,0.12998889,-0.06720441,-0.01475305,-0.04680401,-0.02867921,0.93630772,0.06807168,0.34236916,0.03843787
1755574768815,0.01014727,0.09013918,-0.34004316,-0.00409262,-0.04566498,-0.04244638,0.93640883,0.06804958,0.34212256,0.03820866
1755574768827,0.04478393,-0.00689141,0.01029264,-0.00353460,-0.01539167,-0.02779860,0.93645335,0.06802713,0.34202483,0.03803214
1755574768837,0.34752940,0.26699500,0.04054086,-0.00589432,-0.02591867,-0.02694180,0.93650718,0.06799825,0.34189783,0.03790012
1755574768848,0.11029554,-0.03385205,0.31086323,0.03454588,-0.02858258,-0.02497393,0.93655540,0.06818480,0.34174348,0.03776526
1755574768859,0.03836514,0.02924902,0.21287373,0.03376755,0.00116185,-0.03053454,0.93654612,0.06837389,0.34174999,0.03759427
1755574768870,-0.13328573,0.06177489,0.17364655,0.01417512,0.02576920,-0.04346433,0.93649695,0.06845398,0.34189558,0.03734870
1755574768882,0.10082703,0.09779288,0.17924805,0.01312012,0.03952594,-0.02772312,0.93641620,0.06852811,0.34211890,0.03719206
1755574768893,0.00530090,-0.13198856,0.18919342,0.05877650,-0.00107999,-0.03944155,0.93640325,0.06885138,0.34211296,0.03697513
1755574768904,0.08259669,-0.18099852,0.11831050,0.03872127,0.03248960,-0.03853306,0.93632862,0.06907016,0.34229653,0.03675742
1755574768915,0.00122786,-0.02883366,0.14465187,0.03416074,0.01222411,-0.02779264,0.93629556,0.06926146,0.34236499,0.03660178
1755574768926,-0.01615428,0.11551177,-0.13393370,0.05835178,0.00669971,-0.02629073,0.93626364,0.06958531,0.34240217,0.03645587
1755574768937,-0.02709082,0.04668329,-0.03870117,0.06678846,-0.00106183,-0.01842358,0.93624215,0.06995599,0.34239628,0.03635362
1755574768949,0.01512237,0.05060275,-0.02980739,0.03926270,0.00279602,-0.02430533,0.93622509,0.07017782,0.34241207,0.03621629
1755574768960,0.11231903,-0.10787310,0.09226634,0.01892209,-0.01754203,-0.01846658,0.93625678,0.07028284,0.34231471,0.03611380
1755574768971,0.12535783,-0.30826195,0.12492976,0.00493013,-0.00996451,-0.01750910,0.93627888,0.07031045,0.34225891,0.03601575
1755574768982,0.29148549,-0.28737781,0.15259320,0.00321657,-0.02003982,-0.01157254,0.93632066,0.07032830,0.34214769,0.03595152
1755574768993,0.01870531,-0.10535827,0.02775519,0.01521586,-0.04012142,-0.00299295,0.93639765,0.07041427,0.34192101,0.03593461
1755574769005,0.02427317,0.02637374,-0.07095235,0.02885994,-0.02588675,0.01224157,0.93643611,0.07057733,0.34177475,0.03600378
1755574769016,-0.25106054,0.08217490,-0.03135205,0.05528970,-0.04322559,-0.00358457,0.93650064,0.07088142,0.34153701,0.03598406
1755574769027,-0.13792810,-0.01403911,-0.12610569,0.02535694,-0.01716407,-0.00109771,0.93652473,0.07102088,0.34144260,0.03597803
1755574769038,0.07093445,-0.06108245,-0.03152642,-0.01516039,0.00365039,0.00380569,0.93652292,0.07093750,0.34146268,0.03599896
1755574769049,-0.05320084,-0.15418392,0.08275686,-0.00719276,-0.01349561,-0.01470782,0.93655608,0.07089794,0.34138845,0.03591806
1755574769060,0.04378426,-0.14767251,-0.00331751,-0.02164491,-0.00104180,-0.00610135,0.93656869,0.07077673,0.34138262,0.03588390
1755574769071,0.03792683,0.04032331,0.03574291,-0.03520144,-0.01193352,0.00122411,0.93660800,0.07057784,0.34131520,0.03589081
1755574769083,0.14229707,0.06622869,0.10458667,-0.02915308,-0.03690706,0.02088091,0.93669110,0.07041458,0.34110852,0.03600775
1755574769094,0.06741136,0.08320989,-0.00099797,0.00135299,-0.02294957,0.00069850,0.93673840,0.07042236,0.34097656,0.03601176
1755574769105,-0.01834317,0.04937059,0.03391354,-0.01550182,-0.01328580,-0.02476441,0.93677593,0.07033865,0.34090481,0.03587803
1755574769116,-0.25372728,0.05478969,-0.10891809,-0.01892654,-0.01415485,-0.01470565,0.93681623,0.07023172,0.34082484,0.03579495
1755574769127,0.06106841,0.05381925,-0.01277082,-0.00892564,-0.00369813,-0.01726539,0.93683067,0.07018352,0.34080487,0.03570171
1755574769138,0.01632042,0.02231524,0.06448642,-0.00382797,-0.00332823,-0.01434538,0.93684222,0.07016189,0.34078606,0.03562066
1755574769150,0.03174184,0.06745141,0.11576437,0.00888583,-0.03889887,-0.01153356,0.93692085,0.07021210,0.34056629,0.03555550
1755574769161,0.12415199,0.01460070,0.04623592,0.02365798,-0.03655203,-0.00522076,0.93698581,0.07034340,0.34036342,0.03552652
1755574769172,0.07546729,0.14972516,0.03096094,0.02130794,-0.04137736,-0.00882499,0.93706217,0.07046166,0.34013378,0.03547754
1755574769183,0.04749933,0.20935709,-0.07660852,0.01840895,-0.05272047,-0.03554419,0.93716904,0.07056475,0.33983854,0.03527850
1755574769194,0.05850097,0.12473138,-0.01558413,0.00283740,-0.02899933,-0.03312254,0.93723310,0.07058050,0.33967760,0.03509467
1755574769205,-0.01741553,-0.06143811,0.10836329,-0.00349321,-0.01897151,-0.04075998,0.93728116,0.07056111,0.33957230,0.03486845
1755574769216,-0.12708002,-0.11353159,0.20705664,0.01178156,-0.02030042,-0.02447758,0.93732320,0.07062826,0.33945659,0.03472893
1755574769228,-0.22747124,0.10813413,0.53815000,0.03746933,-0.02054377,-0.01544071,0.93735196,0.07083622,0.33934257,0.03464323
1755574769239,0.05178010,-0.07310685,-0.43691169,0.04474612,-0.01224533,0.01360465,0.93735499,0.07108680,0.33927400,0.03471942
1755574769250,0.18718814,0.09456168,-0.00858532,0.04399493,-0.01338420,0.00978394,0.93736126,0.07132877,0.33920039,0.03477323
1755574769261,-0.24086524,0.04041059,0.14908073,0.02869154,-0.03043982,-0.01536995,0.93741387,0.07148944,0.33902992,0.03468716
1755574769272,-0.16345662,-0.12781927,0.06082107,0.01399452,-0.00973107,-0.03016525,0.93743384,0.07156781,0.33897543,0.03451823
1755574769283,0.18626451,0.03207361,-0.04941712,0.01285589,0.01248913,-0.02929954,0.93740907,0.07163980,0.33904537,0.03435415
1755574769295,-0.20155709,-0.11818976,0.15197122,0.03546579,0.01298779,-0.01310256,0.93737060,0.07183664,0.33911745,0.03428143
1755574769306,0.22066472,0.09456417,-0.01756825,0.04522455,0.02035439,0.02066054,0.93730567,0.07208990,0.33923144,0.03439713
1755574769317,-0.24328426,-0.26585458,-0.02660922,0.06428094,0.00613511,0.02208687,0.93726093,0.07244987,0.33926579,0.03452082
1755574769328,0.29840336,0.29365171,-0.01140395,0.02820689,0.00684249,0.01352390,0.93723204,0.07260783,0.33930411,0.03459655
1755574769339,-0.19893094,0.11624174,-0.12968349,0.01645066,-0.02385149,-0.00361643,0.93727362,0.07269913,0.33917173,0.03457648
1755574769350,-0.06513607,-0.19978316,-0.06154023,0.00643169,-0.02205219,-0.03729989,0.93732319,0.07273515,0.33904824,0.03436760
1755574769361,-0.19521049,0.29673894,0.19345120,-0.02589723,-0.00631396,-0.06553342,0.93735993,0.07259271,0.33901352,0.03400717
1755574769373,0.17271800,-0.33824375,-0.09116248,0.01693040,0.01069791,-0.02304214,0.93733559,0.07268752,0.33907342,0.03387813
1755574769384,-0.29650270,0.02043208,0.01900658,0.05490121,0.02719906,0.02472120,0.93725157,0.07299497,0.33922574,0.03401657
1755574769395,-0.02280790,-0.07460084,0.07602633,0.06942745,0.01900966,0.04501681,0.93717349,0.07338376,0.33933219,0.03426867
1755574769406,-0.02830023,-0.12128023,-0.08707764,0.06137754,0.02127270,0.04428094,0.93709497,0.07372441,0.33945026,0.03451443
1755574769417,-0.19432947,0.00995919,-0.23301044,0.03647257,-0.00345698,0.00941858,0.93708395,0.07392866,0.33943090,0.03456717
1755574769428,0.08965196,-0.04004232,-0.14416187,-0.02006947,-0.00030494,0.00111712,0.93709312,0.07381727,0.33942920,0.03457337
1755574769440,0.01587933,-0.01772127,-0.12259382,-0.01813437,-0.00821734,-0.01324415,0.93712075,0.07371481,0.33938278,0.03449854
1755574769451,-0.03074693,-0.00587017,-0.11736986,-0.04956436,-0.02145478,-0.02711639,0.93719163,0.07343725,0.33926263,0.03434669
1755574769462,-0.04512833,-0.00143402,-0.03928860,-0.04922170,-0.03373677,-0.02822343,0.93728648,0.07316407,0.33907539,0.03419005
1755574769473,0.08707764,0.13908234,0.05805176,-0.01834454,-0.02502322,0.00351520,0.93734394,0.07306226,0.33893651,0.03420956
1755574769484,-0.02902588,-0.10667011,-0.07740235,0.01592502,-0.03027705,0.00993848,0.93739577,0.07315064,0.33876847,0.03426472
1755574769495,0.04063623,0.14246869,0.06192188,0.00936327,-0.02016460,0.00203638,0.93743174,0.07320261,0.33865656,0.03427602
1755574769507,-0.10233834,0.02050238,-0.06078818,0.02360991,-0.02493663,-0.01318187,0.93747530,0.07333718,0.33851442,0.03420088
1755574769518,-0.16993849,-0.01126499,-0.00456304,-0.01245769,0.00103312,-0.02889974,0.93748439,0.07326867,0.33852010,0.03404193
1755574769529,-0.03222752,0.02179360,-0.02592979,0.01525061,-0.00338083,-0.02600019,0.93748978,0.07335331,0.33850134,0.03389763
1755574769540,-0.08838917,0.06849219,0.04698564,0.04764618,-0.04027742,-0.00898821,0.93755209,0.07362013,0.33827579,0.03384730
1755574769551,0.00543479,-0.02317288,0.09802628,0.04354408,-0.01713864,-0.00321375,0.93756833,0.07386615,0.33817895,0.03382914
1755574769562,-0.00148982,-0.05471036,0.05017453,0.05330707,-0.02674210,0.01453193,0.93759558,0.07416200,0.33803054,0.03390979
1755574769588,-0.07321630,-0.04108051,-0.21088190,0.02170590,-0.00973113,0.00538070,0.93761621,0.07444310,0.33790452,0.03397947
1755574769591,4.65643308,2.76609996,13.57321747,0.19222366,-0.03330858,0.09347636,0.93760551,0.07475065,0.33785122,0.03412903
1755574769603,-1.11388193,-0.77779183,-3.43208670,0.00839218,0.01266406,0.01242715,0.93757339,0.07479807,0.33792278,0.03419925
1755574769614,0.00847720,0.05463750,0.19605460,0.00167355,0.00785647,0.01899279,0.93755198,0.07480786,0.33796874,0.03431036
1755574769626,-0.06425641,-0.09414435,0.00084672,0.03348243,0.00882235,0.01849922,0.93751474,0.07499871,0.33801902,0.03441580
1755574769638,-0.09588407,-0.06001348,-0.25511029,0.02969723,0.00940128,0.00686877,0.93747952,0.07517244,0.33807402,0.03445598
1755574769649,-0.10421027,0.02025557,-0.13389344,0.01543260,-0.00060129,0.03354674,0.93746676,0.07525963,0.33807062,0.03464552
1755574769660,0.04393188,0.06926251,-0.19985269,-0.00369407,-0.01213581,0.03543857,0.93748591,0.07523858,0.33800145,0.03484752
1755574769672,0.06210788,-0.00592498,-0.09339112,-0.01889244,-0.02210433,0.01206893,0.93753695,0.07513183,0.33787656,0.03491571
1755574769683,0.12959326,0.04804906,0.02689822,-0.05580875,-0.02736934,0.00659368,0.93761790,0.07481093,0.33771919,0.03495363
1755574769694,0.12078270,-0.08060444,0.00191719,-0.02909017,-0.04184443,0.01050146,0.93771305,0.07464803,0.33748486,0.03501243
1755574769706,-0.04621239,-0.04882976,0.00060016,0.00275350,-0.03872165,-0.01644927,0.93779399,0.07466359,0.33726608,0.03491950
1755574769717,-0.09335836,0.08448932,0.04481201,0.00506373,-0.03259802,0.00472617,0.93785694,0.07469220,0.33708190,0.03494620
1755574769728,-0.15976851,0.08471822,-0.08786375,0.02380277,-0.02588497,0.00065115,0.93789900,0.07482787,0.33693436,0.03494991
1755574769739,-0.15652088,0.10967132,-0.10083493,0.03295666,-0.01722825,-0.01266888,0.93792155,0.07501243,0.33683788,0.03487896
1755574769751,-0.03991382,0.14825135,0.02660922,0.03032750,-0.01280024,-0.01312247,0.93793642,0.07518226,0.33676620,0.03480548
1755574769762,-0.03801317,0.04799162,0.08743028,0.02912789,-0.02117972,-0.02385096,0.93797086,0.07534538,0.33664759,0.03467191
1755574769773,-0.02665889,-0.02000281,0.06102346,0.04838374,-0.01057644,-0.01957131,0.93797432,0.07561391,0.33658889,0.03456329
1755574769784,0.04070761,-0.03713728,-0.15243486,0.05660148,-0.00667514,-0.00379423,0.93796281,0.07593371,0.33655118,0.03454185
1755574769796,-0.00894823,-0.05674642,-0.03592749,0.03052929,0.01652168,0.01655463,0.93791233,0.07610467,0.33664370,0.03463456
1755574769807,-0.08078870,-0.05079097,0.07919919,0.02410806,0.00739015,0.02792506,0.93788101,0.07623847,0.33668471,0.03478954
1755574769818,-0.08168436,-0.09295044,0.09224815,0.05424783,0.00238224,0.03417414,0.93784403,0.07654497,0.33669817,0.03498263
1755574769829,0.04464024,0.04409569,-0.04992172,0.03275286,0.01069108,0.03143149,0.93780096,0.07672839,0.33675804,0.03515864
1755574769840,-0.04237803,-0.05420828,0.03454259,0.02024888,-0.00391768,0.02409983,0.93779443,0.07684279,0.33673591,0.03529481
1755574769852,0.03921051,0.02684053,-0.14937338,0.03660915,-0.00710058,0.00017068,0.93779182,0.07704964,0.33669579,0.03529577
1755574769863,0.09072565,-0.05919487,-0.13621926,0.01161825,-0.00641311,0.01420109,0.93779629,0.07711354,0.33666052,0.03537388
1755574769874,0.04531923,-0.05960464,-0.10246088,-0.01105027,-0.01326600,0.02027628,0.93782327,0.07705276,0.33658756,0.03548540
1755574769885,0.07293093,-0.05885690,-0.09243381,-0.00648242,-0.01710835,0.01120771,0.93785919,0.07701549,0.33648918,0.03554984
1755574769896,0.07417890,-0.04981904,-0.03922704,-0.02059969,-0.02080967,0.00727386,0.93790758,0.07690322,0.33637577,0.03558949
1755574769907,0.00570197,-0.13618914,-0.04882425,-0.03042853,-0.02683566,0.00334112,0.93797471,0.07673282,0.33622549,0.03560820
1755574769918,-0.02660922,0.06319689,0.03801317,-0.02590136,-0.02568305,0.01951123,0.93803395,0.07658777,0.33608166,0.03571746
1755574769930,-0.06787126,0.01304812,-0.07786780,-0.00224239,-0.02759245,0.00481357,0.93809275,0.07657443,0.33591749,0.03574610
1755574769941,-0.01755463,0.02224540,-0.20531284,-0.00809523,-0.00698343,0.00177878,0.93810899,0.07653193,0.33588083,0.03575544
1755574769952,-0.09936453,-0.02377383,0.01294835,-0.00347458,-0.01542103,0.00815368,0.93813920,0.07651282,0.33579601,0.03580028
1755574769964,-0.06129130,0.04441482,-0.00281835,-0.00070312,-0.01452448,0.00071382,0.93816979,0.07650870,0.33571104,0.03580446
1755574769974,-0.04670031,0.10739030,-0.06525348,0.00357007,0.00361369,0.00128043,0.93816113,0.07652763,0.33573020,0.03581125
1755574769986,0.02943985,0.12035516,-0.07711166,0.00971584,-0.00123870,0.00394682,0.93815826,0.07658349,0.33572307,0.03583394
1755574769996,-0.02022683,0.02579057,-0.05381750,0.01117610,0.01003423,0.00734360,0.93813266,0.07664328,0.33577676,0.03587323
1755574770007,0.00526264,-0.01166913,-0.01182737,0.02396844,0.00888829,-0.00258473,0.93810467,0.07677631,0.33582609,0.03585888
1755574770019,0.00040953,-0.21361221,0.06434190,0.03864437,0.00634203,0.00407413,0.93807139,0.07700624,0.33586382,0.03588312
1755574770030,-0.00906942,-0.02617335,-0.05266448,0.01698683,-0.00144761,-0.00263204,0.93806720,0.07709797,0.33585600,0.03586891
1755574770041,-0.08138370,0.07182855,-0.12653494,0.02216696,0.00789002,-0.00667895,0.93804326,0.07721878,0.33589900,0.03583251
1755574770052,-0.10368178,0.01667217,-0.09775312,0.02490250,0.00542916,0.00694311,0.93801939,0.07735824,0.33592941,0.03587139
1755574770063,-0.02850987,0.04775404,0.06082107,-0.01482795,0.02585992,0.01771327,0.93797056,0.07727520,0.33607422,0.03597059
1755574770074,-0.02339852,-0.09275841,-0.01456690,-0.06751095,0.04761589,0.02936372,0.93790100,0.07690389,0.33633611,0.03613209
1755574770086,0.19537359,0.04812199,-0.09094802,-0.03914313,0.02019957,0.01098034,0.93787578,0.07668273,0.33645024,0.03619413
1755574770097,0.04443840,0.00524994,-0.00797267,-0.02200375,-0.00041706,-0.02345226,0.93789175,0.07655951,0.33644790,0.03606279
1755574770108,0.11530876,-0.04225814,-0.07398144,-0.01077721,-0.00994499,-0.02295049,0.93792131,0.07649970,0.33639271,0.03593542
1755574770119,-0.05998682,0.08248188,0.05031153,-0.01917071,-0.01509728,-0.02086804,0.93796446,0.07639330,0.33630892,0.03581960
1755574770131,-0.05786281,0.01413102,-0.02379961,-0.00257722,-0.00340146,-0.00344264,0.93797336,0.07637861,0.33628953,0.03579998
1755574770142,-0.15313822,0.10894678,-0.01147672,0.00302843,-0.00894893,-0.01212044,0.93799219,0.07639526,0.33624031,0.03573331
1755574770153,0.02690418,-0.00841710,0.12235037,0.00845595,0.00097411,0.00377196,0.93798551,0.07644304,0.33624581,0.03575463
1755574770164,-0.00007103,-0.00347625,0.09689091,0.00193159,-0.00270899,-0.01235192,0.93799251,0.07645357,0.33623105,0.03568731
1755574770175,0.16838561,-0.07905114,0.13733591,0.00201035,-0.00049614,-0.00609562,0.93799387,0.07646472,0.33622830,0.03565348
1755574770186,0.09926231,-0.02826373,0.10804643,0.01926010,-0.02069991,-0.00700325,0.93802811,0.07657258,0.33611238,0.03561426
1755574770197,-0.04712930,-0.01608139,-0.11513086,0.05426706,-0.04039249,-0.01242054,0.93808744,0.07687919,0.33588416,0.03554408
1755574770208,-0.07280023,-0.07786137,-0.13921846,0.01537531,-0.00915289,-0.00746158,0.93810008,0.07696375,0.33583382,0.03550304
1755574770219,-0.17142493,-0.15861732,-0.02364482,-0.00053485,-0.00908526,0.01276446,0.93811555,0.07696081,0.33578385,0.03557325
1755574770231,0.11065287,0.00424624,0.09745194,0.00248157,-0.01484175,0.00120084,0.93814390,0.07697471,0.33570074,0.03557997
1755574770242,0.05338098,-0.16587988,0.05074694,-0.01132921,-0.01839428,0.00538472,0.93818518,0.07691070,0.33559681,0.03561040
1755574770253,0.15901614,-0.06713277,0.02482630,-0.06533725,-0.01207942,0.03814112,0.93823116,0.07654481,0.33552916,0.03582399
1755574770264,0.00380132,-0.09075643,0.01520527,-0.05943981,-0.00897310,0.01750083,0.93827248,0.07621195,0.33547891,0.03592199
1755574770275,-0.07367535,-0.12504383,-0.12893186,-0.03642972,-0.01638787,0.00889566,0.93831866,0.07601341,0.33538960,0.03597047
1755574770286,-0.10505932,-0.05601711,-0.09879936,-0.02880099,-0.00804300,0.00120387,0.93834755,0.07585212,0.33534456,0.03597722
1755574770298,-0.07007339,0.08814047,-0.01539715,-0.03733509,0.00578847,-0.00065350,0.93835308,0.07563931,0.33537755,0.03597349
1755574770309,-0.04127473,0.15067954,0.08372478,-0.04170525,0.00167024,0.02319381,0.93836336,0.07540993,0.33538674,0.03610106
1755574770320,-0.06786779,0.13962548,0.21574145,-0.02696291,0.02323104,0.02301041,0.93832436,0.07526029,0.33551567,0.03622876
1755574770331,0.01958002,0.15382892,0.04662872,0.00561876,0.00628609,0.01687371,0.93830542,0.07529203,0.33555119,0.03632410
1755574770342,0.01296318,-0.05694509,0.02219324,-0.01305925,0.02290238,0.01076780,0.93826346,0.07521955,0.33567830,0.03638386
1755574770353,-0.01354541,0.07595105,-0.07353223,-0.01789887,0.02049640,0.00846143,0.93822889,0.07512022,0.33579205,0.03643082
1755574770365,-0.04152339,-0.02316320,-0.06366349,-0.01591887,-0.00278834,-0.00999638,0.93824378,0.07503107,0.33577644,0.03637484
1755574770376,0.05853236,0.04349916,-0.02837427,-0.01743592,-0.00334502,-0.00212186,0.93825888,0.07493256,0.33575754,0.03636285
1755574770387,0.20612404,0.09007604,-0.06773129,-0.00449674,-0.02109816,-0.00692715,0.93830344,0.07490805,0.33564255,0.03632510
1755574770398,0.12237450,0.04639830,0.14776311,0.00098655,-0.02299256,-0.00818725,0.93835082,0.07491357,0.33551379,0.03627925
1755574770409,-0.02850987,-0.03421185,0.08743028,0.00917697,-0.01855994,-0.01470660,0.93838706,0.07496497,0.33540986,0.03619690
1755574770420,-0.11699259,0.00420030,0.13342433,-0.00814859,0.00247508,-0.01859408,0.93838971,0.07492015,0.33542347,0.03609463
1755574770431,-0.05287478,0.04375112,0.01602369,-0.00849258,0.00404495,-0.01266740,0.93838812,0.07487217,0.33544633,0.03602306
1755574770443,0.06200750,0.08506552,0.12596718,-0.00930426,0.00244325,-0.01343861,0.93839025,0.07482053,0.33545989,0.03594847
1755574770454,0.12577881,-0.06893647,0.11610352,-0.00248768,-0.01035254,-0.00113159,0.93841213,0.07480672,0.33540243,0.03594219
1755574770465,0.02205449,-0.02980266,0.01582170,0.00576728,-0.01560987,-0.01098106,0.93844315,0.07483902,0.33531501,0.03588070
1755574770476,-0.03041053,-0.03896350,0.02280790,-0.00020676,-0.01744764,-0.00604264,0.93847944,0.07483786,0.33521731,0.03584686
1755574770487,-0.04381526,0.01181768,0.20096967,-0.02594935,0.00185845,0.00530944,0.93848610,0.07469384,0.33522762,0.03587633
1755574770498,-0.12567213,-0.00293953,0.02691412,-0.00537884,0.00895152,-0.00481186,0.93847149,0.07466345,0.33527820,0.03584914
1755574770510,0.01376803,0.04459625,0.11966540,-0.00746297,0.01117886,0.01374050,0.93844970,0.07462203,0.33534024,0.03592540
1755574770521,0.08514258,0.11029834,0.01161035,0.00275602,0.00925743,0.01779211,0.93842634,0.07463733,0.33539162,0.03602415
1755574770532,0.03037629,-0.04916883,-0.04092408,0.02723418,-0.00368923,0.01126354,0.93841916,0.07478984,0.33537096,0.03608722
1755574770543,-0.03286348,-0.04354235,0.00527786,0.01255663,-0.01678016,0.01025350,0.93844446,0.07485890,0.33527867,0.03614362
1755574770554,-0.00191809,0.10257750,-0.05245042,0.02033848,0.00351952,-0.00453943,0.93842917,0.07497381,0.33529855,0.03611797
1755574770565,-0.21672657,0.06090083,0.00044523,0.04661524,-0.03020469,0.00764192,0.93846671,0.07523253,0.33513092,0.03616038
1755574770576,0.07604346,0.00150683,-0.05914301,0.00899511,0.02978057,0.01092436,0.93840074,0.07528290,0.33529769,0.03622156
1755574770588,0.18256933,0.01686265,0.07128618,0.00576222,-0.00708042,0.02949052,0.93840588,0.07531488,0.33525839,0.03638523
1755574770599,0.29412892,0.02854212,0.06579199,0.01117278,-0.01567663,0.01803816,0.93842809,0.07537689,0.33517139,0.03648534
1755574770610,0.09288282,-0.14222681,-0.00000000,0.01939842,-0.05308551,0.00206874,0.93852417,0.07548455,0.33487676,0.03649682
1755574770621,-0.10062305,-0.17971857,-0.08901270,-0.00263680,-0.03122611,-0.02918422,0.93859345,0.07546991,0.33470346,0.03633485
1755574770632,-0.14602055,-0.01679608,-0.06455645,-0.01592593,-0.02020278,-0.01021252,0.93864405,0.07537914,0.33458830,0.03627664
1755574770643,-0.05514917,-0.06571561,0.04695063,0.00398297,-0.00036003,0.01056704,0.93864072,0.07540124,0.33458630,0.03633529
1755574770655,0.04451992,0.00443701,0.15400469,0.00949578,-0.00172779,0.02406629,0.93863467,0.07545442,0.33457663,0.03647006
1755574770666,0.03462277,0.16797233,0.11702777,0.00133808,-0.01095292,0.04994572,0.93864484,0.07546178,0.33451639,0.03674476
1755574770677,0.13325343,0.00204753,-0.11113668,0.01054822,0.00220435,0.03496731,0.93862800,0.07552085,0.33452873,0.03694058
1755574770688,0.08624833,-0.06318744,-0.19018862,-0.00228270,-0.02601308,-0.00945105,0.93868252,0.07550818,0.33438436,0.03688812
1755574770699,-0.02275653,-0.11081180,0.01362995,-0.01670147,-0.00514687,-0.01460987,0.93870352,0.07541465,0.33435554,0.03680631
1755574770710,-0.08153162,0.01070329,0.02881855,-0.03471667,0.00598398,-0.01933700,0.93871135,0.07522197,0.33438875,0.03669899
1755574770721,-0.17388455,0.17090514,-0.00195203,-0.00879341,0.01229577,-0.00467300,0.93869179,0.07517273,0.33445760,0.03667282
1755574770732,-0.03740538,0.15603138,0.04454090,-0.00395419,0.00798794,0.01962160,0.93867349,0.07515078,0.33450194,0.03678172
1755574770744,0.02566745,0.11335458,0.04328707,0.00496607,0.00102531,0.01317401,0.93866632,0.07517859,0.33450768,0.03685549
1755574770755,0.20630835,0.03849385,0.07242648,0.02449863,0.00384046,-0.00269886,0.93864841,0.07531456,0.33452899,0.03684051
1755574770766,0.07493046,-0.01106577,0.11828601,0.02630703,-0.01295842,-0.02412252,0.93866773,0.07546188,0.33445643,0.03670543
1755574770777,0.07982765,0.02375823,0.07982765,0.02001847,0.00009081,-0.04396108,0.93866813,0.07557399,0.33445693,0.03645925
1755574770788,0.08960013,0.04427743,-0.07992483,0.04832623,0.01182254,-0.02103366,0.93862764,0.07584220,0.33452255,0.03634251
1755574770799,-0.14319434,0.05321411,-0.05805176,0.07011586,0.01309106,-0.00960124,0.93857228,0.07623134,0.33459521,0.03628922
1755574770811,-0.18636725,-0.12798194,-0.06472512,0.06297845,0.01962616,0.00838314,0.93850256,0.07658402,0.33470511,0.03633617
1755574770822,-0.07412567,-0.11356433,0.07602633,0.01606861,0.03145953,0.02118385,0.93842776,0.07667400,0.33488129,0.03645480
1755574770833,0.20091783,-0.16989642,0.12792120,0.01245926,0.00519704,0.00727659,0.93841025,0.07674315,0.33491013,0.03649518
1755574770844,0.18670971,-0.08630872,0.04047889,-0.01564768,0.00381627,-0.00844500,0.93841162,0.07665552,0.33493150,0.03644789
1755574770855,0.09693357,-0.21429923,0.05321843,-0.01054416,-0.00695650,0.01308232,0.93842750,0.07659648,0.33489254,0.03652115
1755574770866,0.03191347,-0.05468744,0.02420779,-0.03125382,-0.00232231,-0.00904609,0.93844801,0.07642458,0.33487977,0.03647140
1755574770878,-0.12274078,-0.02144696,-0.13026037,-0.01223292,-0.00797799,-0.00566670,0.93847096,0.07635546,0.33483469,0.03643938
1755574770889,-0.10327471,-0.01897084,-0.15084163,-0.00023257,0.00223604,0.00854299,0.93846474,0.07635416,0.33484722,0.03648722
1755574770900,-0.09524760,-0.02651067,-0.10076609,0.01112244,0.01115953,0.01932962,0.93843400,0.07641478,0.33490804,0.03659257
1755574770911,0.03757724,0.02104892,0.02204066,0.02095835,0.00879036,0.02185799,0.93840209,0.07653215,0.33495726,0.03671497
1755574770922,0.05209109,0.01384992,0.02626151,0.02037755,-0.00684374,0.01247438,0.93840370,0.07664524,0.33491928,0.03678421
1755574770933,0.15286964,0.00459576,0.03483106,-0.00682538,0.00394553,0.01046959,0.93839670,0.07660736,0.33494118,0.03684231
1755574770944,0.01935059,-0.02563953,0.00000000,-0.01546699,-0.01377126,0.01859450,0.93842692,0.07652152,0.33486475,0.03694551
1755574770955,0.02067341,0.00117118,-0.13763209,-0.00940901,-0.01375803,0.01060665,0.93845663,0.07646836,0.33478701,0.03700544
1755574770967,0.00391906,-0.03657926,-0.12315593,-0.01040546,-0.01227007,0.00195076,0.93848545,0.07641009,0.33471830,0.03701636
1755574770978,0.09884349,0.12787369,-0.07619294,-0.03931544,-0.02152574,-0.00727253,0.93854738,0.07619189,0.33459883,0.03697600
1755574770989,0.06739632,-0.02219575,-0.14116241,-0.01468350,-0.01844107,-0.02032619,0.93859534,0.07610966,0.33449556,0.03686217
1755574771000,0.05321843,0.10121006,0.08362897,-0.02237237,-0.00665011,-0.02583130,0.93862443,0.07598437,0.33445832,0.03671752
1755574771011,-0.07138984,0.00856091,-0.01161035,0.02112051,-0.01922454,-0.01123234,0.93865539,0.07610159,0.33435163,0.03665518
1755574771022,-0.08714145,0.03317952,0.07476875,0.01357652,-0.00502777,-0.01280069,0.93866193,0.07617626,0.33432397,0.03658478
1755574771034,0.03152118,0.02968584,-0.04644154,0.00251599,-0.00183583,-0.00093959,0.93866467,0.07619048,0.33431360,0.03657947
1755574771045,0.04072185,0.04743891,0.12411775,-0.02097078,-0.00350786,-0.00465308,0.93868205,0.07607409,0.33429413,0.03655364
1755574771056,0.04450635,-0.03918494,-0.02709082,-0.01478232,-0.01192931,-0.00744695,0.93871388,0.07599205,0.33422793,0.03651231
1755574771067,0.05031153,0.01789929,0.06966211,-0.01815073,-0.01049003,-0.01374296,0.93874572,0.07589131,0.33416971,0.03643604
1755574771078,-0.00387012,0.04063623,0.02322070,-0.01451452,-0.01504071,0.00074574,0.93878178,0.07581076,0.33408623,0.03644018
1755574771089,-0.01544198,-0.01472707,-0.02223779,0.01363835,-0.01389294,0.00155149,0.93880315,0.07588781,0.33400773,0.03644894
1755574771100,-0.11785791,0.03521439,0.00502191,0.01535914,-0.01469400,-0.00475261,0.93882608,0.07597229,0.33392692,0.03642280
1755574771111,0.04744734,0.02623340,-0.02992673,0.00813527,-0.00727219,0.00556764,0.93883566,0.07601785,0.33388619,0.03645398
1755574771122,0.08173648,-0.00922306,-0.02470039,0.01020215,-0.00268672,-0.00522410,0.93883749,0.07607396,0.33387142,0.03642525
1755574771134,0.00145141,0.01523550,0.02425931,0.00104354,-0.00793246,-0.00937743,0.93885485,0.07607980,0.33382699,0.03637274
1755574771145,0.01096961,-0.00782085,-0.04991338,0.00623798,-0.00657037,-0.01544489,0.93886857,0.07611505,0.33378987,0.03628547
1755574771156,0.06409908,-0.00969507,-0.07194581,0.01029979,-0.00953458,-0.01984466,0.93888683,0.07617170,0.33373743,0.03617633
1755574771167,-0.01320094,-0.03699372,-0.06524442,0.00850434,-0.01185164,-0.00747385,0.93890816,0.07621932,0.33367106,0.03613447
1755574771178,0.07819710,0.01148077,-0.02736726,0.00572843,-0.01932517,0.00149423,0.93894337,0.07625111,0.33356381,0.03614277
1755574771189,0.19689222,0.11387320,-0.12838875,0.00864089,-0.02468301,0.00056607,0.93898680,0.07629777,0.33343052,0.03614582
1755574771200,-0.06969081,-0.03565494,-0.05434475,0.02314939,-0.03298688,-0.01400068,0.93904485,0.07642741,0.33324579,0.03606742
1755574771212,-0.03059773,-0.05718238,0.02607687,-0.00502203,-0.00137533,-0.01345029,0.93905290,0.07639878,0.33323795,0.03599075
1755574771223,-0.10143781,-0.02407366,0.23424394,-0.00546703,-0.01087039,-0.01746815,0.93908049,0.07636844,0.33317762,0.03589380
1755574771234,-0.01040230,-0.00083875,-0.07860304,0.02874573,-0.01024740,-0.00753810,0.93908920,0.07652654,0.33312126,0.03585235
1755574771245,-0.05161329,0.07944295,-0.08077990,0.02235315,-0.00994463,0.00247080,0.93909813,0.07665060,0.33306607,0.03586606
1755574771256,-0.05418164,-0.09481787,-0.16254493,0.01925385,-0.00865357,-0.00446330,0.93910738,0.07675746,0.33301804,0.03584129
1755574771267,0.03936853,0.01651718,-0.02905536,-0.01284446,-0.00822240,-0.01151418,0.93913249,0.07668425,0.33297117,0.03577566
1755574771278,0.14146297,0.03455735,0.01436017,-0.02095679,-0.01713451,-0.00507842,0.93917676,0.07656794,0.33287608,0.03574747
1755574771289,-0.25018773,-0.32686253,0.07199954,-0.00006729,-0.02661919,-0.03636866,0.93923626,0.07656757,0.33272967,0.03554744
1755574771301,0.05442792,-0.10977720,0.15698603,-0.00577559,-0.00025364,-0.00037737,0.93923945,0.07653551,0.33272826,0.03554535
1755574771312,-0.16947308,0.09762800,-0.10055337,-0.00881508,0.01628624,0.00825501,0.93920887,0.07648527,0.33282110,0.03559240
1755574771323,0.01628174,0.24481374,-0.18819063,0.01779755,0.01122878,0.01380073,0.93917613,0.07658316,0.33288285,0.03566831
1755574771335,-0.14409438,-0.03117745,-0.14706488,0.01654942,0.00399793,-0.00763392,0.93916213,0.07667666,0.33290544,0.03562517
1755574771345,0.17826080,0.02743703,-0.03565926,-0.02035799,0.01552090,-0.01486678,0.93914426,0.07656571,0.33299003,0.03554415
1755574771356,-0.05810086,-0.02115572,0.06047232,-0.01704222,-0.00406172,-0.02302775,0.93916497,0.07647027,0.33296729,0.03541520
1755574771367,0.18817334,0.02958241,0.06966777,-0.01604759,0.00141203,-0.01823798,0.93917318,0.07638201,0.33297505,0.03531489
1755574771379,0.04228285,0.16782650,-0.01120300,-0.02437808,-0.00451266,-0.00610649,0.93919471,0.07624427,0.33294956,0.03528038
1755574771390,0.15216753,0.11828474,-0.09308831,-0.03080193,-0.00185625,-0.01214761,0.93921475,0.07607332,0.33293925,0.03521297
1755574771401,-0.02950277,-0.05408397,0.05027186,-0.02882859,-0.00164813,-0.02758283,0.93923647,0.07591477,0.33293019,0.03506126
1755574771412,-0.15880563,-0.13705783,0.05323541,-0.01892674,0.00003253,-0.03607898,0.93925277,0.07580688,0.33293037,0.03485561
1755574771423,-0.11306291,-0.09183831,0.00000000,-0.01247076,0.00278249,-0.01432640,0.93925577,0.07573892,0.33294554,0.03477753
1755574771434,-0.08861336,0.04404973,-0.08215536,0.00276731,0.00106344,-0.01191061,0.93925487,0.07575455,0.33295155,0.03471024
1755574771446,0.03921051,-0.01260338,0.15310771,-0.00912690,-0.00995960,-0.00056845,0.93927909,0.07570299,0.33289528,0.03470702
1755574771457,0.11850308,0.05049808,0.09262631,0.01218154,-0.01652501,-0.00456837,0.93930683,0.07576999,0.33280439,0.03468190
1755574771468,-0.02695009,-0.08680497,0.05657408,0.02223165,-0.02003137,-0.00298113,0.93933686,0.07589337,0.33269321,0.03466535
1755574771479,-0.06804699,0.05140339,0.10068352,0.00091721,-0.01706099,-0.00223049,0.93937074,0.07589851,0.33259767,0.03465286
1755574771490,-0.01780398,0.03156161,-0.06502325,0.00704807,-0.01973424,0.00996560,0.93940400,0.07593727,0.33248913,0.03470767
1755574771501,-0.10720225,-0.02775270,-0.08359453,0.01819859,-0.04086192,-0.01346242,0.93947883,0.07603827,0.33226235,0.03463296
1755574771512,0.04144775,-0.05027474,-0.01796518,-0.01318668,-0.02113619,0.01077489,0.93952484,0.07596377,0.33214293,0.03469383
1755574771524,0.03439687,-0.15827816,-0.04803788,0.00901754,-0.03237919,-0.00341941,0.93958554,0.07601427,0.33196161,0.03467469
1755574771535,-0.00917425,-0.06171671,0.04740894,-0.00805281,-0.01474369,0.00242667,0.93961756,0.07596957,0.33187978,0.03468815
1755574771546,-0.01935059,0.00096753,0.07740235,-0.02073191,-0.00690186,0.01633672,0.93963704,0.07585451,0.33184147,0.03477882
1755574771557,0.00139617,-0.10623508,0.07438390,-0.00336200,-0.01078469,0.01015018,0.93965796,0.07583552,0.33178054,0.03483617
1755574771568,-0.00335638,0.01333136,0.06747019,-0.03768025,0.00195311,0.01618035,0.93966766,0.07562639,0.33179138,0.03492597
1755574771579,-0.08901270,-0.07014588,-0.18576563,-0.02088992,-0.01609360,0.01250485,0.93970593,0.07551045,0.33170206,0.03499537
1755574771590,-0.03096094,0.01548047,-0.19737598,-0.02896279,-0.00403639,-0.00206516,0.93972717,0.07534971,0.33167966,0.03498391
1755574771602,-0.09419389,0.12187543,-0.11397101,-0.02092010,-0.00216045,-0.00909700,0.93974272,0.07523256,0.33166756,0.03493297
1755574771613,-0.05976221,0.09713951,0.02985519,-0.01554388,0.00835194,-0.00697507,0.93973470,0.07514629,0.33171391,0.03489426
1755574771624,-0.02059903,0.08476551,0.09965614,-0.01100081,0.00200891,0.00718411,0.93973416,0.07508468,0.33172516,0.03493449
1755574771635,0.07222502,-0.05678217,0.10263555,0.00275095,0.00765218,-0.00085017,0.93971798,0.07510009,0.33176802,0.03492973
1755574771646,0.12593431,-0.03887827,0.13645619,-0.01590290,0.01539793,-0.00479497,0.93969584,0.07501183,0.33185348,0.03490312
1755574771657,0.10062305,-0.06047058,0.08901270,-0.04153999,-0.00153794,-0.00059562,0.93971735,0.07478128,0.33184494,0.03489981
1755574771668,0.01304776,-0.03482186,-0.02198599,-0.02983339,-0.01333278,-0.01479756,0.93976007,0.07461421,0.33177028,0.03481694
1755574771680,-0.09637283,0.04335957,-0.16358157,-0.02251426,-0.02259716,-0.01254804,0.93981682,0.07448926,0.33164486,0.03474730
1755574771691,0.01758537,0.08674750,-0.24461986,-0.01750560,-0.02556859,-0.00065420,0.93987524,0.07439123,0.33150168,0.03474364
1755574771702,-0.05321843,0.03682525,0.01520527,0.00121330,-0.03887554,-0.01276232,0.93995410,0.07439802,0.33128397,0.03467217
1755574771713,-0.02983791,0.00181844,0.04571576,0.00814431,-0.02186768,-0.03799287,0.94000104,0.07444322,0.33116261,0.03446131
1755574771724,-0.01548047,0.11513599,0.19350587,-0.00715417,-0.03997897,-0.00048808,0.94008242,0.07440352,0.33094073,0.03445860
1755574771735,0.04343266,-0.08046271,0.07939666,-0.00124612,-0.01639377,-0.00622550,0.94011687,0.07439648,0.33084810,0.03442343
1755574771747,-0.09259170,-0.09853173,0.07784758,-0.00384223,-0.02221614,-0.00709035,0.94016338,0.07437515,0.33072480,0.03438407
1755574771758,-0.14472400,-0.04066296,0.06181420,-0.01152047,-0.01056308,0.01591180,0.94018602,0.07431064,0.33066565,0.03447318
1755574771769,-0.13262063,0.02022741,-0.02754003,-0.01091228,-0.01175205,0.01107754,0.94021149,0.07425007,0.33060042,0.03453466
1755574771780,-0.01803539,0.06954985,-0.09528933,-0.00867645,0.00928237,0.01859804,0.94019354,0.07420235,0.33065148,0.03463695
1755574771791,-0.04211391,0.06677272,-0.05650371,-0.01402783,0.00504475,0.01132450,0.94018752,0.07412450,0.33067948,0.03469980
1755574771802,-0.05239653,-0.03574008,0.05523895,-0.00911656,0.01188207,0.00040222,0.94016805,0.07407345,0.33074602,0.03470205
1755574771813,-0.03041053,-0.03326152,0.12164213,-0.00193686,0.01178967,0.00407281,0.94014484,0.07406260,0.33081204,0.03472486
1755574771824,-0.04658592,0.02233415,0.10154605,-0.00245095,0.01875166,0.00563775,0.94010845,0.07404912,0.33091517,0.03475587
1755574771836,-0.02541691,-0.01895427,-0.13015324,0.00946746,0.02091467,0.01061788,0.94005999,0.07410309,0.33103439,0.03481639
1755574771847,-0.01200416,0.06340529,0.01373809,-0.00058207,0.00737304,0.01731222,0.94004211,0.07409983,0.33107567,0.03491334
1755574771858,0.11181875,-0.00814625,0.03033896,-0.00889778,0.00343652,0.01401580,0.94003639,0.07405044,0.33109475,0.03499113
1755574771869,0.13459085,0.02759006,0.09422424,-0.01694029,-0.01075182,-0.00002386,0.94006456,0.07395727,0.33103561,0.03499100
1755574771880,0.02336144,-0.06023750,0.01498791,-0.00923388,-0.02583665,-0.01510087,0.94012219,0.07390602,0.33089222,0.03490719
1755574771891,0.04934862,0.02594570,-0.02342433,-0.00810027,-0.01328478,-0.01767201,0.94015560,0.07386066,0.33081782,0.03480822
1755574771903,-0.05701975,0.15371574,-0.03041053,-0.00813737,-0.00944798,-0.00233322,0.94017828,0.07381509,0.33076491,0.03479516
1755574771914,-0.20717176,-0.05915799,-0.08362897,0.02123875,-0.00719230,0.00082593,0.94018293,0.07393403,0.33072464,0.03479978
1755574771925,-0.18377874,0.00056151,0.05355966,0.01631581,0.00216304,0.01194095,0.94016913,0.07402458,0.33073664,0.03486605
1755574771936,0.04837647,0.02201129,0.10062305,0.00243630,0.00246391,0.02112868,0.94015890,0.07403810,0.33075032,0.03498332
1755574771947,0.00972273,-0.03835262,0.02092573,0.00907397,0.00323897,0.00434840,0.94014751,0.07408937,0.33076862,0.03500789
1755574771958,0.11492846,0.07367427,0.04233748,-0.00461069,0.00883416,0.02192456,0.94012791,0.07406401,0.33081721,0.03512847
1755574771970,-0.15855644,0.01207081,0.08201956,-0.00278547,0.00793186,0.00694866,0.94011191,0.07404827,0.33086202,0.03516773
1755574771981,0.03547618,-0.06605104,-0.08962403,0.01435723,0.03069609,0.00518271,0.94004337,0.07412939,0.33103545,0.03519701
1755574771992,-0.04105020,0.05998967,-0.03537405,-0.00609049,0.05000015,0.03996969,0.93993527,0.07409407,0.33132545,0.03542884
1755574772003,-0.15148956,0.04149241,-0.12389764,-0.01437094,0.04489291,0.04509468,0.93984997,0.07401934,0.33155890,0.03566333
1755574772014,-0.03316017,0.08181200,-0.05877986,-0.00673241,0.02057504,0.02450891,0.93980668,0.07398130,0.33167515,0.03580181
1755574772025,-0.04317115,-0.09404953,0.05750234,-0.00554573,0.00172974,-0.00551186,0.93980688,0.07395108,0.33168457,0.03577177
1755574772036,0.13775413,-0.01864476,0.13726589,-0.04142584,0.02018899,-0.00801893,0.93978690,0.07371909,0.33179763,0.03572686
1755574772048,0.05206379,-0.00100691,0.10649129,-0.03287139,0.02451032,0.00421066,0.93975039,0.07352679,0.33194102,0.03575149
1755574772059,-0.08732504,0.25328796,0.11889989,-0.00472610,0.02280755,0.01933922,0.93970574,0.07350175,0.33206190,0.03585399
1755574772070,-0.02637699,-0.02390728,0.00668618,0.01330440,0.03067574,0.02593957,0.93963106,0.07357891,0.33223982,0.03600444
1755574772081,0.07297517,0.10216299,0.10598903,-0.00678486,0.04437497,0.03735319,0.93954225,0.07354261,0.33247722,0.03620428
1755574772092,0.10149111,0.10247899,-0.09776567,0.03385862,0.01126842,0.01298915,0.93950260,0.07373053,0.33253976,0.03627637
1755574772103,-0.02515576,0.16568940,-0.13158399,0.04778692,-0.00065489,0.01267075,0.93948032,0.07399575,0.33253613,0.03634669
1755574772114,-0.20442958,0.08317305,0.06698252,0.03203200,-0.00639376,-0.00689089,0.93948034,0.07417673,0.33250000,0.03630776
1755574772126,-0.01410298,0.01003778,0.04959935,0.04179378,0.00198846,0.01770201,0.93945288,0.07442122,0.33251164,0.03641132
1755574772137,-0.02275916,0.04272623,0.03063796,0.05586318,-0.01125192,0.00907818,0.93944837,0.07473405,0.33244862,0.03646215
1755574772148,0.08146251,-0.07499000,0.05373243,0.06797326,-0.01256062,0.01707383,0.93943927,0.07511131,0.33237891,0.03655691
1755574772159,0.02541258,-0.14831138,0.07778458,0.05004178,-0.01521545,0.01548069,0.93944344,0.07538153,0.33229675,0.03664051
1755574772170,0.06428695,-0.24028994,0.00946029,0.04103212,-0.00527686,0.01929991,0.93943131,0.07560926,0.33226746,0.03674762
1755574772181,0.07905521,-0.01441887,0.00662937,0.03352469,-0.01635963,0.02845550,0.93944194,0.07579029,0.33217912,0.03690128
1755574772192,0.05853552,-0.04837647,-0.20769630,0.03088864,-0.01444291,0.03400174,0.93944900,0.07596172,0.33209896,0.03708999
1755574772203,-0.06192188,-0.06240564,0.00774023,-0.00340768,-0.00406767,0.01213201,0.93945585,0.07594281,0.33207639,0.03715733
1755574772215,-0.02666995,-0.22286857,-0.02255311,0.00984837,0.00044189,0.01305278,0.93944703,0.07600190,0.33207904,0.03723564
1755574772226,-0.07034123,-0.06265351,0.06697025,0.00056545,-0.01019617,0.02689954,0.93945986,0.07600481,0.33202653,0.03737417
1755574772237,-0.01812943,-0.11526750,-0.18095617,0.02566659,-0.00037029,-0.00324133,0.93944976,0.07614726,0.33202447,0.03735619
1755574772248,0.03856110,-0.02489263,-0.08903985,0.00414815,0.01041408,0.00675466,0.93942576,0.07617049,0.33208279,0.03739401
1755574772260,-0.04513094,-0.00300414,-0.01125216,-0.00646094,0.00026638,0.01215186,0.93942544,0.07613237,0.33208436,0.03746571
1755574772270,0.04038835,-0.13616233,-0.08386966,0.00103589,0.01059896,0.01018052,0.93940298,0.07613786,0.33214054,0.03751966
1755574772282,0.04643385,-0.02757318,-0.04180032,-0.01337391,0.01109543,0.01284999,0.93938336,0.07605963,0.33220545,0.03759484
1755574772293,-0.02578945,-0.04091491,-0.03025092,-0.03245561,0.00952447,0.00876697,0.93937756,0.07588761,0.33225593,0.03764130
1755574772304,0.04680651,0.02280996,-0.03541522,-0.04163788,0.01006565,-0.00152335,0.93937678,0.07565652,0.33231179,0.03763285
1755574772315,-0.05805176,0.07038776,-0.02709082,-0.03028519,0.01090207,-0.00474471,0.93936995,0.07548844,0.33237230,0.03760651
1755574772327,0.05677315,-0.00346964,-0.06895291,-0.01183621,0.01395806,-0.00070391,0.93934638,0.07541801,0.33245535,0.03760233
1755574772337,-0.11440578,0.00358344,0.00540113,-0.02515430,0.00859164,-0.01704109,0.93934462,0.07528847,0.33249959,0.03751456
1755574772349,0.14867961,0.09117227,0.00774104,-0.02102080,0.01044231,-0.00170127,0.93933334,0.07516655,0.33256016,0.03750470
1755574772360,0.00891343,0.01458264,-0.05256303,-0.01237548,-0.00607067,0.00468208,0.93934987,0.07509725,0.33252616,0.03753092
1755574772371,0.11520357,0.00220330,0.00040905,-0.02498643,-0.00908964,-0.01919236,0.93938186,0.07496357,0.33247753,0.03742824
1755574772382,0.08950857,-0.07147896,0.23909216,-0.03958375,0.00183027,-0.01456529,0.93939914,0.07474190,0.33248778,0.03734667
1755574772393,-0.02470856,-0.01425494,0.06082107,-0.00722328,0.00205887,-0.01226627,0.93940101,0.07470145,0.33249931,0.03727798
1755574772405,-0.02862168,0.08118244,0.02062444,-0.00352830,0.00357839,-0.00725810,0.93939685,0.07468046,0.33252061,0.03723479
1755574772416,-0.05131777,0.14396089,-0.09033717,-0.00051100,0.00031812,-0.00322786,0.93939717,0.07467759,0.33252239,0.03721672
1755574772426,0.04587302,0.06130555,-0.03371933,0.01018335,-0.01140278,-0.00020768,0.93941366,0.07472953,0.33246423,0.03721566
1755574772438,0.06790633,-0.01946695,0.03647861,0.00714340,-0.01573896,-0.00363968,0.93944427,0.07477203,0.33237059,0.03719400
1755574772449,0.02836726,0.00327559,0.10278363,-0.00272198,-0.01050668,-0.00817211,0.93946662,0.07475774,0.33231543,0.03715110
1755574772460,-0.02519787,0.01780700,0.00494355,0.01386090,-0.01156775,-0.00363698,0.93948432,0.07483606,0.33225007,0.03713055
1755574772471,0.01607586,0.09730481,0.00736746,0.01529397,0.00032867,0.00099566,0.93947627,0.07492553,0.33225199,0.03713638
1755574772483,0.01959867,0.05563294,0.11392038,0.01164318,0.00422564,0.00907555,0.93946083,0.07499015,0.33227544,0.03718674
1755574772494,0.05243753,-0.02773207,0.07686341,0.00618228,0.00607851,0.00891346,0.93944435,0.07502415,0.33230887,0.03723577
1755574772504,0.06191648,0.00160082,0.08701874,0.00165576,0.01317480,0.00335366,0.93941750,0.07503317,0.33238068,0.03725405
1755574772516,-0.12417740,0.00431078,-0.11155432,0.01889074,-0.00740792,0.01069691,0.93942142,0.07514085,0.33233845,0.03731502
1755574772527,-0.01446339,0.07799210,0.04911366,0.01066503,-0.00590184,0.01684849,0.93942435,0.07519631,0.33230776,0.03740263
1755574772538,0.08250048,-0.00321424,-0.08919876,0.04027327,-0.01542701,0.02943590,0.93943020,0.07541982,0.33222214,0.03756600
1755574772549,0.00201367,0.10785443,-0.03517211,0.03554834,-0.02503270,0.00789404,0.93946426,0.07563311,0.33207195,0.03761336
1755574772560,0.03150957,-0.02552275,-0.08410190,0.03086161,-0.00780660,-0.00717003,0.93946711,0.07579051,0.33203213,0.03757680
1755574772571,0.04733012,-0.01823793,0.03629885,-0.00521499,0.00199177,0.00158941,0.93946516,0.07576130,0.33204329,0.03758570
1755574772582,0.10928691,-0.10886908,0.03413017,0.00952408,-0.01460471,0.00045971,0.93948922,0.07581369,0.33196296,0.03758823
1755574772593,0.10553837,-0.06746041,0.03490300,0.00144571,-0.01837265,0.01041065,0.93952258,0.07582178,0.33186007,0.03764653
1755574772604,-0.00922608,-0.08890688,-0.04067079,-0.00098975,-0.00680027,0.00895788,0.93953437,0.07581629,0.33182233,0.03769624
1755574772615,-0.08398855,0.02705442,-0.14215554,0.00177093,-0.01140975,0.01490519,0.93955278,0.07582621,0.33175844,0.03777971
1755574772627,-0.06842370,0.00356373,-0.08743028,-0.00030486,-0.01392254,0.00472971,0.93957937,0.07582450,0.33168047,0.03780620
1755574772638,0.06885849,-0.00676006,0.04616369,-0.01403569,0.00638262,-0.00206252,0.93957366,0.07574730,0.33171558,0.03779485
1755574772649,-0.00816461,0.08843795,0.06389107,-0.01054952,-0.00311220,0.00070680,0.93958452,0.07568770,0.33169799,0.03779885
1755574772661,0.02613826,-0.07712384,-0.14401271,0.00792452,0.00798997,-0.01018710,0.93956744,0.07573208,0.33174274,0.03774180
1755574772672,-0.04371514,-0.04846679,0.04561580,-0.00274744,0.01051051,-0.00926601,0.93954997,0.07571669,0.33180160,0.03768991
1755574772683,-0.06852198,-0.12862777,0.07430094,-0.00750581,0.00823042,-0.00359118,0.93953724,0.07567241,0.33185015,0.03766872
1755574772693,0.05384054,-0.19452920,0.00906548,-0.00151341,0.01566934,0.00229358,0.93950889,0.07566461,0.33193085,0.03768053
1755574772705,0.05689058,0.09346441,0.11485143,-0.01118119,0.01744413,-0.00548960,0.93948064,0.07560200,0.33202854,0.03764979
1755574772716,0.07222502,0.07412567,-0.06462238,-0.00209623,0.00802284,0.00275574,0.93946509,0.07559026,0.33207347,0.03766522
1755574772727,-0.01330461,0.13352125,-0.09883423,-0.00429064,0.02057456,-0.02122880,0.93943105,0.07556623,0.33218868,0.03754634
1755574772738,-0.02090724,-0.00997846,-0.05321843,0.01094862,0.02752009,-0.02132186,0.93937637,0.07562754,0.33234280,0.03742694
1755574772750,0.02851645,-0.04935135,0.01031222,0.00132032,0.02143513,0.00278396,0.93932995,0.07563540,0.33247034,0.03744350
1755574772760,0.05712735,-0.02218052,0.01340840,0.00155454,0.01332970,0.00913632,0.93930312,0.07564340,0.33253898,0.03749056
1755574772772,0.00003626,0.02556025,-0.08973279,0.00156677,0.01027051,-0.00724941,0.93928350,0.07565226,0.33259701,0.03744960
1755574772783,0.09959113,-0.08695091,0.10145815,-0.01520916,0.00046167,-0.01875166,0.93929362,0.07556709,0.33259960,0.03734459
1755574772795,-0.00852337,0.03340950,0.13300662,-0.05655237,0.00788105,-0.03675363,0.93931269,0.07523060,0.33264649,0.03712590
1755574772805,0.09703151,0.05122340,0.05918582,-0.03126788,0.02517273,-0.01709222,0.93928313,0.07506957,0.33277613,0.03703788
1755574772816,-0.13340633,0.12073921,0.08859939,-0.02421866,0.04227240,-0.00392112,0.93921157,0.07493516,0.33301074,0.03701612
1755574772828,-0.08045732,0.10551633,-0.03096578,0.00960168,0.03920123,0.00521431,0.93912231,0.07499277,0.33324595,0.03704740
1755574772839,-0.05452523,0.02441661,-0.16777527,0.03830432,0.03112337,0.00580670,0.93904559,0.07519769,0.33341246,0.03707847
1755574772850,-0.06739651,0.06912058,-0.11504018,-0.00561434,0.02838796,-0.00056797,0.93899370,0.07516738,0.33356575,0.03707540
1755574772861,0.06192188,0.04137532,-0.02182316,-0.02966487,0.00486227,0.00540570,0.93899609,0.07500274,0.33359274,0.03710540
1755574772872,0.20725737,-0.03932522,0.04626648,-0.01602431,0.00618317,0.00577410,0.93898968,0.07491300,0.33362736,0.03713774
1755574772883,0.25593527,-0.08823407,0.13093510,0.00380577,-0.00281214,-0.00750673,0.93899528,0.07493450,0.33361148,0.03709533
1755574772894,0.27275239,0.02908740,0.08174551,0.01530448,-0.02049439,0.00671553,0.93902714,0.07501868,0.33349876,0.03713226
1755574772905,-0.02432843,-0.04717088,-0.03752936,0.02692459,-0.01821648,-0.00201230,0.93905175,0.07516946,0.33339674,0.03712099
1755574772917,-0.25633538,0.10222740,-0.09092437,0.02045129,-0.00749088,-0.00655067,0.93905898,0.07528500,0.33335442,0.03708398
1755574772928,-0.09841400,0.08314759,-0.09572547,0.02341209,-0.00763647,0.00087453,0.93906341,0.07541494,0.33331204,0.03708883
1755574772939,0.02515576,0.01644800,-0.03870117,0.05053526,-0.02559716,-0.01430370,0.93909439,0.07569541,0.33316997,0.03700945
1755574772950,0.07756313,-0.03901707,-0.02106030,0.04033119,-0.02865615,-0.01890055,0.93913762,0.07592328,0.33300807,0.03690266
1755574772961,0.05842850,-0.02075051,0.09497199,0.02552745,-0.03085653,-0.01766815,0.93919071,0.07606496,0.33283681,0.03680460
1755574772972,0.06385694,-0.17996046,0.06966211,0.00977717,-0.00706086,-0.01937817,0.93920441,0.07611922,0.33279763,0.03669705
1755574772984,0.11277239,-0.09185659,-0.02339008,0.00086919,-0.00918860,0.00597539,0.93922094,0.07612409,0.33274617,0.03673052
1755574772995,0.06617210,-0.02922457,-0.07702225,0.01439682,-0.00964811,0.00168158,0.93923307,0.07620399,0.33269262,0.03673985
1755574773006,-0.02322070,-0.14222681,-0.08901270,0.00028296,-0.00912517,0.00994795,0.93924872,0.07620556,0.33264198,0.03679506
1755574773017,-0.09768699,-0.05625777,0.06191694,-0.02825710,-0.01192348,0.00184371,0.93928478,0.07604733,0.33257521,0.03680538
1755574773028,0.00181412,-0.08691351,-0.04699428,-0.03125168,-0.01085609,-0.01073133,0.93932247,0.07587388,0.33251496,0.03674583
1755574773039,-0.00193506,0.08417505,-0.04644141,-0.03799807,-0.01125006,-0.02612809,0.93936724,0.07566299,0.33245252,0.03660081
1755574773050,-0.16407521,-0.00213631,-0.02718326,0.00383558,0.01077469,-0.02753437,0.93935000,0.07568466,0.33251339,0.03644525
1755574773062,-0.05937034,0.07643268,-0.01876836,-0.01427209,0.00925483,0.00721262,0.93933664,0.07560545,0.33256476,0.03648528
1755574773073,-0.06385694,-0.02394635,-0.06192188,-0.00107891,0.02083616,0.01122705,0.93929375,0.07559946,0.33268040,0.03654759
1755574773084,0.13987231,-0.09433076,0.02141965,-0.00897895,0.01088538,-0.00619052,0.93927726,0.07554828,0.33274245,0.03651230
1755574773095,0.17686455,-0.09554613,0.04755118,-0.06188150,0.01309459,-0.01759742,0.93928272,0.07521412,0.33281316,0.03641727
1755574773106,-0.03786200,-0.11667418,0.02340874,-0.05963015,-0.00473379,-0.01857534,0.93932317,0.07487721,0.33278641,0.03631232
1755574773117,-0.17656982,0.03529342,0.01626819,-0.05876185,0.00417684,-0.02475751,0.93934620,0.07455108,0.33280959,0.03617492
1755574773129,-0.08753302,0.16814405,-0.03664332,-0.02555083,-0.01627111,0.00964558,0.93938774,0.07440800,0.33271847,0.03622893
1755574773140,-0.03358709,0.09689547,-0.11009102,0.01167200,-0.00733709,0.00807526,0.93939530,0.07447278,0.33267775,0.03627375
1755574773151,-0.04273913,0.00565489,0.00647251,-0.00894151,-0.00045594,0.00564336,0.93939895,0.07442271,0.33267520,0.03630535
1755574773162,0.02183852,0.02114311,0.15988422,-0.01753681,-0.01238954,0.01420426,0.93942796,0.07432538,0.33260644,0.03638419
1755574773173,0.24064732,0.16103370,-0.10903957,0.01341981,0.00254118,-0.00390725,0.93941782,0.07440053,0.33262067,0.03636231
1755574773184,0.00950329,-0.15038959,0.18626451,0.01133151,-0.03994583,-0.00028872,0.93949203,0.07446398,0.33239697,0.03636069
1755574773195,0.19652940,-0.06758236,0.03044262,-0.00613330,-0.01928632,0.00529286,0.93953145,0.07442994,0.33228993,0.03639007
1755574773207,0.00774023,0.07788611,-0.00387012,-0.01356684,-0.04849562,-0.00273271,0.93963315,0.07435465,0.33202078,0.03637490
1755574773218,-0.18724053,0.09765060,-0.17458660,0.01970761,-0.06697098,0.00678062,0.93975538,0.07446501,0.33164574,0.03641287
1755574773229,-0.01720583,0.06879252,-0.11020174,0.00667305,-0.03980035,0.00076865,0.93982953,0.07450171,0.33142684,0.03641710
1755574773240,-0.08041048,0.01930441,0.04929122,-0.01188170,-0.03723311,0.00339114,0.93990687,0.07443577,0.33122020,0.03643592
1755574773251,-0.00224312,0.05727874,0.04037615,-0.01213281,-0.03990966,-0.00203574,0.93999142,0.07436783,0.33099671,0.03642452
1755574773262,0.03801317,-0.06723579,0.13684740,0.00879640,-0.03438116,-0.01242808,0.94005799,0.07441708,0.33080417,0.03635492
1755574773273,0.00190066,0.00118791,0.00380132,0.01050217,-0.05097957,0.01095349,0.94015137,0.07447590,0.33051869,0.03641626
1755574773285,0.11569072,-0.13025321,0.09303110,0.01684663,-0.04867552,-0.00524255,0.94023922,0.07456855,0.33025097,0.03638743
1755574773296,-0.04980244,-0.03881798,-0.02260970,0.01970608,-0.03328494,0.00137985,0.94029611,0.07467989,0.33006291,0.03639522
1755574773307,0.00059935,0.12108672,-0.03510505,0.02606739,-0.02924468,0.01061799,0.94033929,0.07482457,0.32990060,0.03645415
1755574773318,-0.28638868,0.14488752,-0.03870117,0.01689043,-0.02473940,-0.00348307,0.94038073,0.07491831,0.32976330,0.03643482
1755574773329,0.03676611,-0.02950964,0.00387012,-0.00049776,-0.00060582,-0.00585698,0.94038339,0.07491555,0.32975994,0.03640232
1755574773340,-0.03483106,0.00846588,0.04257129,-0.00222222,-0.01408654,-0.00563310,0.94041299,0.07490321,0.32968176,0.03637105
1755574773351,-0.03485379,-0.09869072,-0.05154054,0.00022211,-0.01104339,-0.01089542,0.94043714,0.07490447,0.32961936,0.03630949
1755574773363,-0.01082849,-0.10712968,0.02102924,-0.00748256,-0.00258200,-0.01198493,0.94044794,0.07486331,0.32960516,0.03624358
1755574773374,-0.04986636,0.00131750,0.03172372,-0.01677565,0.00057519,-0.01033031,0.94045651,0.07476937,0.32960838,0.03618573
1755574773385,0.16232032,0.04227542,-0.02747092,-0.01475006,0.00703155,-0.00622799,0.94045067,0.07468751,0.32964741,0.03615116
1755574773396,-0.01261969,0.08449582,0.07284145,-0.01863060,0.01294834,-0.02015575,0.94043786,0.07458318,0.32971992,0.03603829
1755574773407,0.08433055,0.00883518,-0.03866662,-0.00287799,0.00640606,-0.00888570,0.94042855,0.07456720,0.32975547,0.03598897
1755574773418,-0.25943531,-0.03820964,-0.05540945,-0.00759835,0.00249468,-0.01986341,0.94043130,0.07452427,0.32976956,0.03587675
1755574773429,-0.10200751,-0.05092965,-0.10497183,-0.01197457,0.00236518,-0.03879211,0.94044007,0.07445841,0.32978257,0.03566339
1755574773441,-0.09987096,-0.04444085,-0.01174952,-0.00973935,0.00911954,-0.02156307,0.94043105,0.07440387,0.32983364,0.03554264
1755574773452,-0.03421185,0.03231119,0.02280790,-0.00522706,0.00228497,-0.00081531,0.94042905,0.07437460,0.32984644,0.03553807
1755574773463,-0.02391180,0.01912598,0.08735408,0.00505284,0.00072984,0.00163639,0.94042506,0.07440264,0.32985049,0.03554715
1755574773474,0.05224658,0.06651764,0.10836329,0.01113223,-0.01088234,0.00547073,0.94044021,0.07446443,0.32979009,0.03557751
1755574773485,0.17609034,-0.00096753,0.12771387,0.01212845,-0.01869413,-0.00594927,0.94047250,0.07453174,0.32968634,0.03554450
1755574773496,-0.03344131,-0.05255920,-0.01643813,0.00163040,-0.01597950,-0.01609768,0.94050655,0.07454087,0.32959685,0.03545435
1755574773507,-0.08552962,-0.06082107,-0.03041053,0.00234925,-0.00528042,-0.01417021,0.94051885,0.07455403,0.32956728,0.03537500
1755574773518,-0.30954028,-0.13497898,-0.17332597,0.01181335,0.00738284,-0.00411199,0.94050015,0.07461959,0.32960826,0.03535217
1755574773530,-0.06195119,0.08673252,-0.01828742,0.00481077,0.01446332,0.01823042,0.94046578,0.07464653,0.32968925,0.03545426
1755574773541,-0.03811374,0.07793362,0.05715334,0.00511067,0.00972996,0.03056482,0.94043819,0.07467489,0.32974325,0.03562390
1755574773552,0.05107805,0.07837861,0.08780699,0.00621843,0.00361387,0.01695947,0.94042472,0.07470972,0.32976349,0.03571887
1755574773563,0.08585095,-0.01595344,0.13973888,-0.00945189,-0.00684553,0.01970253,0.94043805,0.07465726,0.32972550,0.03582822
1755574773574,-0.05031153,-0.03458917,-0.10062305,-0.00967047,-0.00462163,0.00424570,0.94045040,0.07460359,0.32969985,0.03585178
1755574773585,0.14125928,0.23849598,-0.06192188,-0.00130632,0.00020366,-0.00483755,0.94045161,0.07459634,0.32970098,0.03582494
1755574773597,0.00154107,0.12662066,-0.03061601,-0.01244532,0.01238329,-0.00069591,0.94043297,0.07452665,0.32977033,0.03582104
1755574773608,0.00425022,0.09767295,0.01541136,-0.00378248,0.01854368,-0.00335993,0.94039924,0.07450565,0.32987324,0.03580239
1755574773619,-0.22088732,-0.22200674,0.00753414,0.01392643,0.01232789,0.00076934,0.94036868,0.07458364,0.32994228,0.03580670
1755574773630,0.03991382,0.03326152,0.04561580,0.00184336,0.02235934,0.00167665,0.94032356,0.07459396,0.33006749,0.03581609
1755574773641,0.01326502,-0.01583798,0.00112594,0.00403750,0.00290737,0.00604688,0.94031492,0.07461617,0.33008348,0.03584935
1755574773652,0.05729621,-0.02293317,-0.02391374,-0.00607497,-0.00068764,0.00271730,0.94031839,0.07458215,0.33007963,0.03586456
1755574773663,0.02090724,-0.07507600,-0.05321843,-0.00297027,0.00421260,-0.01222787,0.94031404,0.07456552,0.33010322,0.03579609
1755574773674,-0.01587785,0.01138791,0.03469284,0.00351842,-0.00780275,-0.00765938,0.94032931,0.07458504,0.33005992,0.03575358
1755574773686,-0.02322070,-0.07401599,0.18576563,0.01076772,-0.01182526,-0.00799107,0.94034928,0.07464480,0.32999429,0.03570923
1755574773697,0.09853933,0.00945359,0.00763688,0.00957036,-0.01439095,0.00798123,0.94037181,0.07469888,0.32991298,0.03575432
1755574773708,0.01426361,-0.00755684,0.01768130,0.00667404,-0.02076062,0.01493679,0.94040581,0.07473558,0.32979879,0.03583647
1755574773719,0.01465235,0.02336514,-0.11811727,-0.00349042,-0.02188636,0.01368540,0.94044742,0.07471604,0.32967623,0.03591311
1755574773730,-0.02850987,0.08315380,0.03041053,-0.02742179,-0.02449447,0.00127884,0.94050740,0.07456248,0.32953906,0.03592027
1755574773741,0.01607988,-0.01609308,0.04201177,-0.00463445,-0.00648754,-0.00474691,0.94052292,0.07453699,0.32950338,0.03589417
1755574773753,0.02602174,-0.00034989,0.16400953,-0.01932917,-0.00296424,-0.00330748,0.94053802,0.07442874,0.32948678,0.03587564
1755574773764,0.03730171,0.01214811,0.08441693,-0.00779641,-0.00492854,0.01513750,0.94054781,0.07438547,0.32945943,0.03595966
1755574773775,0.01624977,-0.03556029,-0.00763688,0.01854890,-0.01046937,0.00390741,0.94055929,0.07448935,0.32940080,0.03598154
1755574773786,-0.00672087,-0.05990475,-0.10839784,0.00388070,-0.01238915,-0.00367843,0.94058244,0.07451088,0.32933204,0.03596112
1755574773797,-0.01614703,0.00044948,-0.00280818,-0.02990377,0.00445325,0.00677125,0.94058551,0.07434342,0.32935698,0.03599904
1755574773808,0.00468215,0.11589187,0.09571629,-0.04199789,-0.00266688,0.01943080,0.94060496,0.07411033,0.32934218,0.03610688
1755574773820,-0.06808363,-0.02789041,0.11602802,-0.00379667,-0.00473169,0.00663757,0.94061474,0.07408850,0.32931497,0.03614505
1755574773830,0.04884099,-0.00178057,0.09808791,-0.02249820,0.00391756,0.02717611,0.94061130,0.07396926,0.32933573,0.03628908
1755574773842,0.01524113,-0.03226636,0.05809559,-0.02873037,0.00771532,0.01313348,0.94060597,0.07380837,0.32937894,0.03636263
1755574773853,-0.09791051,0.03969030,0.01002084,-0.02216192,-0.00037405,0.00853818,0.94061451,0.07368537,0.32937686,0.03641002
1755574773864,0.04191722,0.00865570,-0.09356033,0.00626564,-0.00435688,0.01837786,0.94061632,0.07372046,0.32935246,0.03651293
1755574773875,-0.04229485,0.08366537,0.07505263,0.01650547,-0.01909388,0.01246343,0.94064354,0.07381207,0.32924649,0.03658211
1755574773886,-0.03981109,0.00237368,-0.14280622,0.04183879,-0.03470526,0.00509014,0.94069203,0.07404637,0.32905214,0.03661061
1755574773897,0.01888410,0.12072304,0.05895018,0.03477124,-0.02416145,-0.01617884,0.94072720,0.07423935,0.32891805,0.03652082
1755574773908,-0.07003327,0.00556071,-0.03941726,0.04024298,-0.02953976,-0.01343744,0.94077013,0.07446471,0.32875262,0.03644557
1755574773919,0.09388490,0.13540659,0.12878507,0.01796163,0.00268920,-0.00816086,0.94075877,0.07456439,0.32876755,0.03640027
1755574773931,-0.02842426,-0.03702645,0.03962273,0.03475828,-0.00250131,0.00328224,0.94074751,0.07475904,0.32875354,0.03641866
1755574773942,-0.03517660,0.05646873,0.01807207,0.03711954,-0.00532300,-0.00124665,0.94074171,0.07496505,0.32872400,0.03641174
1755574773962,-0.00400063,-0.16775520,-0.18202849,0.01213097,-0.00174160,0.00604337,0.94073572,0.07508758,0.32870641,0.03647277
1755574773973,-0.13041703,0.31894205,0.90091860,0.04407451,0.00012448,0.01002324,0.94071416,0.07532778,0.32870709,0.03652740
1755574773984,0.11929314,-0.33478608,-0.56015016,0.01468694,-0.00732332,0.00167515,0.94072160,0.07541076,0.32866571,0.03653687
1755574773996,-0.02860605,-0.07961029,-0.11254093,0.01736819,-0.01629552,-0.01243966,0.94074885,0.07550976,0.32857283,0.03646596
1755574774007,-0.01408565,-0.01747808,-0.04330518,0.00858085,0.00652011,0.00191480,0.94073168,0.07555824,0.32860967,0.03647678
1755574774018,-0.04493446,0.08076515,0.12617268,0.01464358,0.01658785,-0.00137258,0.94069328,0.07563952,0.32870173,0.03646916
1755574774029,0.00634656,0.05494984,0.10352832,0.03627140,0.01414440,0.02700397,0.94064247,0.07584626,0.32878235,0.03662308
1755574774103,0.02223624,-0.02875412,-0.10108439,0.00813246,0.00064043,0.00437347,0.94060388,0.07614472,0.32880585,0.03678359
1755574774140,0.01578777,0.04800628,0.28422049,0.02520313,-0.01582547,0.00561842,0.94066473,0.07661476,0.32851071,0.03688837
1755574774174,0.03025379,-0.01097989,-0.14939950,0.02508632,0.00216050,0.02244058,0.94060203,0.07704123,0.32854744,0.03726986
1755574774216,-0.00846178,0.00900399,-0.07525849,0.00760141,0.00714984,-0.00574493,0.94054140,0.07720048,0.32869723,0.03714951
1755574774258,0.03711709,-0.05678624,-0.04798558,0.00857429,0.00037890,0.00300352,0.94052114,0.07738225,0.32870526,0.03721318
1755574774290,0.10987078,0.12329049,0.07027884,0.01334733,0.00236795,-0.01455722,0.94049969,0.07759381,0.32874279,0.03698245
1755574774340,-0.05404653,-0.06132088,-0.10338137,0.01297833,-0.00159379,-0.01013629,0.94049675,0.07791567,0.32870327,0.03673107
1755574774375,0.09410242,0.02368628,-0.04182253,0.03204569,-0.02462358,0.00115671,0.94060130,0.07848448,0.32826620,0.03675160
1755574774400,0.07878402,0.12365456,-0.18984868,-0.01282156,-0.02577855,-0.03314636,0.94073918,0.07832870,0.32795299,0.03634887
1755574774435,-0.04909866,-0.07024756,0.07963757,0.02373019,-0.01761373,-0.01830371,0.94082618,0.07875347,0.32763770,0.03602124
1755574774481,-0.08624855,0.02323490,0.04007576,0.00173103,-0.00073350,-0.01082524,0.94083817,0.07879311,0.32762090,0.03577334
1755574774518,0.02600610,-0.03694057,-0.01443909,0.03393526,-0.01433895,0.00381244,0.94087513,0.07942261,0.32735492,0.03584406
1755574774551,0.05434347,-0.07116632,0.01817821,-0.02380287,-0.00673031,0.00829983,0.94094140,0.07903105,0.32724420,0.03598059
1755574774585,-0.01997997,-0.07493270,-0.08277734,-0.02183578,-0.01990629,-0.00948530,0.94109719,0.07865766,0.32690381,0.03581839
1755574774611,0.09008552,-0.07728603,-0.20917862,-0.04621865,-0.03071837,-0.00834680,0.94128403,0.07807531,0.32651675,0.03571322
1755574774649,-0.06949502,0.04303594,0.05914699,-0.02820582,-0.01764527,-0.03488752,0.94147141,0.07753376,0.32617797,0.03504338
1755574774651,11.31792863,-1.12091502,-28.76698971,0.17620771,-0.03245821,0.05684959,0.94146465,0.07775401,0.32613739,0.03511444
1755574774681,-0.95834385,0.21084626,2.59036387,-0.02306317,-0.00702160,-0.01586467,0.94153750,0.07741268,0.32603347,0.03487965
1755574774712,-0.09157254,0.01950180,-0.05749066,0.00275504,-0.00913355,-0.01610338,0.94159203,0.07745525,0.32589236,0.03463085
1755574774724,0.10619920,0.17024290,-0.49564892,0.00272618,-0.04025026,-0.02249961,0.94168282,0.07747228,0.32564080,0.03449023
1755574774751,-0.02529165,-0.07254862,0.41159069,-0.00239368,-0.02121255,0.00950011,0.94177868,0.07744033,0.32535761,0.03461705
1755574774755,4.21526569,0.08294194,1.78729737,0.12219810,-0.15846136,0.01584337,0.94185361,0.07764806,0.32508822,0.03464399
1755574774780,-0.57552825,0.00170664,-0.17800416,-0.00362904,-0.00574280,0.01233843,0.94187698,0.07760161,0.32501472,0.03480192
1755574774785,0.28358198,0.22992170,-1.82759983,0.05545320,-0.01599727,-0.00694191,0.94187969,0.07772638,0.32497872,0.03478630
1755574774802,-0.10420264,-0.06229328,0.26939400,-0.01003037,0.00934373,0.00213481,0.94185852,0.07764062,0.32505861,0.03480455
1755574774813,-0.03775310,0.00717030,0.02247685,0.01612890,-0.00032859,-0.01693832,0.94185512,0.07773336,0.32505672,0.03470716
1755574774829,-0.03787901,0.00355586,0.19452294,0.00824540,-0.00241896,0.00421375,0.94185511,0.07779644,0.32503822,0.03473939
1755574774839,-0.05020454,-0.04737418,-0.02018358,0.01200482,-0.02795798,0.03539297,0.94189367,0.07785947,0.32489144,0.03492521
1755574774850,0.10886765,-0.04741011,-0.03155432,0.00669716,-0.03373058,0.04064665,0.94194819,0.07789764,0.32469917,0.03515689
1755574774863,0.07711337,-0.09169156,-0.01258994,-0.02717857,-0.02344558,0.01070508,0.94200874,0.07773185,0.32455615,0.03522219
1755574774879,-0.03323556,0.05238062,0.03866403,-0.01753547,-0.02061682,-0.01455036,0.94208509,0.07758455,0.32438297,0.03509997
1755574774881,4.88821160,0.23521233,2.83831642,0.00335835,0.04386695,-0.10475617,0.94207475,0.07758758,0.32442245,0.03500569
1755574774894,-0.90261225,-0.02531135,-0.52867289,0.00517338,0.01023674,0.00484430,0.94204810,0.07762094,0.32448848,0.03503693
1755574774917,-0.02501385,0.00072183,-0.00200857,0.01663633,0.00579356,-0.00150703,0.94201051,0.07780977,0.32455424,0.03501983
1755574774939,-0.09212965,-0.00095050,-0.05236780,0.02005799,0.01174319,0.00715663,0.94194451,0.07803141,0.32468400,0.03509891
1755574774951,0.03405717,-0.28686848,0.23552066,-0.04629903,0.01511114,0.00194135,0.94193616,0.07776519,0.32477089,0.03511007
1755574774961,0.50200850,0.10091205,0.41694116,-0.05084960,-0.00396291,-0.01977873,0.94196888,0.07750077,0.32475028,0.03500722
1755574774972,-0.17996668,0.10727233,-0.08140277,-0.02657022,-0.00397798,-0.01568669,0.94199267,0.07734799,0.32472741,0.03491703
1755574774984,-0.19452294,-0.00286999,-0.26309970,0.01024396,0.00128498,-0.01253021,0.94198788,0.07740792,0.32473493,0.03484372
1755574774994,-0.19346888,-0.03924811,-0.09856226,0.00529343,0.01774510,-0.00940255,0.94195654,0.07743465,0.32482454,0.03479624
1755574775004,0.04014032,-0.02171393,0.03675821,0.00998348,0.00970829,0.00414527,0.94193428,0.07748607,0.32487454,0.03481759
1755574775015,0.04089325,0.03787776,0.08075645,0.01318322,0.00269317,-0.00249106,0.94192409,0.07755594,0.32488881,0.03480439
1755574775026,-0.02422033,-0.02128967,0.04037309,0.01923692,0.00687272,-0.01546164,0.94190496,0.07766463,0.32492764,0.03471703
1755574775043,0.06133308,0.02624780,0.10372818,-0.01189595,0.01613742,0.00623904,0.94186401,0.07756351,0.32506481,0.03477006
1755574775046,-4.35302700,-3.40045225,7.29944247,-0.02669330,0.16007016,0.07869060,0.94179124,0.07752881,0.32527290,0.03487236
1755574775062,0.73295087,0.49324276,-1.16501290,0.02730382,0.02435742,0.03666917,0.94169500,0.07774724,0.32546776,0.03516571
1755574775072,-0.10165858,-0.22781720,0.03797745,0.01567959,0.02167634,0.05972028,0.94164152,0.07782328,0.32557289,0.03545535
1755574775084,-0.15433400,0.05161639,-0.11882979,-0.05387873,-0.00987912,-0.01078475,0.94169317,0.07748654,0.32551115,0.03538795
1755574775095,0.17659441,-0.07585853,-0.65368620,-0.00026236,0.04508861,0.03263883,0.94160413,0.07748515,0.32575011,0.03556094
1755574775106,-0.03755109,0.04148054,0.23571205,-0.05108389,-0.03723330,-0.02651055,0.94170442,0.07720164,0.32554347,0.03541380
1755574775118,0.14864612,0.14179945,0.14242769,-0.05506483,0.00806493,0.00043629,0.94171488,0.07686299,0.32559307,0.03541649
1755574775128,-0.07648209,-0.12859504,0.20171856,-0.02999378,0.02336587,0.00668450,0.94168692,0.07672052,0.32570406,0.03544824
1755574775139,-0.05713979,0.15152998,0.03905353,-0.02139836,0.01040674,0.00184764,0.94167613,0.07660069,0.32576233,0.03545858
1755574775150,0.02364482,0.05063668,-0.06755662,-0.01252821,0.02405189,0.00877595,0.94163414,0.07653178,0.32589462,0.03550685
1755574775163,0.07169230,0.06096731,0.02975423,-0.01921104,0.01309843,0.01858276,0.94161024,0.07640691,0.32597976,0.03562764
1755574775167,-1.20561380,0.46075075,1.12050145,-0.03049789,0.02404150,-0.08452936,0.94160412,0.07633676,0.32603506,0.03543322
1755574775184,0.37140990,-0.05910547,-0.28315243,0.00011128,0.00215071,0.00108660,0.94159749,0.07633769,0.32605301,0.03544230
1755574775195,-0.14750030,0.08049241,0.06415445,0.01757017,-0.00017819,-0.00516709,0.94159082,0.07643784,0.32605200,0.03541284
1755574775206,-0.08785031,-0.01749318,0.09234021,0.03062555,-0.00813819,0.01061744,0.94159047,0.07659250,0.32601090,0.03546646
1755574775218,0.15031965,-0.07774696,-0.08532599,0.03199812,-0.00380199,0.01878940,0.94157828,0.07678769,0.32598771,0.03558108
1755574775240,0.08012424,-0.04441946,-0.01556522,0.01009677,-0.00492066,0.01360838,0.94158226,0.07689825,0.32593383,0.03573009
1755574775281,0.01086601,-0.01256382,-0.00125288,0.00469516,-0.00592123,-0.00027771,0.94161671,0.07699474,0.32581215,0.03572438
1755574775286,-1.04535068,-1.39727386,7.76884605,0.03736023,-0.04902951,-0.03751623,0.94165273,0.07708253,0.32569693,0.03563622
1755574775306,0.07090431,0.33387191,-1.76603437,0.03097356,0.02221423,0.02376063,0.94153976,0.07739691,0.32592240,0.03587739
1755574775319,0.10290025,-0.06933218,0.01385017,-0.01903725,0.02884901,0.01469684,0.94148000,0.07727032,0.32611425,0.03597512
1755574775341,0.16071878,-0.01122604,-0.00589946,-0.00070127,0.00218199,-0.01500163,0.94147862,0.07726267,0.32613803,0.03581160
1755574775363,-0.01484284,-0.02418115,-0.04467854,-0.00531911,-0.01027148,-0.00405548,0.94152342,0.07720523,0.32602710,0.03576781
1755574775373,-0.15943629,-0.22114120,-0.30456420,-0.00187831,-0.03324877,-0.01399709,0.94158927,0.07719508,0.32584756,0.03569222
1755574775386,-0.11002301,0.21517744,-0.12013836,-0.01860543,0.00021673,-0.02198569,0.94160319,0.07708159,0.32584888,0.03555811
1755574775395,0.37494253,0.20050123,0.38975575,-0.02873488,0.00873973,-0.02528186,0.94160458,0.07693792,0.32589258,0.03543170
1755574775406,0.02592982,-0.02093801,0.12069463,0.04173944,-0.01524078,-0.06203900,0.94162674,0.07715914,0.32581180,0.03510289
1755574775418,-0.04998470,0.08024831,0.07115711,0.01615719,-0.00411793,0.02009891,0.94162287,0.07725527,0.32578730,0.03522248
1755574775429,0.07339870,0.10090732,-0.29461247,0.09393850,-0.00273456,0.00384544,0.94158649,0.07774845,0.32577294,0.03524267
1755574775440,-0.23740425,-0.12062233,-0.02309139,0.01920897,-0.00516218,-0.04007973,0.94159649,0.07786178,0.32574248,0.03500620
1755574775452,0.02000075,-0.02005331,-0.00708735,-0.04387138,0.03812127,-0.00928877,0.94154298,0.07760733,0.32596359,0.03495232
1755574775462,-0.07497537,0.04644308,0.24170355,-0.02900232,0.01059565,-0.00800396,0.94153791,0.07745796,0.32601816,0.03491110
1755574775473,0.20476655,0.06606188,0.08321674,-0.02634776,0.03122552,0.00051907,0.94149153,0.07731700,0.32618521,0.03491388
1755574775484,0.01470345,-0.06743850,0.00648902,0.00463078,-0.00301592,0.00635932,0.94149387,0.07734224,0.32616878,0.03494854
1755574775494,0.10337321,0.04956918,-0.30079223,-0.00278994,-0.01582779,0.01996828,0.94151897,0.07732815,0.32608884,0.03504938
1755574775505,-0.07487156,-0.30310270,-0.24583752,0.01567080,-0.02186208,0.00099840,0.94155425,0.07741669,0.32596532,0.03505502
1755574775517,0.03549028,0.04716766,0.07098057,-0.00952143,-0.02376985,0.01047866,0.94160554,0.07736004,0.32582389,0.03511737
1755574775528,-0.03547148,-0.06810804,0.16645522,-0.00540835,-0.02081954,0.00429459,0.94164559,0.07733111,0.32571251,0.03514034
1755574775540,0.01907709,0.09299676,-0.03613579,-0.01419029,-0.00534338,0.01635888,0.94165964,0.07724809,0.32568125,0.03523604
1755574775551,-0.00001624,-0.04474263,0.02943584,-0.01843732,0.00593552,0.01238284,0.94165401,0.07714484,0.32571449,0.03530539
1755574775564,0.00498923,0.07587784,0.08647995,-0.04246843,0.00700230,0.01673801,0.94165671,0.07687305,0.32575930,0.03541251
1755574775575,0.01625581,-0.06363781,-0.02955602,-0.00571691,-0.00422744,0.00478520,0.94166633,0.07684160,0.32573605,0.03543883
1755574775586,0.13051499,-0.17828901,0.06518111,-0.01909921,-0.00109503,0.01775834,0.94167349,0.07673369,0.32572987,0.03553916
1755574775588,6.86303236,-14.50254335,-8.54378827,0.00442044,-0.03304823,0.05280383,0.94168166,0.07673767,0.32570012,0.03558669
1755574775605,-0.82716650,1.59478242,0.68751052,0.00549895,-0.00374999,0.00712871,0.94168673,0.07678579,0.32566731,0.03564906
1755574775617,-0.07803128,-0.04823140,-0.22206870,0.01737581,-0.01112434,0.02310988,0.94169589,0.07688830,0.32560168,0.03578541
1755574775632,0.01740082,-0.00111385,0.07180995,0.01427837,0.00861023,0.00919132,0.94166286,0.07699325,0.32566496,0.03585297
1755574775643,0.05009786,0.14543095,0.12185368,-0.00963215,0.02071998,-0.01566582,0.94162960,0.07693786,0.32578410,0.03576289
1755574775654,0.12205635,-0.05141958,0.00169753,-0.01136299,0.00897291,-0.00233872,0.94161853,0.07687764,0.32583166,0.03575049
1755574775667,-0.04492795,-0.03856197,-0.03836119,-0.00541040,0.00251523,-0.01409492,0.94161926,0.07684031,0.32584901,0.03565324
1755574775678,0.28498694,-0.23117188,-0.34482285,-0.02624661,-0.01786340,-0.02370904,0.94166581,0.07670776,0.32575880,0.03553351
1755574775691,-0.20196906,0.26533652,0.08561137,-0.01535826,-0.01346008,-0.00470522,0.94170474,0.07660947,0.32567266,0.03550340
1755574775714,-0.06446752,0.03153797,0.03328050,-0.00098517,-0.02382760,-0.01127168,0.94180919,0.07659770,0.32538792,0.03536870
1755574775716,14.30417953,4.77195659,-68.08786341,-0.12970562,-0.20350694,-0.30463931,0.94188298,0.07649393,0.32522511,0.03512499
1755574775742,-0.82239553,-0.29049400,4.23101892,-0.01486722,0.00637465,-0.00259019,0.94187124,0.07629992,0.32530830,0.03509119
1755574775754,0.18131813,-0.06907709,-0.17954629,-0.02003565,0.00196796,-0.01417666,0.94187977,0.07618371,0.32531972,0.03500896
1755574775766,-0.02734734,-0.23541408,0.11875255,-0.01398364,0.00830445,-0.02951988,0.94187591,0.07609981,0.32536954,0.03483184
1755574775778,-0.08309682,0.03109773,0.07425944,-0.02932775,0.01235525,0.00122731,0.94186374,0.07591651,0.32544676,0.03483951
1755574775783,0.15871024,-0.05786802,-1.94879226,0.05064872,0.02736952,0.00679212,0.94183270,0.07603047,0.32550834,0.03485479
1755574775797,-0.18949141,0.24813305,0.37600935,0.01708551,0.01311890,0.02385326,0.94178510,0.07615007,0.32560018,0.03502177
1755574775808,0.10035476,0.00698492,-0.09047134,-0.01348438,0.00385780,0.03050740,0.94177736,0.07607455,0.32562178,0.03519261
1755574775814,0.86800591,-0.66708134,-0.95514720,-0.02705100,-0.02199765,0.02620557,0.94180247,0.07599746,0.32555909,0.03526729
1755574775828,-0.23772455,0.06842609,0.52764950,-0.01835694,-0.02238841,-0.02478192,0.94187498,0.07586621,0.32539901,0.03509010
1755574775841,0.02735317,-0.09515062,-0.01002645,-0.01926466,-0.03163534,-0.07197987,0.94197717,0.07573617,0.32518547,0.03460424
1755574775854,0.03421755,0.06719232,-0.04156474,-0.06225874,-0.01795272,-0.02694897,0.94205449,0.07534083,0.32507147,0.03443311
1755574775888,-0.08747796,0.08037583,0.10094073,-0.00173228,0.00372510,0.00581961,0.94203171,0.07531181,0.32513387,0.03453059
1755574775889,25.47149936,10.46194958,-94.46110693,0.48246226,0.03714975,-0.02450914,0.94199630,0.07564954,0.32515987,0.03451344
1755574775914,-1.41966815,-0.44483024,5.14028419,-0.00298544,0.00153872,-0.01826655,0.94200105,0.07561177,0.32517934,0.03428236
1755574775924,0.36166260,-0.08298784,-0.05905186,-0.01345692,-0.00691220,0.01189643,0.94201576,0.07554650,0.32514581,0.03434006
1755574775936,-0.18896514,-0.12841521,0.12295493,0.00597059,-0.02685568,-0.01260616,0.94207170,0.07558263,0.32498334,0.03426379
1755574775958,-0.02283438,-0.00550251,0.05980373,0.01993470,-0.02779409,-0.00344680,0.94215966,0.07579892,0.32468177,0.03422640
1755574775969,0.19417371,0.01063756,-0.12004803,0.03731731,-0.02983779,-0.00495244,0.94220140,0.07600789,0.32451468,0.03419866
1755574775982,-0.11913371,-0.03064626,0.09416828,0.02750768,-0.01431385,-0.01277884,0.94222201,0.07618669,0.32442164,0.03411560
1755574775993,0.03776785,0.15858329,-0.22270766,0.00995305,-0.00499587,-0.00079349,0.94222710,0.07624044,0.32439466,0.03411132
1755574776003,-0.05371979,-0.02718931,-0.05554424,0.00066622,0.00382126,-0.01146357,0.94222238,0.07624374,0.32441358,0.03405457
1755574776014,0.06173925,0.00095783,0.09282780,0.00173652,-0.01238740,-0.00049518,0.94224516,0.07625329,0.32434545,0.03405185
1755574776025,-0.00788161,-0.09605707,0.19309935,0.00368343,-0.01569087,-0.00775989,0.94227476,0.07627355,0.32425915,0.03400917
1755574776036,0.08296124,-0.12174378,0.09439568,0.00681538,-0.02621257,-0.00186375,0.94232212,0.07631137,0.32411367,0.03399882
1755574776046,0.03134917,0.00055579,0.02630253,-0.00413941,-0.03255483,-0.00114335,0.94238403,0.07628923,0.32393950,0.03399271
1755574776058,-0.14376185,-0.13281124,-0.05182719,0.01823483,-0.00309017,-0.01464493,0.94238468,0.07639590,0.32392142,0.03390703
1755574776070,-0.11146752,-0.07140888,0.06270048,-0.00001958,0.02607073,-0.00578696,0.94233347,0.07639579,0.32407393,0.03387318
1755574776080,-0.12368791,0.15347877,0.01704014,-0.04115356,0.04537532,0.03802351,0.94226386,0.07618590,0.32430535,0.03406710
1755574776092,-0.16088765,-0.15916278,-0.26785511,-0.01182762,0.06263077,0.03383711,0.94213500,0.07611612,0.32467487,0.03426674
1755574776102,0.05404484,0.05854629,-0.23032743,-0.05313793,0.03405185,0.03017382,0.94209010,0.07583715,0.32485364,0.03442515
