UnixTime(ms),Ax,Ay,Az,Gx,Gy,Gz,QuatW,QuatX,QuatY,QuatZ
1755644235998,0.00000000,0.00000000,0.00000000,0.00000000,0.00000000,0.00000000,0.99230065,0.03401075,-0.00486019,0.11899188
1755644236018,0.15756481,0.00132779,-0.00088520,-0.01130733,-0.01012688,-0.00586363,0.99231110,0.03389711,-0.00496197,0.11893295
1755644236023,4.30185403,-0.88748647,-0.63063493,-0.05512114,-0.15137192,-0.05263773,0.99232960,0.03375931,-0.00534040,0.11880136
1755644236034,-1.57598247,0.18400933,0.20791374,-0.03328059,-0.02950162,-0.04065724,0.99236254,0.03357128,-0.00550708,0.11857164
1755644236046,0.03350962,0.04589543,0.09188337,-0.05854111,-0.03230899,-0.03954891,0.99239899,0.03324345,-0.00568801,0.11835017
1755644236057,0.00736505,0.03017295,0.14373729,-0.04213899,-0.01880208,-0.01919578,0.99241907,0.03300747,-0.00579330,0.11824267
1755644236068,-0.22545762,-0.00850119,0.07024129,-0.03305272,-0.00541143,-0.01263546,0.99243372,0.03281907,-0.00582415,0.11817065
1755644236079,-0.25825834,0.05092608,-0.06837213,-0.00234999,0.01576966,0.00250812,0.99243304,0.03280673,-0.00574136,0.11818382
1755644236090,-0.05749491,0.13244421,-0.11347722,0.00546545,0.00693426,0.01934030,0.99241935,0.03283734,-0.00570253,0.11829212
1755644236101,0.00178267,-0.05012794,-0.04627187,0.03262620,0.02410116,0.03268754,0.99239149,0.03302494,-0.00556394,0.11848008
1755644236113,-0.06335845,0.08059309,0.11194420,0.00503178,0.00510662,0.01392890,0.99238149,0.03305286,-0.00553560,0.11855738
1755644236124,0.08320752,-0.06579199,-0.04087811,0.02363538,-0.01739804,-0.00402341,0.99237923,0.03318404,-0.00563216,0.11853505
1755644236135,0.13999627,-0.08652151,-0.00410915,0.02892574,-0.02376351,-0.01640524,0.99238409,0.03334892,-0.00576761,0.11844154
1755644236146,-0.00101702,0.08067794,0.08686759,-0.01731232,-0.03457595,-0.01567277,0.99239667,0.03325197,-0.00596124,0.11835377
1755644236157,-0.00950329,-0.02803471,0.06889886,-0.03339672,-0.03657700,-0.00121661,0.99240248,0.03306495,-0.00616607,0.11834696
1755644236169,0.04565090,0.02257975,-0.00007780,0.00545158,-0.01123604,0.00382415,0.99239845,0.03309602,-0.00623012,0.11836876
1755644236180,0.01248877,0.04762536,0.00640988,-0.00584337,-0.01766129,-0.00660915,0.99240328,0.03306359,-0.00632814,0.11833208
1755644236191,0.03168659,0.00798212,-0.12215058,-0.00011502,-0.01228603,-0.00645531,0.99240714,0.03306295,-0.00639632,0.11829625
1755644236202,-0.03004079,-0.00336216,-0.06154923,-0.00750727,-0.00713146,-0.02529501,0.99242531,0.03302053,-0.00643662,0.11815333
1755644236213,0.07774912,-0.11606713,0.17210998,-0.04392926,0.01684509,-0.02142406,0.99244815,0.03277673,-0.00634313,0.11803443
1755644236225,-0.25792233,0.02512379,0.06297536,-0.02605579,-0.01624771,-0.03030174,0.99247254,0.03263081,-0.00643411,0.11786474
1755644236236,0.07483842,0.00902813,-0.12223609,-0.00156242,0.01591772,-0.00716350,0.99247816,0.03262206,-0.00634497,0.11782463
1755644236247,-0.08814303,0.10121006,-0.08362897,-0.01002971,0.01097365,-0.00525276,0.99248389,0.03256590,-0.00628352,0.11779521
1755644236258,0.07318837,0.04636660,-0.00176506,-0.00291303,0.01524390,-0.01004887,0.99249171,0.03254944,-0.00619739,0.11773843
1755644236269,0.06886161,-0.04721771,-0.03571680,0.01280075,0.00556504,-0.00151696,0.99249058,0.03261984,-0.00616679,0.11773009
1755644236281,0.06189667,-0.09330072,0.07938704,-0.00463561,-0.00840326,-0.00408319,0.99249385,0.03259388,-0.00621384,0.11770723
1755644236292,0.08196589,-0.03159844,0.00997846,-0.01029755,-0.01311826,-0.01682128,0.99250644,0.03253622,-0.00628731,0.11761303
1755644236303,0.05488151,-0.02090724,0.12140455,-0.04220102,-0.03445372,-0.01255636,0.99252125,0.03229989,-0.00648025,0.11754271
1755644236314,0.10744543,-0.06340341,-0.00517671,-0.04393377,-0.03494117,-0.01183566,0.99253565,0.03205606,-0.00667417,0.11747702
1755644236325,0.11779159,-0.05286527,-0.18208435,0.00387389,-0.01245849,-0.01798426,0.99254639,0.03207775,-0.00674394,0.11737631
1755644236337,-0.08206992,-0.00805841,-0.17786226,-0.01176564,-0.02743390,-0.00640730,0.99255175,0.03201128,-0.00689894,0.11734011
1755644236348,-0.13665282,0.18272819,0.14625105,-0.01811269,-0.00101495,-0.01858787,0.99256714,0.03191075,-0.00690457,0.11723695
1755644236359,-0.08772532,0.01959264,-0.08122913,0.01878304,-0.00145062,-0.01423407,0.99257316,0.03201688,-0.00691277,0.11715652
1755644236370,0.03406789,-0.01125352,-0.15367715,-0.00011482,-0.00929825,-0.00768620,0.99257781,0.03201624,-0.00696391,0.11711425
1755644236381,0.02667401,-0.00824627,0.20395792,-0.02400292,-0.00191585,-0.01452093,0.99259166,0.03188183,-0.00697464,0.11703293
1755644236392,-0.15412673,-0.16222057,0.01384538,-0.02031531,-0.00760612,-0.03252246,0.99261668,0.03176705,-0.00701761,0.11684918
1755644236403,0.08982298,0.06762030,-0.01133442,-0.02108836,-0.00051407,0.00611702,0.99261641,0.03165212,-0.00702041,0.11688252
1755644236414,-0.03003563,0.02611008,-0.00947169,-0.03794530,-0.01684898,0.01141840,0.99261496,0.03143962,-0.00711477,0.11694646
1755644236426,-0.06200898,0.01781867,-0.10334830,0.00258655,-0.01530550,-0.02031009,0.99262727,0.03145411,-0.00720048,0.11683273
1755644236437,0.00105176,-0.03095662,-0.10436035,-0.00040512,-0.00540744,-0.01301125,0.99263562,0.03145186,-0.00723049,0.11676051
1755644236448,0.05811562,0.07985975,-0.13961812,0.01273511,0.00127194,-0.01161117,0.99264106,0.03152317,-0.00722337,0.11669549
1755644236459,-0.04340060,-0.01672228,-0.01138899,0.00778176,0.00147663,-0.01601445,0.99265019,0.03156636,-0.00721517,0.11660661
1755644236470,0.00856366,0.01158374,-0.02957685,0.00168895,-0.00006917,-0.01235492,0.99265801,0.03157582,-0.00721556,0.11653742
1755644236482,0.12259246,-0.05725733,0.02850987,-0.00676414,-0.00912162,-0.01199570,0.99266673,0.03153794,-0.00726664,0.11647025
1755644236493,-0.04419031,-0.07507600,0.04739767,-0.02478632,-0.04297925,-0.03874641,0.99269477,0.03139914,-0.00750732,0.11625327
1755644236504,0.09313226,-0.00688989,0.00784022,-0.02386334,-0.01286285,-0.02710486,0.99271621,0.03126550,-0.00757936,0.11610148
1755644236515,-0.11902873,-0.01520527,0.07365051,-0.04035995,-0.02402818,-0.01772219,0.99273387,0.03103949,-0.00771391,0.11600224
1755644236526,-0.18135128,0.06938999,0.07311973,-0.04867961,-0.00981049,-0.01208643,0.99274969,0.03076932,-0.00776836,0.11593516
1755644236537,-0.04573352,-0.02743112,-0.14873079,0.00781001,0.00941429,0.00480903,0.99274560,0.03081305,-0.00771564,0.11596209
1755644236549,0.09524765,0.06057425,-0.19630479,-0.00439556,0.00012360,-0.01180958,0.99275401,0.03078866,-0.00771496,0.11589654
1755644236560,0.04232941,0.03071906,0.09106870,-0.01002464,0.01204441,-0.00691329,0.99276073,0.03073302,-0.00764811,0.11585817
1755644236571,-0.02896150,0.01999758,0.09004155,-0.00688731,-0.00134655,-0.01162645,0.99276946,0.03069445,-0.00765565,0.11579307
1755644236582,0.00997846,-0.05654458,-0.00843417,0.00193559,-0.01615706,-0.00411729,0.99277112,0.03070529,-0.00774613,0.11577001
1755644236593,-0.02613405,-0.02898504,-0.02340186,0.00317794,-0.01002639,-0.02376152,0.99278563,0.03072309,-0.00780228,0.11563694
1755644236604,0.05205437,-0.11335427,0.02423575,-0.00311872,-0.00930579,-0.01323732,0.99279432,0.03070578,-0.00785392,0.11556348
1755644236615,0.02918838,0.00091608,0.22532326,-0.01684355,-0.01252764,-0.00065959,0.99279710,0.03061145,-0.00792408,0.11555978
1755644236627,0.07341293,0.00570197,-0.04086415,-0.01257189,-0.00953150,0.01262716,0.99279061,0.03054105,-0.00797746,0.11563050
1755644236638,0.04112000,-0.00159815,-0.04631291,-0.00616985,-0.00949380,-0.00095299,0.99279185,0.03050681,-0.00803015,0.11562521
1755644236649,-0.02982407,0.02985617,-0.13703896,-0.00931295,-0.01002093,-0.00694778,0.99279753,0.03045466,-0.00808626,0.11558630
1755644236660,-0.03635009,0.14302454,-0.01021604,-0.00771301,-0.00697685,-0.01647898,0.99280927,0.03041146,-0.00812533,0.11549402
1755644236671,-0.14971437,0.10372649,0.07130022,-0.02569919,-0.00561159,-0.01636751,0.99282394,0.03026883,-0.00815648,0.11540318
1755644236683,-0.03845929,-0.06966211,-0.04825553,-0.00795513,0.01369290,-0.01093748,0.99283296,0.03022468,-0.00808048,0.11534247
1755644236694,-0.03488131,0.06551711,-0.01109719,-0.01383661,0.01389209,-0.00191921,0.99283727,0.03014581,-0.00800130,0.11533153
1755644236705,0.06243110,-0.00004456,0.00474535,-0.00788058,0.01227544,-0.00220855,0.99284057,0.03010208,-0.00793317,0.11531928
1755644236716,-0.05688869,0.08216663,0.16018942,0.00150182,0.00342993,-0.01447373,0.99284971,0.03011034,-0.00791430,0.11523967
1755644236727,0.08337326,-0.05926134,0.10633835,-0.00033631,-0.01114570,-0.01377535,0.99285830,0.03010844,-0.00797728,0.11516184
1755644236738,0.01114890,-0.09995646,0.08176730,-0.01711418,-0.02939570,-0.03749595,0.99288373,0.03001431,-0.00813895,0.11495561
1755644236749,0.05706530,-0.16363387,-0.04015258,-0.02011494,-0.01021199,-0.03944077,0.99291246,0.02990066,-0.00819665,0.11473277
1755644236761,-0.02749539,-0.02104590,0.01624144,-0.02758968,0.01182419,-0.01625864,0.99292802,0.02974754,-0.00813103,0.11464254
1755644236772,-0.18237758,0.01408585,-0.03312561,0.00554826,0.01062251,-0.00846864,0.99293305,0.02977861,-0.00807154,0.11459511
1755644236783,-0.05181465,0.06173831,0.00173745,0.00571838,0.00890305,0.00236892,0.99293098,0.02981034,-0.00802213,0.11460826
1755644236794,-0.00471740,0.05997990,0.01324575,0.00736679,0.00299619,0.01249847,0.99292180,0.02985160,-0.00800535,0.11467825
1755644236805,0.07388809,-0.01140395,0.00403890,0.02435991,0.00139969,0.00217203,0.99291634,0.02998801,-0.00799751,0.11469042
1755644236816,-0.17622208,0.04290172,0.10821751,0.01988935,-0.01840217,-0.00390645,0.99291468,0.03009840,-0.00809964,0.11466873
1755644236828,0.07320103,-0.02137384,0.06487709,0.01386658,-0.01613065,-0.01090786,0.99291864,0.03017605,-0.00818998,0.11460765
1755644236839,-0.00492403,-0.08341053,0.03419396,0.01406754,-0.02678451,-0.03077412,0.99293472,0.03025413,-0.00833863,0.11443685
1755644236850,0.10466463,0.03134802,0.00210506,-0.00356548,-0.00713131,-0.00673687,0.99293934,0.03023416,-0.00837857,0.11439913
1755644236861,-0.00000000,0.05345602,-0.08398534,-0.00112593,-0.01744490,0.00564913,0.99293506,0.03022785,-0.00847626,0.11443076
1755644236872,0.01509173,0.05133737,0.09882405,0.00015679,-0.00625054,0.00836893,0.99292938,0.03022873,-0.00851095,0.11447721
1755644236883,-0.08836991,0.02586008,0.10542875,-0.00072198,-0.01257014,0.01100480,0.99292179,0.03022468,-0.00858134,0.11453884
1755644236895,0.02779713,0.01971933,-0.00795901,-0.00042634,-0.01498633,0.01855753,0.99290914,0.03022229,-0.00866526,0.11464276
1755644236906,0.02725496,-0.00559569,0.03178485,-0.00335745,-0.00183110,0.00000405,0.99290962,0.03020366,-0.00867543,0.11464278
1755644236917,-0.08640718,-0.00823405,-0.03577754,0.00738789,0.00616274,-0.00540092,0.99291215,0.03024503,-0.00864092,0.11461254
1755644236928,-0.05068731,0.01580658,-0.08484131,0.01284380,-0.00036513,-0.00986185,0.99291628,0.03031632,-0.00864294,0.11455780
1755644236939,0.09699482,0.04015247,0.03047717,0.00095870,0.00989647,-0.01072008,0.99292345,0.03032164,-0.00858802,0.11449831
1755644236950,0.05816699,-0.03241393,-0.02630528,-0.00807647,-0.00019693,-0.00264993,0.99292653,0.03027641,-0.00858912,0.11448347
1755644236962,-0.02542130,0.01330461,0.06438480,-0.02316270,-0.00359755,-0.00783391,0.99293536,0.03014670,-0.00860927,0.11443960
1755644236973,-0.02481670,-0.05787899,0.00741413,-0.02138734,0.00868318,-0.01484513,0.99294887,0.03002800,-0.00856107,0.11435721
1755644236984,-0.03836419,-0.00749775,-0.02813638,-0.01693120,0.01460307,0.00042400,0.99295216,0.02993318,-0.00847930,0.11435958
1755644236995,-0.04552054,0.04007949,-0.10044672,-0.00745564,0.01652027,0.00214480,0.99295283,0.02989106,-0.00838596,0.11437170
1755644237006,0.05868536,0.01393071,-0.00916156,0.00219449,0.01487443,0.00393183,0.99295064,0.02990324,-0.00830340,0.11439352
1755644237017,0.14445395,-0.08932930,-0.02272840,0.01741144,-0.00975352,0.01159894,0.99293995,0.02999900,-0.00835705,0.11445732
1755644237028,0.14272584,-0.05766152,0.03754279,0.01625801,-0.01464268,-0.01086102,0.99294354,0.03009086,-0.00843978,0.11439595
1755644237039,0.03170298,-0.04101007,0.03064367,-0.00713030,-0.02243841,-0.00706622,0.99294815,0.03005164,-0.00856319,0.11435709
1755644237051,-0.09467494,0.03838233,-0.07738695,-0.00687051,-0.02234910,-0.00674396,0.99295254,0.03001351,-0.00868723,0.11431966
1755644237062,-0.01978398,0.00501906,-0.09746802,-0.00412149,-0.01669987,0.00449696,0.99294948,0.02999022,-0.00878158,0.11434507
1755644237073,-0.04734472,0.02440015,-0.00091509,-0.00854816,-0.01192626,0.00426581,0.99294760,0.02994278,-0.00884777,0.11436874
1755644237084,0.02854212,0.02539765,0.00253976,-0.00944006,0.00334537,0.00338844,0.99294718,0.02989039,-0.00882921,0.11438755
1755644237095,-0.06625290,0.06964870,-0.06332914,-0.00602984,-0.01202638,0.01259293,0.99293940,0.02985632,-0.00889716,0.11445870
1755644237107,0.02540238,-0.08994067,0.02067386,-0.00623387,-0.00560390,-0.00314918,0.99294220,0.02982141,-0.00892854,0.11444106
1755644237118,0.00535703,-0.07608037,0.05630158,-0.00467343,-0.00641566,-0.01439410,0.99295177,0.02979571,-0.00896382,0.11436189
1755644237129,0.06722570,0.02824086,-0.04362898,-0.00011564,0.00495100,-0.00570210,0.99295568,0.02979507,-0.00893635,0.11433025
1755644237140,-0.09989740,0.01910870,-0.06228470,0.00380042,0.00543424,-0.01383006,0.99296416,0.02981616,-0.00890619,0.11425349
1755644237151,-0.06645055,0.11155903,-0.03614272,-0.00399022,0.01243254,-0.00822682,0.99297081,0.02979361,-0.00883594,0.11420701
1755644237162,0.03209115,0.01607982,-0.00541453,-0.00154628,0.00748542,0.00403488,0.99296886,0.02978503,-0.00879440,0.11422940
1755644237173,-0.01378729,-0.06119623,-0.02721176,-0.00722795,0.00554705,-0.00055388,0.99297069,0.02974492,-0.00876361,0.11422633
1755644237185,-0.02851416,-0.00702259,0.01631184,-0.00982136,0.00862668,-0.01128459,0.99298003,0.02968992,-0.00871530,0.11416313
1755644237196,-0.00285099,-0.04157690,-0.09028127,-0.00569830,0.00296425,-0.00512469,0.99298442,0.02965801,-0.00869870,0.11413444
1755644237207,-0.01449252,-0.05416876,0.00534560,-0.00316510,0.01246906,-0.00580589,0.99298930,0.02964028,-0.00862888,0.11410192
1755644237218,0.05909056,0.06039715,0.07601476,0.00357216,0.01776866,0.00103333,0.99298890,0.02966011,-0.00853026,0.11410766
1755644237229,0.02245260,-0.00236298,-0.01677203,0.00826401,0.01261281,0.01152390,0.99298070,0.02970639,-0.00845963,0.11417219
1755644237240,0.02112583,-0.01454749,-0.01996393,-0.00088629,0.00874190,0.00211720,0.99297991,0.02970147,-0.00841111,0.11418394
1755644237252,-0.01024600,-0.00197557,-0.03331396,0.00140167,0.00035142,-0.00654558,0.99298391,0.02970932,-0.00840914,0.11414729
1755644237263,0.06818612,0.02613405,0.01330461,-0.00035966,-0.01172941,-0.00376034,0.99298583,0.02970730,-0.00847483,0.11412623
1755644237274,-0.00797837,-0.00998835,-0.02144351,0.00825688,-0.01428875,-0.01342741,0.99299228,0.02975271,-0.00855342,0.11405238
1755644237285,0.00722891,-0.07761899,0.03815280,0.00638930,-0.00485812,0.00052582,0.99299062,0.02978881,-0.00858086,0.11405535
1755644237296,-0.07581406,-0.03366446,0.05932111,-0.00030183,0.00045637,0.00186145,0.99298951,0.02978714,-0.00857833,0.11406568
1755644237307,-0.09110318,0.06185273,-0.03737961,-0.00219302,0.00264489,-0.00434571,0.99299280,0.02977486,-0.00856352,0.11404134
1755644237318,0.09289145,0.15794484,-0.06072974,0.00162252,0.01942804,-0.00108792,0.99299414,0.02978386,-0.00845569,0.11403531
1755644237330,-0.09481787,0.03628235,-0.04946494,0.00299897,-0.00180423,-0.00514176,0.99299684,0.02980051,-0.00846571,0.11400677
1755644237341,0.03208217,0.00897676,0.03805490,0.01183950,0.00154322,-0.01269644,0.99300308,0.02986681,-0.00845707,0.11393567
1755644237352,0.05892041,-0.07852095,-0.08636116,0.00613872,-0.01158565,-0.00647146,0.99300565,0.02990119,-0.00852194,0.11389943
1755644237363,0.09974839,-0.04702128,0.03616357,0.00001795,0.01081480,-0.01845258,0.99301790,0.02990129,-0.00846192,0.11379702
1755644237374,-0.08579075,0.01583454,0.11288583,-0.01478077,0.00330487,-0.01948065,0.99303304,0.02981851,-0.00844342,0.11368793
1755644237385,0.03943866,0.02601526,-0.00700868,-0.00209532,0.00835544,-0.01107400,0.99304089,0.02980678,-0.00839662,0.11362591
1755644237397,0.01097109,0.01340611,-0.04418348,-0.00663671,0.00165917,-0.00742110,0.99304678,0.02976995,-0.00838742,0.11358472
1755644237408,0.09312470,0.00749835,0.06276847,-0.01597689,0.00272241,-0.00540378,0.99305299,0.02968127,-0.00837231,0.11355473
1755644237419,-0.04187013,-0.08011339,0.16107437,-0.01395457,-0.01841889,-0.00378395,0.99305687,0.02960313,-0.00847545,0.11353354
1755644237430,-0.01556254,0.01528502,0.22581660,-0.04036046,-0.03884511,-0.00243977,0.99306321,0.02937913,-0.00869104,0.11352000
1755644237441,-0.01427420,0.02345858,0.07436540,-0.02252519,-0.03534222,-0.00377237,0.99306760,0.02925299,-0.00888896,0.11349888
1755644237452,0.01464468,-0.02366991,-0.21726217,0.00953460,-0.03692799,0.00275154,0.99306244,0.02930590,-0.00909391,0.11351415
1755644237463,-0.03138227,-0.05102347,0.00280497,0.00194022,-0.00234174,-0.00671198,0.99306629,0.02931677,-0.00910702,0.11347656
1755644237475,-0.02807995,-0.00475450,0.00031423,-0.00420929,-0.00812984,-0.00211855,0.99306791,0.02929341,-0.00915214,0.11346480
1755644237486,-0.15914803,0.02645083,0.05777744,-0.00931896,-0.00550798,0.00658155,0.99306495,0.02924122,-0.00918299,0.11350166
1755644237497,-0.04917953,-0.01235428,0.00368253,0.00382158,0.00146868,0.01473805,0.99305496,0.02926262,-0.00917476,0.11358419
1755644237508,-0.06916971,0.04056280,-0.11292989,0.01216733,-0.00193314,0.01643582,0.99304243,0.02933015,-0.00918549,0.11367541
1755644237519,0.00120941,0.14162211,0.03737082,0.01348629,0.00561141,0.01565183,0.99303056,0.02940500,-0.00915435,0.11376228
1755644237530,-0.06212884,0.03742349,0.11859958,0.00634787,-0.00488000,0.00331925,0.99302712,0.02944055,-0.00918168,0.11378087
1755644237541,0.03777468,-0.02373146,-0.01723088,0.01382683,-0.01092761,0.00302699,0.99302236,0.02951729,-0.00924233,0.11379767
1755644237553,0.14264997,-0.07329521,0.00519792,0.01793604,-0.00958999,0.00480467,0.99301578,0.02961773,-0.00929603,0.11382457
1755644237564,-0.01186735,-0.04517153,0.07312513,0.01283019,-0.00596039,-0.00868522,0.99301887,0.02968894,-0.00932911,0.11377637
1755644237575,-0.09872436,-0.02675537,-0.02639266,0.01918051,0.00420918,-0.02063665,0.99302920,0.02979731,-0.00930533,0.11365977
1755644237586,0.05548075,0.10890392,-0.10846581,0.00156802,0.01223520,0.01100252,0.99302264,0.02980593,-0.00923803,0.11372029
1755644237597,-0.04575835,0.02419884,-0.02068694,0.00079541,0.00973371,0.01027573,0.99301642,0.02981038,-0.00918353,0.11377783
1755644237608,-0.09075643,-0.02589647,0.09051885,-0.00757321,0.00664685,0.00868555,0.99301246,0.02976797,-0.00914630,0.11382647
1755644237619,-0.10188471,-0.04543799,0.03517694,-0.00084704,0.00963440,-0.00290446,0.99301492,0.02976332,-0.00909331,0.11381050
1755644237631,0.09935259,0.00934562,-0.09798326,0.00894462,0.01102156,0.00947263,0.99300790,0.02981341,-0.00903159,0.11386354
1755644237642,0.01268673,0.01267736,-0.00426573,0.00888287,0.00952614,0.00197874,0.99300560,0.02986359,-0.00897777,0.11387472
1755644237653,0.06905560,0.06649887,0.07200466,0.00220480,0.01435947,-0.00869628,0.99301143,0.02987572,-0.00889879,0.11382689
1755644237664,0.02937813,-0.03046669,0.05463313,-0.01295388,0.00598683,0.01209029,0.99300614,0.02980318,-0.00886527,0.11389460
1755644237675,-0.01639318,-0.01769988,-0.02613405,0.00004260,0.00900475,0.00680558,0.99300221,0.02980342,-0.00881484,0.11393271
1755644237686,0.01165528,0.02096410,-0.10795645,0.00282971,0.00345712,0.00816796,0.99299676,0.02981898,-0.00879583,0.11397763
1755644237698,0.08667434,-0.00680997,-0.06063532,0.00279453,-0.00733899,0.00860218,0.99299039,0.02983463,-0.00883693,0.11402581
1755644237709,0.09574566,-0.01449252,0.03338031,-0.00272640,-0.00996793,0.00014512,0.99299026,0.02981936,-0.00889275,0.11402662
1755644237720,-0.06997564,-0.06500786,-0.09921719,0.00288078,-0.02989969,-0.00856077,0.99299370,0.02983521,-0.00905719,0.11397953
1755644237731,0.05027560,-0.05371501,0.03897287,-0.00215319,-0.01724302,0.00071047,0.99299271,0.02982304,-0.00915462,0.11398355
1755644237742,-0.03397484,0.02242014,-0.03500016,-0.00133913,-0.00957989,-0.00004598,0.99299247,0.02981561,-0.00920779,0.11398329
1755644237753,-0.04499011,0.02854212,-0.00399106,-0.00690072,-0.00526780,-0.00279450,0.99299513,0.02977731,-0.00923702,0.11396778
1755644237764,-0.02704371,0.03201582,0.02406751,-0.01296313,0.00095275,0.00286147,0.99299552,0.02970472,-0.00923169,0.11398381
1755644237776,-0.04252723,0.05535667,-0.01900658,-0.00158042,0.00089934,0.00628172,0.99299179,0.02969587,-0.00922665,0.11401899
1755644237787,0.00029371,0.00520695,-0.06460958,0.00930970,-0.00362993,0.01172296,0.99298258,0.02974753,-0.00924680,0.11408405
1755644237798,0.08756140,-0.03821741,-0.05720517,0.01332122,0.01050327,0.00591259,0.99297714,0.02982147,-0.00918850,0.11411686
1755644237809,-0.09372300,-0.04616160,-0.07634739,0.00783179,-0.00376255,0.01043625,0.99296890,0.02986532,-0.00920957,0.11417531
1755644237820,-0.06386557,-0.03421123,0.02950533,-0.00122853,0.00361393,0.00494486,0.99296614,0.02985851,-0.00918952,0.11420275
1755644237831,-0.07038776,-0.05974494,-0.00919153,0.00182810,0.00008581,0.00607861,0.99296196,0.02986865,-0.00918904,0.11423649
1755644237842,0.01046218,0.13136802,-0.01633111,-0.01655020,-0.00154335,0.00180966,0.99296350,0.02977597,-0.00919768,0.11424662
1755644237854,0.12804214,0.05635858,0.05215588,-0.01946882,0.01375739,0.00467849,0.99296445,0.02966792,-0.00912133,0.11427259
1755644237865,-0.05871279,0.02349710,-0.01153879,-0.00769232,0.01597093,-0.00180774,0.99296772,0.02962484,-0.00903189,0.11426246
1755644237876,0.00844644,0.01257356,-0.15114406,0.02037313,0.01484205,0.00254855,0.99296345,0.02973791,-0.00894952,0.11427661
1755644237887,0.02964214,-0.04310941,-0.01675062,0.01228723,0.01855734,0.00048338,0.99296201,0.02980672,-0.00884560,0.11427931
1755644237898,0.00298681,-0.02616433,0.06854341,0.00510848,0.01513212,0.00173235,0.99296080,0.02983507,-0.00876161,0.11428893
1755644237909,-0.01816541,-0.08882153,0.03375381,0.00634619,0.00548134,0.00345727,0.99295777,0.02987061,-0.00873092,0.11430829
1755644237920,-0.00440787,-0.07074626,0.09643762,-0.01335964,0.00311993,-0.00363640,0.99296247,0.02979647,-0.00871360,0.11428811
1755644237932,-0.02295345,-0.00804997,-0.01004695,-0.01510130,-0.01144199,-0.01134582,0.99297175,0.02971190,-0.00877768,0.11422457
1755644237943,0.08895223,0.01054132,0.00348570,-0.01122869,-0.00760905,-0.00694370,0.99297767,0.02964958,-0.00881991,0.11418603
1755644237954,-0.07716046,0.03096094,-0.04547388,-0.00312058,-0.00745862,-0.01463960,0.99298716,0.02963226,-0.00886130,0.11410478
1755644237965,-0.03929882,0.11535540,0.06332178,-0.01139270,0.00377142,-0.00397681,0.99299185,0.02956789,-0.00884000,0.11408231
1755644237976,-0.04610320,-0.04474823,-0.00399213,0.01085139,0.01774723,0.00688034,0.99298654,0.02962812,-0.00874150,0.11412050
1755644237987,-0.16665693,0.10292093,0.03712894,0.00291651,0.01681836,0.02162983,0.99297307,0.02964430,-0.00864816,0.11424055
1755644237998,0.03402778,0.00411809,-0.00450978,0.03195582,0.02763078,0.05129232,0.99293596,0.02982326,-0.00849342,0.11452778
1755644238010,0.02903884,-0.08059001,-0.02217759,0.01149850,0.00230907,0.03673654,0.99291061,0.02988707,-0.00848061,0.11473167
1755644238021,0.03337976,-0.08611011,0.02769553,-0.01360514,0.00821581,0.00169645,0.99291218,0.02981156,-0.00843501,0.11474109
1755644238032,-0.01339450,0.02551334,-0.03053360,-0.00060266,0.00409781,0.00267970,0.99291075,0.02980819,-0.00841206,0.11475609
1755644238043,0.12913493,0.07584739,-0.02651743,0.00299447,0.00211566,0.01251615,0.99290231,0.02982481,-0.00840032,0.11482556
1755644238054,-0.00362824,-0.01354541,0.01197318,0.01269124,-0.00633091,0.00089715,0.99289932,0.02989525,-0.00843546,0.11483054
1755644238065,-0.02578945,0.00216393,-0.01385790,0.00869531,-0.00296961,-0.00605064,0.99290163,0.02994394,-0.00845209,0.11479665
1755644238076,0.06302979,0.05852905,-0.00294902,0.00019651,0.00946161,-0.00135377,0.99290291,0.02994503,-0.00839958,0.11478914
1755644238087,-0.08804517,-0.04958588,0.06192188,-0.00031228,-0.00002699,-0.00079148,0.99290347,0.02994330,-0.00839973,0.11478475
1755644238099,0.10984649,0.01560766,0.09313119,-0.01818214,0.00083555,0.01600523,0.99289621,0.02984148,-0.00839505,0.11487438
1755644238110,-0.11047576,0.05155536,0.07911490,-0.02133676,-0.01844546,0.00541571,0.99289541,0.02972199,-0.00849834,0.11490470
1755644238121,0.06279870,-0.04890127,0.07655036,-0.01277866,-0.01117992,0.01131180,0.99288973,0.02965107,-0.00856039,0.11496748
1755644238132,-0.03676611,-0.05805176,-0.05889835,-0.00950136,-0.00706122,-0.00741102,0.99289572,0.02959834,-0.00859958,0.11492635
1755644238143,0.01064282,0.04692517,-0.08199811,-0.01199039,0.00153029,-0.01219480,0.99290561,0.02953179,-0.00859109,0.11485867
1755644238154,0.00665444,0.00389763,-0.07402615,-0.00542695,0.00224582,-0.00294563,0.99290853,0.02950140,-0.00857851,0.11484218
1755644238166,-0.07198743,-0.07935248,0.11297038,-0.00385394,0.00161792,-0.00301715,0.99291120,0.02947982,-0.00856945,0.11482528
1755644238177,-0.01317395,-0.09294113,0.00545315,0.01529523,0.00489723,0.00258042,0.99290726,0.02956471,-0.00854227,0.11483960
1755644238188,-0.08030493,0.04112000,0.05285129,0.00567304,0.00376426,0.01121697,0.99289930,0.02959619,-0.00852138,0.11490186
1755644238199,-0.07009962,-0.00732438,-0.05909057,0.01370431,0.00715259,0.01149212,0.99288990,0.02967294,-0.00848132,0.11496621
1755644238210,-0.06520673,0.02238707,0.02660598,0.01384891,0.01389158,0.01716539,0.99287722,0.02974980,-0.00840423,0.11506148
1755644238221,0.04229179,0.04053454,-0.05250248,0.02660579,0.00655654,0.03485238,0.99285042,0.02989879,-0.00836751,0.11525665
1755644238232,0.16220154,-0.08347100,-0.03277182,0.04096611,-0.00069270,0.02405262,0.99282801,0.03012615,-0.00837135,0.11539014
1755644238244,0.05853514,-0.00779313,0.07512523,0.02515184,-0.02232517,0.00483278,0.99281951,0.03026700,-0.00849637,0.11541721
1755644238255,0.11764352,-0.01723661,0.01742134,0.01820388,-0.03348158,0.00197945,0.99281360,0.03036712,-0.00868052,0.11542810
1755644238266,0.07238484,0.03011464,0.11332243,-0.01002514,-0.03686438,-0.00725545,0.99281821,0.03031098,-0.00888696,0.11538746
1755644238277,0.03060195,0.00139933,0.03570540,0.00245591,-0.01219517,-0.02388328,0.99283284,0.03032486,-0.00895587,0.11525252
1755644238288,-0.06104975,0.00238235,-0.05391141,0.00192978,-0.02201581,-0.00977217,0.99283766,0.03033547,-0.00907695,0.11519878
1755644238299,-0.02945907,0.08764716,0.05566152,-0.01353247,0.00367828,-0.00714693,0.99284474,0.03026037,-0.00905654,0.11515911
1755644238310,-0.15340539,0.04195468,-0.12175022,-0.00516217,0.00645007,-0.00905505,0.99285182,0.03023146,-0.00902042,0.11510840
1755644238322,0.06700129,0.00152020,-0.11608633,0.00600664,0.01298115,0.01345070,0.99284264,0.03026540,-0.00894707,0.11518440
1755644238333,-0.05903427,-0.04339647,0.02804765,-0.00093193,0.01228078,-0.01101309,0.99285050,0.03026022,-0.00887892,0.11512328
1755644238344,0.11632025,-0.01073181,0.08424021,-0.00586728,0.00493624,0.00446365,0.99284888,0.03022795,-0.00885177,0.11514783
1755644238355,0.06459214,-0.01902170,-0.02833493,0.00800618,-0.00514607,-0.00458141,0.99285023,0.03027279,-0.00888059,0.11512217
1755644238366,-0.03314013,-0.03018205,0.08680765,-0.01047246,0.00353392,-0.01647495,0.99286300,0.03021362,-0.00886062,0.11502909
1755644238377,-0.06004711,0.02980668,-0.01943919,-0.01365619,0.01162309,-0.01367347,0.99287456,0.03013851,-0.00879669,0.11495388
1755644238388,0.02890054,0.12704320,-0.05905337,-0.00290429,0.02247234,0.01085250,0.99286917,0.03012239,-0.00867197,0.11501412
1755644238400,0.01402918,-0.08804517,-0.02491388,0.00293376,0.00841450,0.03001921,0.99284977,0.03013867,-0.00862527,0.11518072
1755644238411,0.06839587,0.14261466,-0.12473391,0.00448743,-0.00462462,0.01024908,0.99284212,0.03016380,-0.00865117,0.11523812
1755644238422,0.26799282,0.01354219,-0.10156643,-0.00044133,-0.01415621,0.01538420,0.99283150,0.03016133,-0.00873044,0.11532427
1755644238433,0.05702592,-0.04690250,0.10038333,-0.01764242,-0.03001692,-0.00583135,0.99283675,0.03006342,-0.00889704,0.11529190
1755644238444,-0.07509881,-0.19598106,0.08962508,-0.01045328,-0.03976650,-0.02665892,0.99285398,0.03000435,-0.00912172,0.11514128
1755644238455,-0.02805207,-0.04144055,-0.02501473,-0.00180996,-0.01580582,-0.00084024,0.99285401,0.02999440,-0.00920865,0.11513666
1755644238466,-0.04110174,0.02476255,-0.09038710,-0.00176178,-0.01317169,0.00640640,0.99284946,0.02998453,-0.00928241,0.11517254
1755644238478,-0.00690444,0.06151478,0.04470612,-0.00540576,-0.01050876,0.00396929,0.99284726,0.02995453,-0.00934073,0.11519457
1755644238489,-0.06657013,-0.01701282,-0.01484675,-0.00050562,-0.01110135,-0.00280210,0.99284858,0.02995170,-0.00940290,0.11517887
1755644238500,0.04636798,0.03276750,-0.04766702,0.00263625,-0.00443535,-0.00382717,0.99285037,0.02996633,-0.00942752,0.11515763
1755644238511,0.03773364,0.10993552,-0.05974494,-0.01005069,-0.00880115,-0.00203035,0.99285290,0.02991055,-0.00947636,0.11514636
1755644238522,0.04351823,0.00777279,-0.11497378,-0.00172283,-0.00716324,-0.00745146,0.99285764,0.02990090,-0.00951648,0.11510464
1755644238533,0.02138241,-0.05024865,-0.09253830,0.00882640,-0.00281529,-0.01204287,0.99286382,0.02995033,-0.00953224,0.11503720
1755644238545,-0.06040579,-0.01265347,0.14963662,-0.01028626,-0.00803844,-0.00534992,0.99286855,0.02989324,-0.00957686,0.11500750
1755644238556,-0.06551141,-0.10462432,0.08009860,0.00100625,-0.00968860,-0.00618647,0.99287181,0.02989878,-0.00963014,0.11497348
1755644238567,-0.06180323,-0.00736682,0.02030757,0.00113776,-0.00103904,-0.00884544,0.99287734,0.02990520,-0.00963601,0.11492350
1755644238578,-0.07952909,0.09552595,0.00996269,-0.00261750,0.01742366,-0.01124173,0.99288601,0.02989055,-0.00953844,0.11486055
1755644238589,-0.09475309,0.06365501,-0.05313961,-0.00379887,0.02578048,0.00466076,0.99288502,0.02986946,-0.00939536,0.11488642
1755644238600,0.04057518,0.04606701,-0.00804692,-0.00423133,0.02887576,0.02176353,0.99287335,0.02984619,-0.00923654,0.11500611
1755644238611,0.19355310,0.04791406,0.02355071,-0.00194625,0.02374160,0.01636540,0.99286420,0.02983519,-0.00910240,0.11509858
1755644238622,0.13786053,-0.05291531,-0.02283835,-0.00326129,0.00074776,0.00044717,0.99286449,0.02981726,-0.00909829,0.11510104
1755644238634,0.09707618,-0.01502089,0.00505974,-0.00709281,-0.01130341,-0.00155990,0.99286610,0.02977789,-0.00916103,0.11509238
1755644238645,-0.04214163,-0.14297391,-0.01226275,0.00148504,-0.02051883,-0.00797731,0.99287000,0.02978628,-0.00927696,0.11504731
1755644238656,-0.03256635,-0.09016432,0.01103240,-0.00155503,-0.01594275,-0.01058029,0.99287623,0.02977765,-0.00936544,0.11498859
1755644238667,-0.02458228,0.07750855,0.08357760,-0.00736059,-0.01301217,-0.00478912,0.99287988,0.02973643,-0.00943831,0.11496177
1755644238678,-0.10557084,-0.06998282,0.07047415,-0.01215334,-0.01847739,-0.00335138,0.99288307,0.02966898,-0.00954086,0.11494317
1755644238689,-0.03126883,-0.01510253,-0.04169141,0.00599384,-0.00602436,-0.01020021,0.99288835,0.02970255,-0.00957459,0.11488605
1755644238700,-0.00013606,0.11936893,-0.11019792,0.00236490,-0.00201867,-0.00242481,0.99288941,0.02971567,-0.00958580,0.11487259
1755644238712,-0.12577881,-0.03471011,0.07341129,-0.00017799,0.00054217,-0.00122757,0.99289026,0.02971468,-0.00958279,0.11486578
1755644238723,-0.11416846,0.05756800,0.07546729,-0.00038912,0.00426355,0.00181303,0.99288938,0.02971252,-0.00955912,0.11487584
1755644238734,0.05476379,-0.00850480,0.00811204,0.00600030,0.00563586,0.01866342,0.99287658,0.02974613,-0.00952756,0.11498036
1755644238745,0.06153381,-0.03088570,0.04133932,0.00786470,0.00178803,0.01117187,0.99286811,0.02979017,-0.00951755,0.11504292
1755644238756,0.09645841,-0.02340186,-0.05214931,-0.00145146,-0.00270352,0.00145845,0.99286726,0.02978204,-0.00953269,0.11505109
1755644238767,0.08841737,-0.10150646,-0.12253214,0.00209821,-0.00473040,-0.00883694,0.99287230,0.02979358,-0.00955871,0.11500248
1755644238779,0.05327348,0.11351758,0.11048415,-0.01812013,-0.00880094,-0.01305968,0.99288323,0.02969301,-0.00960755,0.11493000
1755644238790,-0.01983435,0.03507294,0.09820423,-0.01471843,-0.02111406,-0.01918564,0.99289685,0.02961133,-0.00972474,0.11482352
1755644238801,-0.13185817,0.01895307,0.03254770,-0.02185851,-0.02313393,-0.01708186,0.99291028,0.02948892,-0.00985429,0.11472786
1755644238812,-0.01544285,0.07614512,-0.12865081,-0.00540065,0.01164940,-0.00543227,0.99291533,0.02945868,-0.00978905,0.11469744
1755644238823,-0.09907181,0.05381239,-0.13328366,-0.00528694,0.01717349,0.00171082,0.99291605,0.02942907,-0.00969288,0.11470702
1755644238834,0.03139888,-0.02324018,0.01841534,0.00669988,0.02834479,-0.00297566,0.99291835,0.02946592,-0.00953698,0.11469066
1755644238845,-0.00506469,-0.03556741,0.04161661,0.01059276,0.01374080,0.00016387,0.99291721,0.02952577,-0.00945935,0.11469158
1755644238856,0.04756645,0.02668543,0.09012734,-0.00233419,-0.00387968,0.00577573,0.99291372,0.02951293,-0.00948068,0.11472335
1755644238868,0.02472584,-0.06882759,0.07164618,-0.00876587,-0.01874903,-0.00458008,0.99291713,0.02946384,-0.00958568,0.11469770
1755644238879,0.03373669,-0.03409306,0.06652304,-0.02961540,-0.02356512,-0.00914295,0.99292667,0.02929799,-0.00971764,0.11464650
1755644238890,-0.03957516,-0.01749611,-0.09105190,-0.02309111,-0.03706853,-0.00398153,0.99293092,0.02917099,-0.00992152,0.11462460
1755644238901,-0.07232005,0.01552060,-0.02793968,-0.01227321,-0.01214455,0.00574871,0.99292854,0.02910226,-0.00998953,0.11465679
1755644238912,-0.15882174,0.01594803,-0.03868537,0.00610175,0.00094939,-0.00013249,0.99292767,0.02913674,-0.00998417,0.11465605
1755644238923,-0.07921493,-0.01457530,-0.00286951,0.02109456,-0.00003791,0.02068389,0.99291111,0.02925276,-0.00998437,0.11476981
1755644238934,-0.02116210,0.01746878,0.01357675,0.02730190,0.01009038,0.01244196,0.99289911,0.02940565,-0.00992787,0.11483948
1755644238946,-0.00780286,-0.03667109,0.08893711,0.00556304,0.00157851,0.01884893,0.99288618,0.02943652,-0.00991911,0.11494409
1755644238957,0.01866198,-0.04597859,-0.03492460,0.00796743,0.00058031,0.01204600,0.99287707,0.02948114,-0.00991586,0.11501155
1755644238968,0.10216038,0.00712747,-0.05298085,0.00566027,-0.00879185,0.01327587,0.99286702,0.02951284,-0.00996509,0.11508590
1755644238979,0.01377977,0.00201945,0.08968731,-0.00084033,-0.02355975,0.00096671,0.99286520,0.02950813,-0.01009703,0.11509131
1755644238990,-0.00442901,-0.00066853,-0.01191257,0.00285003,-0.04578173,-0.00521871,0.99286547,0.02952381,-0.01034883,0.11506261
1755644239001,0.09106745,0.07513864,-0.01669124,-0.00485260,-0.02624187,0.00701132,0.99286018,0.02949663,-0.01049578,0.11510187
1755644239012,-0.08730462,-0.07330289,0.11317494,-0.01331687,-0.01120051,-0.01124226,0.99286887,0.02942339,-0.01055738,0.11504004
1755644239024,-0.04088575,0.07235029,0.12333977,-0.00225012,0.00923859,0.00189594,0.99286856,0.02941079,-0.01050565,0.11505065
1755644239035,-0.20753288,0.05937131,-0.10937617,0.01057265,0.01385422,0.00128832,0.99286681,0.02946947,-0.01042876,0.11505780
1755644239046,0.06431845,0.04700170,-0.21898880,0.01913809,0.03620448,0.01213408,0.99285785,0.02957664,-0.01022601,0.11512576
1755644239057,0.02217975,-0.02831643,-0.01632490,-0.00153875,0.03652540,0.02110345,0.99284658,0.02956810,-0.01002330,0.11524288
1755644239068,-0.03821741,0.06518729,0.23849598,-0.03125167,0.00713628,0.00274718,0.99285036,0.02939465,-0.00998369,0.11525813
1755644239079,0.03991059,-0.13569599,-0.10400940,0.02779994,0.00264198,0.00362951,0.99284359,0.02954894,-0.00996903,0.11527827
1755644239090,0.07066040,0.10542661,0.00239723,-0.01128022,-0.00653503,0.00746568,0.99284025,0.02948577,-0.01000562,0.11532008
1755644239102,0.05875950,-0.08372244,0.03255873,-0.01340462,-0.00447315,0.00463309,0.99283920,0.02941004,-0.01003090,0.11534626
1755644239113,0.08384233,0.04239306,-0.05819986,0.00419681,-0.00656196,0.00342494,0.99283596,0.02943312,-0.01006699,0.11536509
1755644239124,0.10266366,-0.00208129,-0.03533571,0.00403937,-0.00719013,0.00423924,0.99283216,0.02945554,-0.01010689,0.11538862
1755644239135,0.02176553,0.02862224,0.07275476,-0.00790030,-0.00936112,0.00393409,0.99283037,0.02941130,-0.01015931,0.11541065
1755644239146,-0.00551362,-0.05488245,0.01596531,0.00018086,-0.01416560,0.01024536,0.99282292,0.02941230,-0.01023793,0.11546751
1755644239157,-0.02257032,-0.03493851,0.09405904,-0.02307106,-0.02071255,0.00624442,0.99282147,0.02928310,-0.01035392,0.11550248
1755644239169,-0.03207361,-0.02530251,0.00950329,-0.04004994,-0.03282499,-0.00239905,0.99282769,0.02905882,-0.01053774,0.11548905
1755644239180,-0.01702110,-0.09763603,-0.03140767,-0.00876907,-0.01246288,-0.00109355,0.99282907,0.02901059,-0.01060629,0.11548303
1755644239191,-0.10432825,0.07348605,-0.02596167,-0.01105607,-0.00229839,-0.00407979,0.99283336,0.02894923,-0.01061905,0.11546039
1755644239202,0.00563304,0.01403740,-0.11511780,0.00029926,0.00032706,0.01190217,0.99282551,0.02895092,-0.01061720,0.11552764
1755644239213,-0.00573454,0.04218920,-0.07716046,0.00831318,0.00905880,-0.00575342,0.99282841,0.02899706,-0.01056692,0.11549571
1755644239224,0.09862658,-0.01920365,-0.07262749,0.01952168,0.00731519,0.00277762,0.99282392,0.02910443,-0.01052669,0.11551098
1755644239235,-0.01749497,0.10415886,0.13259653,-0.00025249,0.00358159,0.00373882,0.99282170,0.02910299,-0.01050627,0.11553229
1755644239246,-0.15452528,-0.00216053,0.13006378,-0.00687986,0.00286630,0.00584013,0.99281923,0.02906515,-0.01049051,0.11556441
1755644239258,-0.11484728,-0.07375850,-0.03412546,-0.00294149,0.00744544,0.00656387,0.99281588,0.02904868,-0.01044881,0.11560117
1755644239269,-0.05481442,0.01486497,-0.05514053,-0.00437355,0.02636561,0.01079249,0.99281114,0.02902441,-0.01030248,0.11566107
1755644239280,-0.09481788,0.04813458,-0.16206116,0.00982103,0.03498404,0.01841976,0.99279963,0.02907891,-0.01010832,0.11576330
1755644239291,0.04523200,0.00120941,-0.03966870,0.01080023,0.01972875,0.03062225,0.99277915,0.02913886,-0.00999883,0.11593325
1755644239302,0.08612519,0.01034091,-0.00441980,0.01691928,-0.00114458,0.01158944,0.99276862,0.02923445,-0.01000529,0.11599873
1755644239313,0.38084909,-0.00980159,0.00740203,0.01326944,0.00091823,0.00133314,0.99276564,0.02930809,-0.01000020,0.11600613
1755644239325,0.19579190,-0.11522155,0.01405112,0.01147929,-0.01965945,-0.00757169,0.99276766,0.02937525,-0.01011521,0.11596184
1755644239336,0.10688023,0.05619226,0.05037172,-0.00863462,-0.02588315,-0.01289812,0.99277559,0.02932949,-0.01025239,0.11589348
1755644239347,-0.18958608,-0.08383965,-0.00312290,0.00123394,-0.02428613,-0.01552217,0.99278396,0.02933627,-0.01038596,0.11580811
1755644239358,-0.09056954,-0.01118816,-0.03817013,0.00144000,-0.01640992,-0.01514584,0.99279257,0.02934426,-0.01047704,0.11572405
1755644239369,-0.00310355,0.06418575,0.04706912,-0.00940763,-0.00757832,0.00079983,0.99279316,0.02929158,-0.01051947,0.11572853
1755644239380,-0.06818612,0.00403890,-0.02482735,0.00040324,-0.00923876,-0.00100275,0.99279320,0.02929384,-0.01057121,0.11572291
1755644239391,0.00565616,-0.04223222,-0.05207273,-0.00006393,-0.00847347,-0.00219151,0.99279412,0.02929348,-0.01061824,0.11571075
1755644239402,0.06733211,-0.02656855,-0.05898676,-0.00034324,-0.01059048,-0.00352963,0.99279585,0.02929156,-0.01067755,0.11569098
1755644239414,0.22166428,-0.09574566,-0.01817505,0.00434103,-0.01583795,-0.01222271,0.99280214,0.02931587,-0.01076624,0.11562253
1755644239425,0.12201884,-0.05049726,0.03468096,0.01348899,-0.01494952,-0.00692001,0.99280350,0.02939074,-0.01084921,0.11558413
1755644239436,-0.07982117,0.04257129,0.01402918,0.01272329,-0.02420148,-0.00186760,0.99280114,0.02946135,-0.01098353,0.11557376
1755644239447,-0.27401940,0.07810037,0.06794449,0.00745410,-0.01134606,0.00088831,0.99279859,0.02950347,-0.01104763,0.11557878
1755644239458,-0.14386110,0.01593431,0.01386910,0.00178881,-0.00792200,0.00622866,0.99279382,0.02951330,-0.01109120,0.11561304
1755644239469,-0.03418457,0.17766587,0.06463536,-0.00922045,-0.00353338,0.01542395,0.99278515,0.02946213,-0.01111081,0.11569864
1755644239480,-0.03316745,0.00415276,-0.02424479,0.00305922,-0.01231121,0.01717802,0.99277254,0.02947942,-0.01118037,0.11579570
1755644239492,0.11842388,-0.03216500,0.02456069,0.00245582,0.00472011,0.01137385,0.99276507,0.02949305,-0.01115417,0.11585882
1755644239503,0.03748866,-0.15441468,0.03600531,0.00524991,0.01593613,0.00612014,0.99276126,0.02952192,-0.01106653,0.11589248
1755644239514,0.13052135,0.05809436,-0.07119530,0.00013823,0.02187446,-0.00471386,0.99276572,0.02952270,-0.01094294,0.11586585
1755644239525,0.13507499,0.06546969,-0.08284158,-0.00211644,0.02209085,0.00936502,0.99276130,0.02951085,-0.01081923,0.11591829
1755644239536,0.09217345,0.01700791,0.02460583,-0.00862984,0.01477655,-0.00033879,0.99276381,0.02946338,-0.01073796,0.11591643
1755644239547,-0.05987938,0.00349030,0.13418216,-0.01985122,-0.00706738,-0.00758659,0.99277164,0.02935222,-0.01077753,0.11587395
1755644239558,0.07347608,0.01591240,0.09812000,-0.04960405,-0.02312232,-0.01108847,0.99278552,0.02907692,-0.01090586,0.11581241
1755644239570,-0.04692517,-0.06893647,-0.05333505,-0.03063703,-0.01429960,-0.00254137,0.99279125,0.02890688,-0.01098522,0.11579830
1755644239581,-0.03771779,-0.04176953,-0.09499011,-0.01876165,0.00252236,-0.00725168,0.99279920,0.02880181,-0.01097110,0.11575769
1755644239592,0.00166308,0.05915799,-0.00059396,-0.01910660,-0.00338475,0.00364872,0.99279970,0.02869482,-0.01099005,0.11577812
1755644239603,-0.00062846,0.02478430,0.00452989,0.00034634,-0.00477885,-0.00249693,0.99280097,0.02869674,-0.01101658,0.11576427
1755644239614,0.10473505,-0.02249506,-0.11102399,0.01493356,-0.01021341,0.01268550,0.99278973,0.02877962,-0.01107326,0.11583467
1755644239625,0.06360570,0.04263425,0.01561836,0.00233537,-0.03119123,0.00618966,0.99278334,0.02879270,-0.01124793,0.11586933
1755644239636,0.06837279,-0.12114634,0.10191669,-0.02020702,-0.04539651,-0.02405071,0.99279927,0.02868055,-0.01149988,0.11573585
1755644239648,-0.07081989,-0.02177100,0.09434136,-0.02445104,-0.03856370,-0.03838545,0.99282596,0.02854240,-0.01171777,0.11551897
1755644239659,0.00329200,-0.04308014,0.07748076,-0.02504798,-0.02373781,-0.02711197,0.99284552,0.02840589,-0.01184714,0.11537121
1755644239670,-0.10260212,-0.07911050,-0.03809492,-0.00161076,-0.00447299,-0.02304003,0.99286060,0.02839679,-0.01187241,0.11524104
1755644239681,-0.11741544,-0.01435516,0.03185446,0.00253786,0.01898682,-0.01046905,0.99286813,0.02841075,-0.01176798,0.11518346
1755644239692,-0.11419637,0.08609338,0.00341713,0.01288683,0.01116666,0.00367106,0.99286438,0.02848356,-0.01170489,0.11520420
1755644239703,-0.06356796,-0.00267355,-0.07502419,0.06583067,0.03944656,0.02618751,0.99283951,0.02884892,-0.01148596,0.11534954
1755644239714,-0.04136188,-0.03071906,-0.12989081,0.01503391,0.02048554,-0.00777345,0.99284340,0.02893236,-0.01137227,0.11530640
1755644239726,-0.02451592,0.04568001,0.09936077,-0.01421053,0.00688135,-0.01453606,0.99285561,0.02885278,-0.01133373,0.11522500
1755644239737,-0.06489130,-0.07687205,0.02451566,0.00849037,0.00153885,-0.00979513,0.99286060,0.02889947,-0.01132527,0.11517112
1755644239748,-0.00587908,0.15936588,0.18903343,-0.01515612,0.00173473,-0.00735422,0.99286795,0.02881460,-0.01131555,0.11512994
1755644239759,-0.02306305,0.04501387,-0.05477987,-0.00648503,0.01260302,0.00173447,0.99286868,0.02877861,-0.01124561,0.11513956
1755644239770,-0.03820152,-0.00743033,-0.05654137,0.01763073,0.01894571,0.01049650,0.99286019,0.02887734,-0.01113951,0.11519835
1755644239781,0.03443368,0.04390056,-0.03002688,0.04556399,0.03349674,0.01191285,0.99284720,0.02913022,-0.01095361,0.11526446
1755644239792,0.00145129,-0.04365976,-0.03918494,0.01411055,0.01322576,-0.00553055,0.99284926,0.02920853,-0.01088020,0.11523377
1755644239804,0.00624991,0.00130563,-0.00054259,-0.00129622,0.03290484,-0.02301312,0.99286643,0.02920128,-0.01069594,0.11510489
1755644239815,-0.11587892,0.04234237,-0.01940782,-0.01718846,0.02235459,-0.00316451,0.99287259,0.02910588,-0.01057187,0.11508733
1755644239826,-0.07401599,-0.00459576,-0.03591953,-0.01589095,0.02547418,0.00104411,0.99287600,0.02901768,-0.01043049,0.11509313
1755644239837,-0.02225317,0.05962400,-0.01741553,-0.01138109,0.02291820,0.01081676,0.99287221,0.02895452,-0.01030329,0.11515316
1755644239848,0.11995288,-0.09659331,0.07244419,-0.00421190,0.02206450,0.00854512,0.99286859,0.02893072,-0.01017863,0.11520144
1755644239859,0.02833662,0.00641844,-0.03287138,0.00501541,0.01362314,0.01151564,0.99286113,0.02895856,-0.01010302,0.11526535
1755644239870,0.09602729,0.05865647,0.05164188,-0.00619625,0.00859149,0.02362628,0.99284739,0.02892417,-0.01005533,0.11539648
1755644239882,0.06636002,-0.07104866,0.05560990,0.00113833,0.00057519,0.01104712,0.99283991,0.02893066,-0.01005206,0.11545944
1755644239892,0.11805647,-0.14459283,-0.05062429,0.01990809,-0.01954344,-0.00138698,0.99283669,0.02903418,-0.01015368,0.11545223
1755644239903,0.11880942,0.01807453,0.01677696,-0.01045703,-0.04044059,-0.00910940,0.99284199,0.02897562,-0.01038015,0.11540122
1755644239915,-0.18080012,0.15062717,-0.02126361,-0.03590632,-0.06058924,-0.03224442,0.99286521,0.02877454,-0.01071945,0.11522065
1755644239926,-0.08646430,0.01367067,0.01951796,-0.01079931,-0.03351285,-0.00859432,0.99287045,0.02871461,-0.01090544,0.11517295
1755644239937,-0.15189000,0.13006988,-0.00461359,-0.01186553,-0.00779125,0.01346233,0.99286314,0.02864816,-0.01094908,0.11524834
1755644239948,0.06034590,-0.14349970,-0.09764632,0.01533758,-0.00749849,0.00776202,0.99285515,0.02873405,-0.01099107,0.11529181
1755644239959,-0.05326242,0.03560137,-0.10291609,0.01311199,-0.00208061,0.02310085,0.99283817,0.02880617,-0.01100251,0.11541886
1755644239970,-0.01563723,-0.07190968,0.02327011,0.01715797,0.00728547,0.01060780,0.99282892,0.02890225,-0.01096171,0.11547827
1755644239981,-0.02257032,-0.00712747,0.15537882,0.00079127,-0.00000519,0.00683054,0.99282434,0.02890668,-0.01096174,0.11551652
1755644239992,-0.05814004,0.01397314,0.01994592,0.00482208,0.00301809,-0.00309733,0.99282574,0.02893320,-0.01094514,0.11549948
1755644240004,-0.04434581,0.06135239,-0.03348830,0.00028143,0.01246906,-0.00071031,0.99282692,0.02893478,-0.01087531,0.11549550
1755644240015,0.00084357,-0.02439383,-0.23595512,0.02196492,0.02030738,0.00827569,0.99281904,0.02905998,-0.01075956,0.11554268
1755644240026,0.01669224,0.09827809,-0.05411906,0.01238816,0.03513969,0.01646800,0.99280857,0.02912812,-0.01056629,0.11563325
1755644240037,0.03596570,-0.03601188,0.02516896,0.01276334,0.01787065,0.00855416,0.99280201,0.02919895,-0.01046711,0.11568073
1755644240048,0.00032106,-0.03576577,0.08044943,0.01537890,0.00212338,0.00199875,0.99279829,0.02928507,-0.01045522,0.11569192
1755644240059,0.07889523,-0.05187258,0.01079103,0.00647922,0.00384724,-0.00178166,0.99279861,0.02932071,-0.01043406,0.11568212
1755644240071,0.05460937,-0.02436730,0.03264165,-0.00540078,-0.00334220,-0.00224494,0.99280077,0.02929047,-0.01045278,0.11566955
1755644240082,-0.01274925,-0.07173798,-0.04026809,-0.00408328,-0.00708400,-0.00466935,0.99280410,0.02926740,-0.01049280,0.11564317
1755644240093,0.00926003,0.02135628,0.05877955,-0.01161544,0.01023503,0.00036555,0.99280636,0.02920293,-0.01043600,0.11564520
1755644240104,-0.10037531,-0.00794509,-0.01453854,-0.00753996,0.01212833,0.00915123,0.99280234,0.02916071,-0.01036808,0.11569644
1755644240115,-0.04989228,0.07079952,-0.22427768,0.00947964,0.01728531,0.00448008,0.99279886,0.02921379,-0.01027128,0.11572153
1755644240126,0.12605167,0.03973577,-0.06204375,0.00801861,0.02215215,0.01775018,0.99278754,0.02925749,-0.01015055,0.11581827
1755644240138,-0.01104784,-0.01400964,0.10522772,0.00015763,0.01223153,0.00227090,0.99278667,0.02925843,-0.01007777,0.11583178
1755644240149,-0.05540610,-0.10103846,-0.02348262,0.01688637,-0.00418928,-0.00562068,0.99278728,0.02934793,-0.01009998,0.11580199
1755644240160,0.14798923,-0.03310646,0.01052585,0.01235430,0.00237881,-0.00268402,0.99278713,0.02941588,-0.01008689,0.11578723
1755644240171,0.00711857,0.03182459,-0.02091546,-0.00679517,-0.01421523,-0.00187760,0.99278868,0.02937748,-0.01016721,0.11577662
1755644240182,0.08551504,-0.04204472,0.05812989,-0.00667829,-0.01211437,0.00341129,0.99278688,0.02934042,-0.01023445,0.11579555
1755644240194,-0.11866329,-0.01143115,0.02383502,-0.00723133,-0.01842100,-0.01075235,0.99279428,0.02929848,-0.01034129,0.11573319
1755644240270,0.01664053,0.01403686,0.02239585,-0.00106176,-0.00062199,-0.00005880,0.99279548,0.02925824,-0.01036486,0.11573096
1755644240276,-2.57306274,-0.26444938,-2.66287954,-0.03599864,-0.08237523,0.01785541,0.99278942,0.02914304,-0.01062846,0.11578810
1755644240306,0.36247214,0.03945560,0.51265246,0.00994745,0.04575588,0.00076351,0.99279082,0.02929375,-0.00993526,0.11579967
1755644240346,0.07591293,0.03223924,-0.00441542,0.01775228,0.02789892,-0.00315390,0.99279302,0.02964258,-0.00938705,0.11573769
1755644240359,-0.58790068,0.05361050,-0.17903310,0.02568354,0.07144883,-0.00352690,0.99279501,0.02981209,-0.00891548,0.11571441
1755644240377,0.31811721,-0.00920661,0.15489849,0.01260182,0.05412102,0.00352740,0.99279215,0.02992551,-0.00842839,0.11574616
1755644240392,0.00532595,0.11125241,0.09872680,0.02638094,0.04450981,-0.00589617,0.99279419,0.03013260,-0.00807899,0.11569988
1755644240407,0.06907368,0.03744304,0.05328522,0.00006351,0.02529168,0.01943424,0.99277891,0.03013307,-0.00789183,0.11584369
1755644240418,0.08560519,-0.11527025,0.21342458,-0.00632497,-0.00281224,0.00929413,0.99277419,0.03010049,-0.00790632,0.11589155
1755644240428,0.21230141,-0.12594753,0.17603928,-0.01672860,0.00731794,0.01260520,0.99276929,0.03001016,-0.00786680,0.11595962
1755644240438,0.14901773,0.01680451,0.04312118,-0.03306942,-0.02438128,0.00604600,0.99276975,0.02985308,-0.00798261,0.11598834
1755644240448,-0.04108198,-0.29922527,-0.14953098,0.00270993,-0.01369700,0.01438553,0.99276057,0.02986636,-0.00804973,0.11605883
1755644240459,-0.15155504,-0.01925623,-0.08736169,0.01110655,-0.02906875,-0.00147451,0.99275823,0.02993133,-0.00821978,0.11605020
1755644240472,0.01990084,0.10736354,-0.02928556,0.00871450,-0.00457931,0.00655313,0.99275167,0.02998492,-0.00824794,0.11609051
1755644240483,-0.16025201,0.07904048,-0.00073925,0.00717770,0.00200068,0.01092271,0.99274317,0.03002620,-0.00823644,0.11615331
1755644240495,-0.06370195,0.03890762,-0.02726770,0.01590338,0.00512501,0.01501793,0.99273031,0.03011923,-0.00820646,0.11624117
1755644240507,0.02352795,0.04407983,0.01501387,0.00886579,-0.00486125,0.03027089,0.99270679,0.03017331,-0.00823611,0.11642582
1755644240518,-0.17986406,0.08490445,0.12119369,0.00878272,-0.00251085,0.00841290,0.99269958,0.03022293,-0.00825030,0.11647335
1755644240529,-0.03642954,-0.12823483,-0.07410996,0.01718201,-0.01415744,0.01108109,0.99268900,0.03031658,-0.00832745,0.11653374
1755644240541,0.08278106,0.08283522,-0.08928545,0.00395930,0.00746782,-0.00426829,0.99269167,0.03034053,-0.00828227,0.11650792
1755644240553,0.00715162,-0.03283236,-0.04558252,0.00971331,0.02232655,-0.00868391,0.99269702,0.03039784,-0.00815055,0.11645668
1755644240564,-0.11348381,0.04384085,-0.00294910,0.04280616,0.07807147,-0.00708697,0.99269781,0.03063969,-0.00770944,0.11641664
1755644240576,-0.10679319,0.05285317,-0.12158043,0.02293423,0.05449418,0.00916503,0.99268993,0.03077157,-0.00739610,0.11646934
1755644240587,0.05580034,0.05372251,-0.04286674,-0.01309502,0.05016731,0.01477982,0.99268444,0.03069692,-0.00711015,0.11655359
1755644240599,0.06727440,-0.02396007,0.04102922,-0.02039586,0.00914803,0.01163564,0.99268058,0.03057965,-0.00705755,0.11662049
1755644240610,0.09816487,-0.21448929,0.08458859,0.01321517,0.00947280,-0.00750508,0.99268361,0.03065365,-0.00700450,0.11657846
1755644240621,-0.15234917,0.05733620,0.13229067,0.00090702,0.00477370,-0.02707615,0.99270160,0.03065878,-0.00697753,0.11642548
1755644240633,0.00609637,0.02816256,-0.06150116,0.04105632,0.03146094,0.04206305,0.99266714,0.03089485,-0.00679663,0.11666735
1755644240644,-0.17166052,0.03349683,-0.07926582,0.01786520,0.04923342,0.02905207,0.99264710,0.03099311,-0.00652584,0.11682713
1755644240655,-0.00469117,0.01124412,-0.03369349,0.01684209,0.06317019,0.01074778,0.99263933,0.03108743,-0.00617209,0.11688732
1755644240666,0.00403756,-0.02376357,-0.01803269,0.01874478,0.01437018,0.06930727,0.99259162,0.03119052,-0.00609306,0.11726851
1755644240677,0.15578328,0.03287487,-0.00138446,0.03895874,0.03279308,0.03868804,0.99255995,0.03141064,-0.00590777,0.11748710
1755644240689,-0.09319113,-0.11697879,0.12827657,-0.00608631,0.01336317,0.02436695,0.99254531,0.03137656,-0.00583294,0.11762355
1755644240700,0.01140395,-0.05108019,-0.13874806,0.05280997,0.03602888,-0.00539639,0.99254066,0.03167229,-0.00563118,0.11759333
1755644240711,-0.01719628,-0.03228157,-0.08484670,0.03400832,0.03124232,0.00983758,0.99252891,0.03186444,-0.00545466,0.11764892
1755644240722,-0.00783391,0.08650098,0.10864974,-0.01000438,0.03350632,0.01473890,0.99252193,0.03180841,-0.00526702,0.11773145
1755644240734,-0.07264128,-0.04412904,0.06379195,0.00846196,0.01293470,-0.00399608,0.99252352,0.03185792,-0.00519136,0.11770808
1755644240745,-0.00707941,0.05259941,-0.06390043,0.02499702,0.02793620,0.00504122,0.99251679,0.03199165,-0.00504190,0.11773505
1755644240756,0.09928890,0.03386973,0.01863940,-0.00014884,0.04745611,0.03611291,0.99249452,0.03199083,-0.00478089,0.11793367
1755644240767,-0.17104949,-0.00915761,-0.18482303,0.03521205,0.03643271,0.02482493,0.99247238,0.03218978,-0.00457504,0.11807393
1755644240778,0.10969607,0.19768633,0.04224466,0.01077130,0.04414441,0.05865642,0.99243204,0.03225064,-0.00432563,0.11840534
1755644240789,-0.13982511,-0.08858031,-0.17977209,0.09964381,0.03416250,-0.03662490,0.99243896,0.03280366,-0.00413603,0.11820207
1755644240801,0.28088006,-0.02817598,0.08061317,-0.04190798,-0.00203289,0.06669704,0.99240208,0.03256898,-0.00414741,0.11857557
1755644240812,0.07671431,0.01901343,0.17277757,-0.02262303,-0.00251074,-0.02488204,0.99242300,0.03244116,-0.00416160,0.11843499
1755644240823,-0.01919160,-0.15222928,0.06777613,0.00229540,-0.00667364,0.00386759,0.99241983,0.03245401,-0.00419897,0.11845665
1755644240834,0.09017705,-0.04524978,0.01378725,-0.01049848,-0.01794701,0.00717856,0.99241662,0.03239679,-0.00429678,0.11849577
1755644240845,-0.03972227,0.10724006,-0.08479337,-0.01905686,-0.00217321,0.01390210,0.99241069,0.03228912,-0.00430906,0.11857432
1755644240856,-0.04530883,0.03752539,-0.09203686,-0.00110974,0.01558238,0.02032495,0.99239766,0.03228291,-0.00422180,0.11868814
1755644240868,-0.02815770,0.02524215,-0.13928751,0.03440374,0.01969099,0.03693807,0.99236735,0.03247385,-0.00411251,0.11889314
1755644240879,0.08750454,-0.00037217,0.02499018,0.00092088,0.00581280,0.01555706,0.99235678,0.03247905,-0.00407967,0.11898104
1755644240890,0.00161381,-0.02605408,0.07716998,-0.00184788,-0.01088747,0.00388396,0.99235433,0.03246898,-0.00413901,0.11900221
1755644240901,0.09296865,-0.09530047,0.02942287,0.01609663,-0.00948392,-0.01474104,0.99236111,0.03255993,-0.00419259,0.11891892
1755644240912,-0.03897712,-0.18181541,-0.06873509,0.00671591,-0.01873597,-0.00000086,0.99235941,0.03259787,-0.00429845,0.11891892
1755644240923,-0.07102329,0.06177994,-0.00176254,-0.00359644,-0.00942186,0.00721423,0.99235511,0.03257827,-0.00434980,0.11895823
1755644240934,-0.08080195,0.02821344,-0.04788155,0.00166122,-0.01832312,0.01771957,0.99234245,0.03258757,-0.00445241,0.11905746
1755644240946,0.07600996,0.07371976,0.09875460,0.00171908,-0.00117620,0.01482822,0.99233205,0.03259729,-0.00445905,0.11914124
1755644240957,-0.02077858,0.10069100,-0.04202579,0.00921197,-0.00046605,0.01505545,0.99232043,0.03264795,-0.00446162,0.11922405
1755644240968,0.06654896,-0.00720090,-0.00395467,0.00885965,-0.00860544,0.01251072,0.99231016,0.03269757,-0.00450981,0.11929411
1755644240979,0.05749491,-0.02138241,0.18495781,-0.00925506,0.00920152,-0.00403529,0.99231481,0.03264574,-0.00445828,0.11927151
1755644240990,-0.03943866,-0.02280790,0.04335877,-0.01734281,-0.00379985,0.01010499,0.99231110,0.03254862,-0.00447956,0.11932810
1755644241002,0.08294307,0.05934716,-0.07375415,-0.01407912,0.00604488,0.01734808,0.99230207,0.03246907,-0.00444540,0.11942612
1755644241013,0.08938515,-0.28228953,-0.00135069,0.00433460,-0.00840916,0.02093727,0.99228708,0.03249313,-0.00449207,0.11954232
1755644241024,0.11472870,-0.00723663,0.10711216,-0.00225040,-0.01817934,0.01372160,0.99227777,0.03248053,-0.00459388,0.11961916
1755644241035,0.06502160,0.02632997,0.00765934,-0.02431628,-0.04814266,0.01001255,0.99227414,0.03234314,-0.00486588,0.11967573
1755644241046,-0.00030182,0.11304895,-0.12833142,-0.01616059,-0.03081181,-0.00489533,0.99227948,0.03225345,-0.00503689,0.11964856
1755644241057,0.03078555,0.11608703,-0.05395889,-0.00204864,-0.01454024,-0.00779397,0.99228456,0.03224228,-0.00511613,0.11960608
1755644241069,-0.08552554,-0.00280022,-0.02628019,-0.00918344,-0.01558092,0.00077388,0.99228526,0.03218994,-0.00520495,0.11961049
1755644241080,-0.02564547,0.05225021,-0.03525549,-0.02079011,-0.00305605,0.00537695,0.99228531,0.03207559,-0.00522175,0.11964007
1755644241091,-0.05608928,-0.04910438,-0.04160070,-0.01516175,-0.00407736,-0.00797200,0.99229339,0.03198993,-0.00524479,0.11959503
1755644241102,-0.00350094,-0.00560150,0.03512608,-0.01980642,0.01794465,-0.00130324,0.99229841,0.03187802,-0.00514340,0.11958766
1755644241113,-0.03585683,0.10298432,-0.00447184,-0.00479058,0.01374729,0.01175405,0.99229191,0.03185191,-0.00506848,0.11965172
1755644241124,0.03640272,0.00242459,-0.01601064,0.01677754,0.01395298,0.00937239,0.99228311,0.03194419,-0.00499174,0.11970327
1755644241135,0.07339133,-0.10726624,0.01144499,0.02149870,0.01978122,-0.00101882,0.99228047,0.03206458,-0.00488097,0.11969756
1755644241147,0.01615560,-0.03064812,0.03052932,0.00907692,0.00745060,-0.00031719,0.99227925,0.03211541,-0.00483924,0.11969579
1755644241158,-0.07814959,-0.03360653,0.11041713,-0.00894144,-0.00548791,-0.01360730,0.99228981,0.03206579,-0.00486970,0.11962027
1755644241169,0.06145754,-0.12828859,0.05920774,-0.00685646,0.00113458,-0.01199140,0.99229934,0.03202671,-0.00486323,0.11955192
1755644241180,-0.02441739,-0.04626954,-0.01194771,0.00093633,0.01095437,-0.00953416,0.99230584,0.03203190,-0.00480244,0.11949900
1755644241191,-0.08880564,0.04560991,-0.06171706,0.00799574,0.01672724,0.00533702,0.99230133,0.03207588,-0.00471044,0.11952836
1755644241202,-0.04982790,0.10325647,-0.05541667,0.01266969,0.02663751,0.00561933,0.99229589,0.03214746,-0.00455993,0.11956010
1755644241213,0.10946353,-0.09105479,0.04549528,0.02697739,0.03224554,-0.00074149,0.99229233,0.03229719,-0.00438097,0.11955599
1755644241225,0.03911926,-0.02761634,0.10862807,0.02517726,0.01628501,-0.01006624,0.99229499,0.03244196,-0.00428733,0.11949811
1755644241236,0.01099346,0.01718339,0.05774789,0.03778721,0.00928292,-0.00436671,0.99229135,0.03264601,-0.00423720,0.11947453
1755644241247,-0.09889409,0.10174934,0.10392728,0.00061473,0.00771062,0.00137637,0.99229051,0.03264939,-0.00419480,0.11948210
1755644241258,-0.01383161,0.00727002,0.00173003,0.00969581,0.02365567,-0.00278410,0.99229115,0.03270368,-0.00406232,0.11946651
1755644241269,-0.08391157,0.08997375,-0.01840141,0.00087071,0.01280685,-0.00959027,0.99229768,0.03270852,-0.00399125,0.11941328
1755644241280,0.09884279,0.02843282,-0.00944122,0.00395780,0.04799250,-0.00969991,0.99230453,0.03273068,-0.00372249,0.11935896
1755644241291,-0.00166308,0.04965470,0.02803471,0.02217189,0.04014262,-0.01344145,0.99231030,0.03285484,-0.00349769,0.11928369
1755644241303,0.06207089,-0.05170019,-0.05770405,0.02114087,0.02517893,-0.02110858,0.99232096,0.03297218,-0.00335795,0.11916654
1755644241314,0.17298000,-0.15629745,0.10069246,-0.00294434,0.04267795,-0.05257241,0.99235793,0.03295554,-0.00311682,0.11886950
1755644241325,-0.12081375,-0.03055140,0.03768202,-0.02059568,0.03092525,-0.04192999,0.99239038,0.03284020,-0.00294364,0.11863469
1755644241336,0.02115543,0.10111062,-0.05417505,0.02024626,0.05662444,-0.00056748,0.99238794,0.03295156,-0.00263220,0.11863157
1755644241347,-0.12280868,0.02404614,-0.06863431,0.02104280,0.05617602,-0.00817010,0.99239029,0.03307045,-0.00231481,0.11858541
1755644241359,0.05131330,0.04107290,-0.03644182,0.02445448,0.07171890,-0.03358471,0.99240886,0.03320617,-0.00191677,0.11839902
1755644241370,0.04989656,0.07687392,-0.02757453,0.00932260,0.02862619,-0.02367001,0.99242322,0.03325838,-0.00175646,0.11826647
1755644241381,0.18766614,-0.03523707,0.09881541,0.00621927,0.02335859,-0.03919777,0.99244818,0.03329290,-0.00162682,0.11804892
1755644241392,0.11350190,-0.08659408,0.08567627,-0.01006447,0.01028574,-0.04388317,0.99247964,0.03323603,-0.00156870,0.11780098
1755644241403,0.01724642,-0.07052047,0.00348589,-0.00876513,0.00479523,-0.04173904,0.99250878,0.03318739,-0.00154209,0.11756933
1755644241414,0.06395886,-0.11715161,0.00199912,-0.00451715,0.00493336,0.00379367,0.99250715,0.03316209,-0.00151446,0.11759057
1755644241426,-0.05655295,0.02653363,0.11045816,-0.02729980,0.00868831,0.00938170,0.99250610,0.03301058,-0.00146624,0.11764264
1755644241437,-0.03138227,0.06255906,-0.10673973,0.00057812,0.01069690,-0.00711785,0.99251080,0.03301381,-0.00140634,0.11760278
1755644241448,0.07060804,0.09942228,-0.12353816,-0.01110830,-0.01688263,0.01661435,0.99250179,0.03295216,-0.00150004,0.11769499
1755644241459,0.17802540,-0.08877082,-0.07341129,0.00101689,-0.02316527,-0.00793255,0.99250662,0.03295781,-0.00162861,0.11765096
1755644241470,0.01015906,-0.03313788,0.05587482,-0.00232856,-0.02241886,-0.03106182,0.99252725,0.03294488,-0.00175303,0.11747857
1755644241481,-0.01589405,-0.02786663,-0.09009502,0.00561360,-0.03086255,-0.03516823,0.99254937,0.03297660,-0.00192741,0.11727987
1755644241492,-0.02421392,0.06053908,0.02338660,-0.01545662,-0.00503688,-0.02485164,0.99256845,0.03289081,-0.00195536,0.11714194
1755644241504,-0.13326544,-0.06677527,-0.14261175,0.00951937,0.00061175,-0.00320900,0.99256882,0.03294508,-0.00195187,0.11712365
1755644241515,-0.01561810,0.03617380,0.02083074,-0.01654949,0.00142725,0.00366268,0.99256947,0.03285488,-0.00194409,0.11714361
1755644241526,-0.09209725,0.08022505,0.16906577,-0.02374525,0.01778474,0.00646505,0.99256978,0.03272309,-0.00184539,0.11717949
1755644241537,-0.03324868,0.04035260,0.04084810,-0.01500985,0.01710974,0.01852710,0.99256046,0.03263904,-0.00174958,0.11728325
1755644241548,-0.17082167,-0.04347756,-0.04038899,0.00849376,0.03151060,-0.00676138,0.99256367,0.03268660,-0.00157312,0.11724538
1755644241559,-0.09499281,0.02419687,-0.15708206,0.01677115,0.05752117,-0.00954762,0.99256731,0.03277968,-0.00125387,0.11719239
1755644241570,0.01548047,0.01668988,-0.15419999,0.00740608,0.05662979,0.00031342,0.99256609,0.03282079,-0.00093958,0.11719413
1755644241582,0.06403669,-0.02803484,-0.03267122,0.00200950,0.04467184,-0.00423096,0.99256875,0.03283214,-0.00068718,0.11717023
1755644241593,0.03552390,-0.01515073,0.02309228,-0.02087331,0.01345439,-0.00074463,0.99257307,0.03271734,-0.00061318,0.11716613
1755644241604,0.03584901,0.05182318,0.09058797,-0.01727348,-0.00805195,-0.00688816,0.99258078,0.03262061,-0.00065827,0.11712756
1755644241615,0.16102712,-0.14189535,0.01386972,0.02100640,0.01787617,-0.01126063,0.99258447,0.03274034,-0.00055638,0.11706337
1755644241626,-0.01471752,0.07113754,0.06099819,-0.00331903,-0.00789490,-0.00695795,0.99258956,0.03272209,-0.00059980,0.11702510
1755644241637,0.06182135,-0.07536786,-0.12573624,0.02008495,0.00453537,-0.00554655,0.99258952,0.03283256,-0.00057486,0.11699460
1755644241649,-0.08049825,-0.04175453,-0.15764726,0.02104171,-0.01114554,0.00246229,0.99258390,0.03295144,-0.00063783,0.11700851
1755644241660,0.02648505,0.01727853,0.10239971,0.00559885,-0.00874739,-0.00376900,0.99258530,0.03298252,-0.00068638,0.11698759
1755644241671,-0.00433213,-0.01624121,0.03742242,-0.00128989,-0.01655626,-0.00019428,0.99258560,0.03297529,-0.00077909,0.11698650
1755644241682,0.08362897,-0.03468701,-0.06236535,0.00632204,-0.01020729,0.00763577,0.99257934,0.03301070,-0.00083625,0.11702926
1755644241693,-0.01734351,0.04228965,-0.03314273,0.00167789,-0.01147920,-0.00213041,0.99258038,0.03302009,-0.00090054,0.11701733
1755644241705,0.02518372,0.02565889,-0.07543238,0.00022617,-0.00706742,-0.00825323,0.99258575,0.03302136,-0.00094011,0.11697112
1755644241715,-0.07712664,0.07148945,0.15186022,-0.00964566,-0.00897350,-0.01291835,0.99259574,0.03296879,-0.00098902,0.11690071
1755644241727,0.05312313,-0.08931006,0.11851125,0.00173589,0.00526776,0.00022053,0.99259531,0.03297842,-0.00095978,0.11690194
1755644241738,-0.07909552,0.01161035,0.05442353,-0.00124769,-0.00066049,0.00566417,0.99259183,0.03297150,-0.00096345,0.11693337
1755644241749,0.01203356,0.02487033,-0.13815355,-0.01130487,0.00062243,0.00647988,0.99258964,0.03290763,-0.00095993,0.11696998
1755644241760,0.04019346,-0.01718582,-0.05387757,-0.01361583,-0.00327826,0.00229142,0.99259063,0.03283138,-0.00097829,0.11698281
1755644241771,0.01105265,-0.00826429,0.03664842,-0.00411598,-0.01143973,-0.00100106,0.99259195,0.03280895,-0.00104064,0.11697736
1755644241782,-0.00790561,0.16888613,0.03857770,-0.00661739,-0.02669970,-0.00265050,0.99259476,0.03277189,-0.00119016,0.11696252
1755644241794,0.01935700,-0.02181399,-0.05377126,-0.00413233,-0.02319351,-0.01006144,0.99260213,0.03274833,-0.00132236,0.11690517
1755644241805,-0.03986606,-0.10740849,-0.03331534,-0.00169697,-0.01582773,-0.03256404,0.99262339,0.03273900,-0.00140941,0.11672606
1755644241816,0.03578319,-0.00490142,0.23264133,-0.02640638,-0.00517111,-0.00667924,0.99263253,0.03259244,-0.00143811,0.11668899
1755644241827,-0.06716966,0.02656928,0.14208238,-0.01614813,-0.00529584,-0.00242296,0.99263709,0.03250121,-0.00146803,0.11667530
1755644241838,-0.10109424,0.01213410,0.06521288,-0.01358252,-0.00428611,0.00682840,0.99263508,0.03242650,-0.00149161,0.11671286
1755644241849,-0.05113635,0.09240223,-0.18741139,-0.00918573,0.00541762,0.00581299,0.99263298,0.03237506,-0.00146127,0.11674541
1755644241861,-0.02334368,0.01328952,-0.05754532,-0.00725322,0.00291286,-0.00030923,0.99263457,0.03233336,-0.00144452,0.11674364
1755644241871,0.01396775,0.03307423,-0.03856584,0.00257860,0.00067475,-0.00394030,0.99263659,0.03234702,-0.00144094,0.11672275
1755644241883,-0.00773111,-0.11138453,0.04955165,0.00846059,-0.01522871,0.00152034,0.99263394,0.03239398,-0.00152546,0.11673119
1755644241894,-0.04598109,-0.04530193,0.15876809,0.00636970,-0.01044402,-0.00726310,0.99263749,0.03242997,-0.00158447,0.11669015
1755644241905,-0.10533441,-0.03757310,-0.08688713,0.01425915,-0.00910178,0.00285561,0.99263296,0.03250911,-0.00163499,0.11670600
1755644241916,0.08518898,0.14921862,-0.02510425,0.00868276,-0.00126530,0.02108983,0.99261719,0.03255860,-0.00164220,0.11682621
1755644241927,-0.07939532,0.03479197,0.02583324,-0.00234069,-0.01405903,0.01951553,0.99260495,0.03254584,-0.00171882,0.11693257
1755644241938,-0.06523487,-0.09841574,0.04895939,0.00721657,-0.00795616,0.00170617,0.99260242,0.03258626,-0.00176337,0.11694213
1755644241949,-0.02746687,0.01315947,-0.06540150,0.01544425,-0.00373341,0.00691370,0.99259511,0.03267120,-0.00178391,0.11698015
1755644241961,-0.01497977,0.04257141,-0.05512917,0.01922159,-0.01197366,0.01387963,0.99258216,0.03277980,-0.00185156,0.11705857
1755644241972,-0.00161612,-0.09635907,0.08452717,0.02645539,-0.01030998,0.01256727,0.99256896,0.03292663,-0.00190878,0.11712832
1755644241983,0.02824875,0.03582142,0.02586650,0.00494283,-0.01436899,0.01383472,0.99255874,0.03295431,-0.00198925,0.11720580
1755644241994,0.00023758,0.06818612,0.00593956,0.00479338,-0.00303880,0.00987871,0.99255128,0.03298115,-0.00200626,0.11726112
1755644242005,-0.02375823,-0.01734351,0.00380132,0.00960855,0.00045236,0.01170527,0.99254175,0.03303496,-0.00200373,0.11732667
1755644242017,-0.07770696,0.15020676,0.07179760,0.00618446,-0.00020731,0.00241989,0.99253892,0.03307052,-0.00200492,0.11734058
1755644242027,-0.04575483,0.01307410,0.01350417,-0.00770598,0.00783215,0.00271894,0.99253866,0.03302929,-0.00196302,0.11735513
1755644242038,-0.02904040,-0.05153659,-0.03870826,-0.00734212,0.01542134,0.00096480,0.99253954,0.03298891,-0.00187820,0.11736043
1755644242050,-0.01333485,-0.01584458,-0.08139137,-0.00553613,0.01965889,0.00489846,0.99253753,0.03295791,-0.00176811,0.11738786
1755644242061,-0.02852700,0.00175365,-0.05811655,0.00360013,0.01688263,0.01204605,0.99252911,0.03297789,-0.00167441,0.11745472
1755644242072,0.03875897,-0.03733631,-0.02997460,0.01525024,0.01734699,0.01817022,0.99251386,0.03306634,-0.00157380,0.11756011
1755644242083,-0.01494734,-0.00969412,0.04636234,0.02595242,0.02617034,0.01841628,0.99249776,0.03320519,-0.00143379,0.11765863
1755644242094,0.07534689,0.06805067,0.05420984,-0.00760809,0.01160164,0.02117249,0.99248521,0.03316258,-0.00136882,0.11777720
1755644242106,0.01966424,-0.07492345,-0.04482989,0.01823978,-0.00177275,0.01940964,0.99246829,0.03326837,-0.00137910,0.11788978
1755644242117,0.02633389,-0.08325732,0.12567201,-0.00271822,-0.00815324,0.01159533,0.99246122,0.03325356,-0.00142354,0.11795297
1755644242129,0.12825251,-0.05949994,-0.08477677,0.00401426,-0.01409803,-0.00017786,0.99246043,0.03327724,-0.00150672,0.11795192
1755644242139,0.04440041,-0.04930011,-0.07666521,0.00020801,-0.02057553,-0.00832033,0.99246517,0.03327828,-0.00160959,0.11791032
1755644242150,0.07858757,-0.00534560,-0.04312157,0.00400348,-0.01480449,-0.01373183,0.99247334,0.03330050,-0.00169176,0.11783411
1755644242161,-0.02732838,-0.03442589,0.00643399,0.00877634,-0.01320349,-0.01685842,0.99248277,0.03334965,-0.00176570,0.11773970
1755644242172,-0.02443012,0.02385133,0.00463464,0.00173697,-0.00551476,-0.00930771,0.99248852,0.03335929,-0.00179631,0.11768804
1755644242183,-0.04625444,0.04434732,0.02528456,-0.00387827,0.00591827,0.00243163,0.99248768,0.03333738,-0.00176287,0.11770178
1755644242195,-0.03636155,0.00250445,-0.05198437,0.00542072,0.01537371,0.00754024,0.99248186,0.03336746,-0.00167754,0.11774363
1755644242206,-0.01096120,0.14714665,-0.03715936,-0.00283015,0.01417323,0.00572847,0.99247869,0.03335147,-0.00159746,0.11777600
1755644242217,0.08154645,0.03088816,0.23847029,-0.00242946,0.00650283,0.00730187,0.99247439,0.03333799,-0.00156137,0.11781652
1755644242228,0.04374380,-0.05320084,-0.01617482,0.01233559,-0.01265245,-0.00682698,0.99247645,0.03340583,-0.00163096,0.11777897
1755644242239,0.07943523,-0.07657932,0.06238778,0.00642213,-0.01744360,-0.00559608,0.99247881,0.03344212,-0.00172952,0.11774736
1755644242251,-0.07160035,-0.03970266,-0.18439495,0.00295005,-0.01170652,-0.00500237,0.99248151,0.03345893,-0.00179625,0.11771884
1755644242262,-0.04102337,0.04341295,0.01510542,-0.00540095,0.00038273,0.01259854,0.99247436,0.03342950,-0.00179416,0.11778750
1755644242273,-0.13399837,0.02070424,-0.06329883,-0.00394760,0.00373741,0.00838617,0.99246961,0.03340759,-0.00177342,0.11783405
1755644242287,0.07144392,0.03802130,-0.02913065,0.00220997,0.01285581,0.00101658,0.99246835,0.03342372,-0.00167957,0.11784147
1755644242294,-0.13002514,0.09730914,-0.25347913,-0.00076861,0.00993683,0.01051424,0.99246395,0.03342092,-0.00164330,0.11787985
1755644242317,0.08756677,-0.03541611,0.08998906,0.00141695,0.00249611,0.00235893,0.99246024,0.03343714,-0.00161472,0.11790686
1755644242325,-0.53853423,0.04152519,0.16698736,0.00439861,-0.01271814,-0.00996151,0.99246429,0.03345474,-0.00166559,0.11786701
1755644242337,0.29548962,-0.10290335,0.15740433,-0.01494369,0.00251663,0.00164595,0.99246612,0.03336731,-0.00165087,0.11787664
1755644242348,-0.09418942,-0.02042311,-0.09997589,-0.01329076,-0.00086399,0.00723861,0.99246386,0.03329488,-0.00165558,0.11791609
1755644242359,0.01966484,0.09135584,-0.11963903,-0.01024452,0.01378890,0.00837002,0.99246034,0.03323751,-0.00157836,0.11796296
1755644242371,-0.03301377,0.01685087,-0.07064260,-0.00376856,0.00089933,0.00333305,0.99245880,0.03321603,-0.00157323,0.11798196
1755644242382,0.00468290,0.02526076,0.01006754,0.00299012,0.00255519,0.00079841,0.99245771,0.03323322,-0.00155854,0.11798655
1755644242393,0.01892926,-0.01915461,0.06580173,0.00975173,0.00841203,0.00648747,0.99245147,0.03328930,-0.00151017,0.11802385
1755644242405,-0.04647316,-0.13603549,-0.06444265,0.01801002,0.00002660,0.01018548,0.99244129,0.03339015,-0.00151002,0.11808089
1755644242416,0.05440188,0.03461491,0.04548301,0.00861953,0.01026874,0.00394656,0.99243705,0.03343928,-0.00145149,0.11810339
1755644242461,0.03748540,0.01088789,0.00381482,0.00106225,0.00031951,0.00208473,0.99243076,0.03346286,-0.00144440,0.11814967
1755644242462,-24.54957918,4.26583496,2.57608229,0.04226455,-0.04772101,0.11097099,0.99241899,0.03349668,-0.00148258,0.11823844
1755644242484,1.77202368,-0.31812663,-0.18748204,-0.00020254,-0.00041370,-0.00404909,0.99242434,0.03349446,-0.00148711,0.11819411
1755644242495,-0.08020046,-0.00815824,0.04831903,0.00881749,0.00971669,0.00304420,0.99242091,0.03354119,-0.00143561,0.11821024
1755644242508,0.06975522,0.00969237,-0.02800481,0.00665821,0.00210664,-0.00433648,0.99242284,0.03358480,-0.00142181,0.11818184
1755644242519,0.18761505,-0.03663799,0.05303930,-0.00832748,-0.00275057,0.01199230,0.99241657,0.03353942,-0.00143680,0.11824720
1755644242530,-0.10677629,-0.10437281,0.02673875,-0.00664927,-0.00881442,-0.00414562,0.99242073,0.03350019,-0.00148880,0.11822274
1755644242551,-0.02179095,0.09545193,-0.04612946,-0.00951109,0.00492248,-0.00622268,0.99243169,0.03340270,-0.00143835,0.11815895
1755644242561,-0.15213183,0.07558384,-0.02606631,-0.00580560,0.00469240,0.02877536,0.99241523,0.03337309,-0.00141442,0.11830571
1755644242565,-2.29469225,1.77688502,1.61300741,0.00068705,0.03420637,0.03821186,0.99240708,0.03337433,-0.00135285,0.11837449
1755644242587,0.40588893,-0.28589017,-0.22097075,0.00793711,0.00332237,0.00534613,0.99239703,0.03346283,-0.00131580,0.11843410
1755644242596,0.14518217,0.16861914,-0.04715030,0.00661142,0.01535150,0.01134898,0.99239002,0.03349258,-0.00124672,0.11848517
1755644242598,-4.08954091,0.27042848,4.47034836,-0.12798359,-0.02347764,-0.02438537,0.99239650,0.03337739,-0.00126785,0.11846322
1755644242617,0.36443348,-0.17020568,-0.37095825,0.00011211,0.00780668,-0.01123263,0.99240962,0.03337848,-0.00119174,0.11835370
1755644242620,0.23487287,2.36816895,4.37657038,-0.03247809,-0.01072875,0.03318519,0.99240602,0.03333789,-0.00120515,0.11839519
1755644242631,0.06142997,-0.44655034,-0.83991846,-0.00663587,-0.01250144,0.01649867,0.99239589,0.03329973,-0.00127703,0.11849005
1755644242651,-0.02624596,-0.00803098,-0.04497315,-0.00768730,-0.01183830,0.00412187,0.99239336,0.03322209,-0.00139660,0.11853168
1755644242662,0.07207689,-0.03602532,-0.01043889,0.00772019,-0.02843031,0.00088141,0.99239121,0.03326301,-0.00154728,0.11853636
1755644242674,0.04501653,-0.00181342,-0.03768952,0.00579979,-0.03159565,0.00053904,0.99238942,0.03329635,-0.00172895,0.11853945
1755644242685,0.11309589,-0.03448327,0.06625443,-0.00292142,-0.02218395,0.00290495,0.99238770,0.03327897,-0.00186095,0.11855674
1755644242696,-0.03484992,-0.12453215,0.09757330,-0.01456865,-0.04195251,-0.01434058,0.99239871,0.03320322,-0.00207910,0.11848217
1755644242699,1.39894219,-0.85507162,1.29220078,0.02840323,-0.01705739,-0.04143314,0.99240544,0.03325150,-0.00210810,0.11841173
1755644242730,-0.23095818,0.12466262,-0.23750225,0.00989908,-0.00483546,-0.00236465,0.99240449,0.03340543,-0.00218329,0.11837496
1755644242767,0.00381404,0.01289395,-0.02692461,0.01207992,0.00679265,0.00508434,0.99238619,0.03362649,-0.00205898,0.11846801
1755644242787,-0.02000659,0.02858922,0.31639243,-0.01545583,0.01043984,-0.00594170,0.99239859,0.03347348,-0.00195563,0.11840918
1755644242797,-0.11661166,-0.17932609,-0.55710231,0.00854622,0.06589688,0.00889939,0.99239206,0.03351878,-0.00160637,0.11845635
1755644242819,0.07101791,0.06001046,-0.08010236,0.00085104,0.02759244,0.00848592,0.99238145,0.03352780,-0.00131390,0.11854630
1755644242829,0.16827066,0.23430811,-0.09848824,0.01712063,-0.01084208,-0.01926443,0.99238998,0.03361340,-0.00136811,0.11844998
1755644242843,0.12509450,-0.13651415,0.13255970,0.00488447,-0.00387218,-0.02883690,0.99241302,0.03364784,-0.00139540,0.11824668
1755644242863,-0.06346150,-0.01378955,0.09396867,-0.01355367,-0.01042333,-0.00547517,0.99242392,0.03351298,-0.00149912,0.11819220
1755644242876,0.09529091,-0.04862142,0.15214125,-0.02096131,-0.00498962,-0.00127228,0.99242953,0.03337463,-0.00153205,0.11818380
1755644242923,-0.06060818,0.01593270,-0.03051556,-0.00872705,-0.00421643,0.00080669,0.99243402,0.03316824,-0.00163177,0.11820288
1755644242960,0.13855350,-0.02147272,-0.04464779,-0.00424395,-0.01863244,-0.00734072,0.99245233,0.03308909,-0.00197926,0.11806598
1755644242990,-0.10423021,-0.00734556,0.03599610,-0.00152074,-0.00464795,-0.01696960,0.99248237,0.03306689,-0.00204712,0.11781822
1755644242998,-0.41878706,0.01699889,-0.28985473,-0.08721896,0.06332999,0.02233922,0.99248388,0.03270057,-0.00178114,0.11791204
1755644243020,0.01659882,0.05395758,-0.08637501,0.02799203,0.01392981,0.01944628,0.99244916,0.03300288,-0.00163069,0.11812206
1755644243041,0.01613807,-0.07753063,0.10113451,0.00516709,0.00219013,-0.01576594,0.99246750,0.03305843,-0.00160715,0.11795258
1755644243062,0.04918134,0.03289852,0.02453990,0.00878029,0.00280625,0.00347704,0.99246017,0.03315018,-0.00157782,0.11798892
1755644243074,0.06336172,0.00870582,-0.03130502,-0.03951726,-0.01319384,0.00175611,0.99246657,0.03291703,-0.00165567,0.11799928
1755644243086,0.07075779,-0.06229756,-0.04844585,0.00563781,-0.01766204,-0.01552171,0.99247674,0.03295226,-0.00176606,0.11790227
1755644243098,0.04526761,0.03553163,0.07701823,-0.00627735,-0.00921781,-0.01606288,0.99248871,0.03291648,-0.00181860,0.11781071
1755644243109,-0.07082275,-0.01622540,-0.00521484,-0.00253181,-0.01466602,-0.01601801,0.99249937,0.03290269,-0.00189853,0.11772341
1755644243121,-0.02944125,0.18186817,-0.02191882,0.00380669,0.00149991,-0.00840602,0.99250470,0.03292591,-0.00188938,0.11767213
1755644243134,0.00291525,-0.01503886,-0.02818578,0.00874608,0.00576774,-0.00756483,0.99250881,0.03298407,-0.00185102,0.11762183
1755644243157,-0.01041788,-0.04534341,0.05372946,-0.00046547,-0.00477607,0.00249034,0.99250546,0.03297867,-0.00190642,0.11765071
1755644243159,31.82200122,-7.88838740,5.50424094,-0.33807895,-0.30240853,-0.08556900,0.99251996,0.03274201,-0.00211811,0.11759082
1755644243180,-2.10141458,0.48954079,-0.28605198,-0.01840118,-0.02402847,-0.02184060,0.99255351,0.03254512,-0.00237522,0.11735712
1755644243222,0.00413191,0.00307817,-0.00666753,-0.00665938,-0.00468767,-0.00447051,0.99256898,0.03240494,-0.00247389,0.11726302
1755644243233,0.15812524,0.29237539,0.10088155,0.01968841,0.02713380,0.03000646,0.99254650,0.03251224,-0.00232601,0.11742655
1755644243273,-0.06532154,-0.04128408,-0.01981789,-0.01123913,-0.00585484,0.00472126,0.99254243,0.03229027,-0.00244164,0.11751980
1755644243306,0.03658761,-0.05590474,0.05534622,-0.00806929,-0.02117376,-0.00483437,0.99255558,0.03215390,-0.00279948,0.11743810
1755644243331,-0.05696501,0.01019132,-0.01989851,-0.01699670,0.00535953,-0.01769054,0.99258797,0.03194654,-0.00273410,0.11722227
1755644243347,-0.30897734,0.14561520,-0.45748545,0.00546277,0.04704565,-0.00539512,0.99259251,0.03198915,-0.00236714,0.11718019
1755644243366,0.02879930,-0.12732720,0.13070383,0.02829182,0.04122149,0.00612686,0.99257733,0.03226641,-0.00196317,0.11724023
1755644243386,0.07634292,0.07200259,0.22039043,-0.00367175,0.00957453,0.00877537,0.99256811,0.03222877,-0.00186503,0.11733018
1755644243397,0.02790634,0.06771306,0.08600299,-0.01961300,-0.02508910,0.00402211,0.99256871,0.03212286,-0.00200051,0.11735190
1755644243419,0.09361231,0.00398641,-0.15358413,-0.01521343,-0.02831764,0.01026735,0.99256008,0.03195551,-0.00231200,0.11746484
1755644243431,0.17764622,-0.02423519,-0.07042393,0.00750563,-0.06931761,0.00443917,0.99255466,0.03199867,-0.00271058,0.11749037
1755644243442,-0.09212698,-0.11209871,0.16001480,-0.00776094,-0.03811445,-0.00470117,0.99255850,0.03195599,-0.00292021,0.11746451
1755644243454,-0.10619405,-0.10328323,0.17588072,0.01305354,0.00848748,-0.00786103,0.99256173,0.03203496,-0.00286886,0.11741695
1755644243465,-0.23832879,0.02911723,-0.14567376,-0.00083179,0.01551927,0.00186610,0.99256092,0.03203047,-0.00278506,0.11742703
1755644243478,0.05605182,0.15734932,-0.05230605,-0.00352306,0.02288262,0.01587787,0.99255002,0.03200792,-0.00263861,0.11752865
1755644243511,0.03033656,-0.02239285,-0.00921368,0.00533976,0.00396523,0.00133653,0.99254472,0.03209629,-0.00257298,0.11755077
1755644243522,-0.23795998,-0.02864965,0.27541657,0.03586097,-0.01153023,-0.00402249,0.99254045,0.03230967,-0.00264159,0.11752683
1755644243532,-0.01529378,0.12759761,-0.24495860,-0.00672164,-0.00295541,0.00141005,0.99254066,0.03227740,-0.00265577,0.11753360
1755644243543,0.04102929,-0.01452050,-0.13233231,0.00839907,0.03735761,0.02262847,0.99252480,0.03232402,-0.00244844,0.11765919
1755644243556,-0.00961532,0.02112597,0.12331651,-0.00498100,0.01663514,0.01347963,0.99251558,0.03229114,-0.00233865,0.11774815
1755644243563,0.21619683,-0.16830513,0.09954632,0.01262771,0.01924507,0.03620117,0.99250020,0.03233281,-0.00227514,0.11786762
1755644243576,0.14278375,0.02951708,-0.11169802,0.00327319,0.00201222,-0.00199887,0.99250109,0.03235458,-0.00226176,0.11785433
1755644243587,0.11105713,-0.10883770,-0.14494620,0.00628514,-0.01166551,-0.03131800,0.99251939,0.03238758,-0.00232300,0.11768991
1755644243595,0.28585901,-0.12164213,-0.07915186,-0.00342872,-0.01258080,-0.04629317,0.99254277,0.03237318,-0.00237584,0.11749547
1755644243608,-0.10181279,0.09588732,0.18215730,-0.02092339,-0.01413688,-0.01578879,0.99255836,0.03224345,-0.00246349,0.11739758
1755644243621,-0.04926845,0.17134699,-0.01865566,-0.02572851,-0.01266019,-0.00112396,0.99256439,0.03207750,-0.00254515,0.11739033
1755644243631,0.06880144,0.05818278,-0.16141159,-0.00600943,-0.03167233,0.02028416,0.99255271,0.03204686,-0.00270668,0.11749378
1755644243643,0.03763030,-0.07028138,-0.01463942,-0.01896477,-0.04668535,0.01461701,0.99254519,0.03193307,-0.00298679,0.11758149
1755644243653,0.08010678,-0.19310770,0.23788677,-0.02555537,-0.04793677,-0.02166106,0.99256233,0.03179762,-0.00324085,0.11746668
1755644243664,-0.07982421,-0.14055771,0.06654749,-0.01497152,-0.03307499,-0.05123349,0.99259702,0.03171678,-0.00341946,0.11719002
1755644243676,-0.05818578,-0.02642001,0.02032726,0.00477074,0.01722829,-0.00955077,0.99260297,0.03174421,-0.00332040,0.11713510
1755644243686,-0.15657097,0.22067337,0.03352354,-0.00575764,-0.00358775,0.03040584,0.99258519,0.03171427,-0.00333905,0.11729321
1755644243698,-0.07359092,-0.00104777,-0.11875151,0.01547218,0.00697785,0.02565190,0.99256486,0.03180401,-0.00329858,0.11744200
1755644243709,0.14917050,0.01802440,-0.00711468,-0.00199353,0.01981995,0.02838766,0.99254692,0.03179294,-0.00318858,0.11759955
1755644243720,0.20898395,-0.06524572,-0.09137555,-0.00677789,-0.00386640,-0.00624606,0.99255226,0.03175465,-0.00321043,0.11756426
1755644243732,0.06014731,0.03345287,0.15221570,-0.04387148,-0.02462392,-0.01830749,0.99257403,0.03148045,-0.00336432,0.11744984
1755644243743,0.20462204,-0.15573918,0.15819037,-0.05931483,-0.06338721,-0.01582076,0.99259232,0.03117202,-0.00369394,0.11736757
1755644243753,-0.16339476,-0.04298412,-0.14066277,0.02311984,-0.01853477,-0.06010857,0.99262508,0.03129224,-0.00379032,0.11705500
1755644243766,-0.03770111,0.11576409,-0.10814570,-0.01714116,-0.00280924,-0.00370308,0.99263097,0.03118768,-0.00380746,0.11703241
1755644243776,-0.01849897,0.08389702,0.03462974,-0.01829331,0.00300342,-0.01505860,0.99264313,0.03109347,-0.00379199,0.11695486
1755644243786,-0.08947455,0.04113787,-0.00651645,-0.00058962,-0.00517150,0.00270341,0.99264145,0.03109037,-0.00381914,0.11696905
1755644243798,-0.00404257,-0.02997529,-0.14674463,0.01448079,0.00661927,0.01158452,0.99263122,0.03117291,-0.00378141,0.11703509
1755644243810,0.06309030,0.01484670,-0.03523776,-0.02719606,-0.00847377,0.01649112,0.99262446,0.03100974,-0.00383225,0.11713403
1755644243820,0.19719330,-0.22410266,-0.09032603,-0.03008439,-0.02394603,-0.00470598,0.99263167,0.03085480,-0.00395557,0.11710980
1755644243832,-0.02745408,-0.00369164,0.07571018,-0.02148641,-0.03962965,-0.05077879,0.99267091,0.03072481,-0.00419533,0.11680259
1755644243842,0.15343436,-0.11088613,0.05918377,-0.01059696,-0.02918166,-0.07649145,0.99271548,0.03067341,-0.00433686,0.11643160
1755644243853,-0.06976719,0.05652697,0.08652952,0.01691026,-0.00109916,-0.03814905,0.99273696,0.03076557,-0.00434285,0.11622369
1755644243865,-0.10286157,0.18168124,0.01886745,-0.02361989,-0.00059609,0.00100549,0.99274059,0.03062504,-0.00434640,0.11622967
1755644243877,-0.04202705,0.07323263,-0.00621682,-0.04323111,0.01059638,0.01471666,0.99273839,0.03035268,-0.00427964,0.11632239
1755644243889,-0.12394910,0.02700888,0.01607883,-0.03728486,0.00470000,0.00563727,0.99274141,0.03012524,-0.00425097,0.11635678
1755644243899,-0.04888733,-0.02291144,0.10544853,-0.04880347,-0.00221117,-0.00459443,0.99275073,0.02989831,-0.00426126,0.11633541
1755644243910,0.02655805,-0.19320263,-0.10163855,0.00962579,-0.00387967,-0.01290035,0.99275735,0.02995125,-0.00428259,0.11626446
1755644243932,-0.04511040,0.03813628,-0.06563751,0.00343426,0.00064128,-0.01564088,0.99277672,0.02998971,-0.00427541,0.11608928
1755644243934,28.37682864,-8.26976433,-12.54814619,0.05832000,-0.07097256,-0.15591780,0.99278803,0.03003054,-0.00432509,0.11598014
1755644243954,-1.96961732,0.57675969,0.88090547,0.00691049,-0.00246190,-0.00420760,0.99279084,0.03010206,-0.00435057,0.11593659
1755644243965,0.59583108,-0.33217090,-0.04288955,0.03364283,0.01459229,0.01351155,0.99277688,0.03028709,-0.00427032,0.11601090
1755644244010,-0.14933943,0.08165064,0.02160450,0.00162189,0.00248703,-0.00238986,0.99278231,0.03032375,-0.00421411,0.11595689
1755644244021,2.15290012,-0.05320589,0.64784758,-0.06173620,-0.03663963,-0.06398140,0.99283004,0.03000272,-0.00440463,0.11562419
1755644244044,-0.71213156,0.02342867,-0.20417045,-0.02282033,-0.02854455,-0.01700534,0.99285994,0.02973344,-0.00474146,0.11542353
1755644244056,-0.07101296,-0.13224302,0.01432743,-0.00482773,0.00251837,-0.01092340,0.99286785,0.02970665,-0.00472748,0.11536290
1755644244077,-0.16039409,0.09505973,-0.03697076,-0.00657674,0.00337669,0.00336677,0.99286596,0.02963693,-0.00469169,0.11539859
1755644244090,0.02383935,0.05003134,0.08154337,0.00493529,0.00971730,0.00996615,0.99285764,0.02966951,-0.00462756,0.11546437
1755644244128,-0.05012158,-0.01047121,-0.04660199,0.00297125,0.00200815,-0.00237759,0.99286140,0.02972626,-0.00458920,0.11541895
1755644244130,23.67603292,1.07201109,5.60990745,0.14329540,0.29104106,0.03936890,0.99285611,0.02982656,-0.00438547,0.11544651
1755644244159,-1.08167715,-0.09685169,-0.26476472,-0.00590500,0.00858388,-0.00325710,0.99286482,0.02973976,-0.00425929,0.11539863
1755644244180,0.01259033,0.05536691,-0.02105934,0.00489249,0.00996867,-0.02045656,0.99288833,0.02979040,-0.00415611,0.11518691
1755644244192,-0.03856997,0.02824862,0.01034147,0.00265296,0.00860427,-0.00596800,0.99289235,0.02980685,-0.00410277,0.11514991
1755644244203,-0.11355778,-0.00440791,0.07100901,-0.03134934,0.00863987,-0.00842472,0.99290298,0.02963599,-0.00405568,0.11510399
1755644244215,-0.06663494,-0.07533361,-0.07211809,-0.01001594,0.01656085,-0.00803138,0.99291050,0.02957790,-0.00395963,0.11505741
1755644244226,0.02513111,0.09280846,-0.04963586,0.00268766,0.00651316,0.01646320,0.99289971,0.02959268,-0.00392380,0.11514796
1755644244235,0.18874354,0.08858277,0.02246918,0.01388088,0.01297344,0.01038554,0.99289234,0.02965792,-0.00386283,0.11519677
1755644244248,-0.00739149,-0.03628582,0.03237621,-0.00240940,-0.00946331,-0.00050077,0.99289294,0.02964226,-0.00392434,0.11519351
1755644244258,0.05731216,0.05466698,0.07698566,-0.02234846,-0.02468431,-0.01279610,0.99290360,0.02952605,-0.00405270,0.11512697
1755644244269,0.16737666,-0.26735847,0.04883130,-0.00902458,-0.04619916,-0.01689795,0.99291458,0.02947732,-0.00430217,0.11503573
1755644244280,-0.01691234,-0.06762296,-0.06093106,-0.00618458,-0.07139254,-0.03327854,0.99293537,0.02944268,-0.00470197,0.11484937
1755644244292,-0.14741506,0.01119065,0.07924372,-0.03325623,-0.02999605,-0.00072623,0.99294090,0.02924315,-0.00488195,0.11484501
1755644244303,-0.09698070,-0.06116455,-0.03524145,0.00340670,0.02895164,0.02293059,0.99292652,0.02926188,-0.00472271,0.11497113
1755644244315,-0.27845505,0.22268171,0.00960398,-0.01313164,-0.01619013,0.00642084,0.99292398,0.02918506,-0.00481743,0.11500869
1755644244324,-0.32685602,-0.00769697,-0.22108466,0.02661785,0.01852191,0.02819917,0.99290535,0.02931017,-0.00473037,0.11514122
1755644244335,0.10852250,0.11015344,-0.12756332,0.02342806,0.01350098,0.02410127,0.99288719,0.02943433,-0.00465882,0.11526896
1755644244348,0.13500333,-0.02473482,-0.03448186,0.01905358,-0.00510829,0.01597407,0.99287154,0.02955628,-0.00469151,0.11537120
1755644244358,0.20255761,-0.08579115,0.20553576,0.00907834,-0.02405600,-0.00744111,0.99287401,0.02960303,-0.00481540,0.11533287
1755644244369,-0.10097389,-0.10771303,0.15874848,0.02206367,-0.03944581,-0.02090180,0.99288234,0.02971997,-0.00502446,0.11522209
1755644244382,0.00062479,0.03267711,-0.00291336,0.00879896,-0.03976303,0.00671570,0.99287391,0.02977936,-0.00529286,0.11526742
1755644244391,-0.16998362,0.17354027,-0.00331137,-0.01020327,0.01017255,0.00785579,0.99287142,0.02973345,-0.00524709,0.11530278
1755644244405,0.00433554,-0.08985381,-0.13975554,0.00549806,0.02127397,-0.00092188,0.99287178,0.02977001,-0.00510561,0.11529665
1755644244414,-0.28290388,0.16709114,-0.16831767,0.00544068,0.06035124,0.00448989,0.99286996,0.02979585,-0.00481895,0.11531797
1755644244425,-0.02901213,0.10277294,-0.17971009,0.00739074,0.03475279,0.01277292,0.99286164,0.02983576,-0.00463128,0.11538695
1755644244436,0.04467427,0.01341900,0.04442349,-0.00517539,0.03073895,0.00541804,0.99285977,0.02980678,-0.00445914,0.11541729
1755644244448,0.17952906,-0.12400611,0.08484289,0.00860867,0.00464524,-0.00030716,0.99285855,0.02985886,-0.00443104,0.11541543
1755644244458,0.29005749,-0.03573972,0.25080874,0.00507178,-0.01993651,-0.00199320,0.99285849,0.02988321,-0.00452673,0.11540586
1755644244471,0.02439166,-0.02697192,-0.00813607,-0.00240432,-0.03152955,0.00189685,0.99285647,0.02986674,-0.00474271,0.11541885
1755644244481,-0.07779762,-0.04687904,0.04443614,-0.00556028,-0.02729506,0.00134157,0.99285592,0.02984116,-0.00486827,0.11542503
1755644244492,-0.05938911,0.10608351,-0.02794535,-0.01785246,-0.00670947,0.00711271,0.99285408,0.02974029,-0.00490618,0.11546521
1755644244504,0.06072375,-0.05467411,-0.00839147,-0.00521194,0.00895604,0.01746485,0.99284337,0.02970980,-0.00485378,0.11556738
1755644244514,-0.03428594,-0.11800297,-0.02736338,-0.00541200,0.00860167,0.00765748,0.99283986,0.02968220,-0.00480992,0.11560644
1755644244525,0.04114832,0.03540442,-0.09026962,-0.01033118,0.00822759,-0.01104341,0.99284901,0.02962435,-0.00476384,0.11554459
1755644244537,0.09587703,0.14911919,0.06369522,-0.02360893,0.00409528,-0.00030400,0.99285340,0.02948742,-0.00474009,0.11554283
1755644244549,0.05111212,-0.05027715,0.04142780,-0.02477926,0.00002978,0.00634590,0.99285338,0.02933874,-0.00473991,0.11558090
1755644244558,-0.05085103,-0.04674180,0.23120747,-0.06410313,-0.02997980,0.01536093,0.99285314,0.02903746,-0.00488082,0.11565310
1755644244569,0.08984654,-0.00290154,-0.06516073,-0.00078097,-0.02153750,0.00805068,0.99284742,0.02903308,-0.00500143,0.11569818
1755644244580,0.09483947,-0.10119752,-0.08620838,0.00971816,-0.02049651,-0.00410984,0.99284792,0.02908702,-0.00511518,0.11567538
1755644244592,-0.00571099,-0.05085077,-0.06000738,0.00329492,-0.06679195,-0.02116251,0.99285998,0.02910679,-0.00551593,0.11554840
1755644244604,0.00830102,0.02538819,0.03476652,-0.03521066,0.01095609,-0.07063547,0.99291482,0.02889904,-0.00545129,0.11513165
1755644244615,-0.12204053,-0.00953646,0.14088461,-0.04103160,-0.03595757,0.00840614,0.99291489,0.02868568,-0.00563827,0.11517536
1755644244619,0.47981171,0.71711246,0.85447218,-0.02189349,0.06366840,0.06626691,0.99290014,0.02863751,-0.00549820,0.11532115
1755644244632,-0.23819559,-0.10779603,-0.32723277,-0.02048388,0.00662721,-0.00169882,0.99290570,0.02849925,-0.00545347,0.11530968
1755644244644,0.09444893,-0.01195008,-0.19272240,-0.00593353,0.00065353,-0.02981746,0.99292641,0.02846543,-0.00544974,0.11513972
1755644244655,0.04816668,0.00794859,0.08656540,-0.03518261,0.01516724,-0.02980459,0.99295185,0.02826840,-0.00536481,0.11497282
1755644244669,-0.03390286,0.01538372,0.08290020,-0.00513641,0.00696680,-0.00238999,0.99295502,0.02823296,-0.00531673,0.11495633
1755644244678,0.13157817,0.05208987,0.04238463,-0.02461856,0.03320840,-0.01604624,0.99296745,0.02812095,-0.00516564,0.11488332
1755644244688,0.02003137,-0.09121494,0.31661741,-0.12404903,0.00388351,-0.01385167,0.99299217,0.02751931,-0.00514680,0.11481614
1755644244698,0.12984988,-0.08361253,0.03186834,-0.10807275,0.02539480,-0.02537579,0.99302501,0.02693032,-0.00500840,0.11467784
1755644244711,0.01906684,0.09818766,-0.01505085,-0.10293190,0.00601957,-0.03952122,0.99306947,0.02630758,-0.00497198,0.11443873
1755644244722,0.21838917,-0.00674655,-0.06157406,-0.08281821,0.00908977,-0.02067419,0.99309523,0.02584380,-0.00492108,0.11432296
1755644244732,0.08408512,0.01520527,0.25295650,-0.12174783,-0.02412008,-0.03838534,0.99313420,0.02520462,-0.00504771,0.11412144
1755644244744,0.11568207,0.05198447,0.05032865,-0.06104533,-0.00617627,-0.06426905,0.99318571,0.02485056,-0.00508353,0.11374868
1755644244755,0.21225546,-0.01148670,-0.07889989,-0.04740916,-0.03193865,-0.05930542,0.99322975,0.02458269,-0.00526398,0.11341360
1755644244766,0.36010855,0.03359332,0.08188656,-0.14527920,-0.07347251,-0.05358767,0.99327830,0.02381998,-0.00564972,0.11313226
1755644244777,0.13721570,0.07336699,0.21897960,-0.24894659,-0.05557744,-0.10237498,0.99337659,0.02238854,-0.00596929,0.11254361
1755644244788,0.32643156,-0.31981302,0.05664464,-0.16878989,-0.10912680,-0.08156077,0.99344219,0.02148551,-0.00655311,0.11210726
1755644244799,0.27673826,-0.11290254,0.12857515,-0.20192048,-0.11130486,-0.04154510,0.99348752,0.02036485,-0.00717086,0.11187668
1755644244812,0.93967589,-0.01645699,1.04196581,-0.26861483,-0.14420714,-0.03134409,0.99353823,0.01859199,-0.00812262,0.11166981
1755644244823,-0.70953203,0.82640624,-0.29898331,-0.34508908,-0.20301570,-0.05372125,0.99359335,0.01676302,-0.00919861,0.11138509
1755644244833,-0.10964747,-1.53738246,-0.42368021,-0.24486439,-0.18273947,-0.12022922,0.99367081,0.01555094,-0.01010317,0.11078995
1755644244844,-0.61372145,0.60350375,-0.62806947,-0.11561974,-0.14571447,-0.14544173,0.99376176,0.01490925,-0.01091188,0.10998275
1755644244855,0.73943816,0.83669696,-0.07898033,-0.14854113,-0.13365131,-0.06699545,0.99380724,0.01407000,-0.01166701,0.10960423
1755644244874,-0.87743746,-0.33023232,-0.21618373,-0.11292533,-0.10624455,-0.02179846,0.99383167,0.01302544,-0.01264977,0.10940259
1755644244911,-0.18700352,-0.02009467,0.00460992,-0.06291829,-0.03447833,-0.02371858,0.99388671,0.01184886,-0.01329452,0.10895906
1755644244924,1.90720366,0.46871326,2.61798088,-0.39107658,-0.08990570,-0.15604048,0.99401547,0.00932642,-0.01387441,0.10795259
1755644244934,0.26407416,-0.77660760,-1.72746377,-0.02210534,-0.06845220,0.18343891,0.99390954,0.00921368,-0.01422352,0.10888813
1755644244956,-1.40063067,0.08580302,-0.71910056,-0.01091517,0.02477938,-0.00821677,0.99392441,0.00909362,-0.01395094,0.10879775
1755644244967,-0.08907608,-0.29534070,0.50291419,0.04051862,0.04112174,-0.04317101,0.99395194,0.00932052,-0.01372066,0.10855599
1755644244979,-0.16183793,0.29205847,-0.60064430,0.04017880,-0.01030520,0.03539322,0.99392690,0.00954954,-0.01377940,0.10875773
1755644244989,0.01801733,-0.06667355,-0.16582378,0.10320564,0.03681752,0.00128359,0.99392364,0.01006557,-0.01359531,0.10876415
1755644245001,-0.04752461,0.01143604,-0.36468753,0.12823184,0.04615625,-0.01390111,0.99392839,0.01082855,-0.01332068,0.10868144
1755644245012,0.07746535,-0.03236682,-0.11595562,0.03751419,-0.00936197,-0.00387259,0.99392777,0.01103300,-0.01337171,0.10866033
1755644245022,0.14952950,0.06305908,0.12773020,-0.00449164,0.00705455,-0.01185735,0.99393518,0.01100987,-0.01333538,0.10859927
1755644245035,-0.03154009,-0.00528864,0.16363798,0.01722653,0.00090757,-0.01884677,0.99394739,0.01112184,-0.01332948,0.10847676
1755644245046,0.04950029,-0.08904433,0.05831969,0.06833982,-0.02157028,-0.01403517,0.99394996,0.01150113,-0.01344919,0.10839887
1755644245047,3.06937072,-0.63148705,9.90958543,0.62542523,-0.28387553,0.00870042,0.99394081,0.01197019,-0.01366210,0.10840539
1755644245057,-0.47691477,0.14028046,-1.58366877,0.07089714,-0.03458335,-0.01956832,0.99394460,0.01231050,-0.01382810,0.10831147
1755644245067,-0.06406628,-0.02772577,-0.03549045,0.03777950,-0.00173605,-0.03751630,0.99396308,0.01250507,-0.01383704,0.10811826
1755644245078,-0.10178080,-0.12491226,-0.17213451,0.05669566,-0.01790835,-0.03862270,0.99398098,0.01281973,-0.01393643,0.10790390
1755644245088,-0.09865228,-0.02256932,-0.34318398,0.06656470,0.00572437,-0.00583626,0.99398019,0.01315588,-0.01390752,0.10787443
1755644245100,-0.07423607,0.10103269,0.00193303,0.04497326,0.00596035,0.02474205,0.99396208,0.01340998,-0.01387385,0.10801422
1755644245112,-0.12503781,-0.02253923,0.10846031,0.03051112,0.02908437,0.01385142,0.99395283,0.01359609,-0.01369643,0.10809871
1755644245127,-0.04273934,-0.02592147,-0.05304519,0.06457375,0.04257067,0.00558355,0.99394602,0.01407071,-0.01338354,0.10813975
1755644245139,-0.00780537,0.08428786,-0.07115220,0.06465612,0.02346934,0.03294388,0.99392081,0.01445865,-0.01324272,0.10833742
1755644245149,0.01839060,0.09707502,0.01461229,0.03100604,0.01940329,0.02858019,0.99390375,0.01461833,-0.01314279,0.10848460
1755644245160,0.02198656,0.14371609,0.17978868,-0.00314753,0.00020806,0.01383129,0.99389600,0.01460165,-0.01314169,0.10855791
1755644245173,0.14420566,-0.14800916,0.00949525,0.02264354,-0.01144582,0.00174284,0.99389151,0.01475223,-0.01321781,0.10856950
1755644245186,-0.00922592,-0.02139320,-0.08783466,0.03773321,-0.01996747,0.01837893,0.99387247,0.01500504,-0.01335159,0.10869264
1755644245208,0.02827765,-0.03708196,-0.13836786,0.05223831,0.02265525,0.00625931,0.99385942,0.01557966,-0.01310238,0.10876149
1755644245219,-0.07723842,0.19785430,-0.21543376,-0.01877645,0.03277107,0.01864593,0.99385236,0.01547921,-0.01292706,0.10886125
1755644245229,-0.00085850,0.08208245,-0.08322580,-0.00914465,0.05936736,0.01081877,0.99385092,0.01543211,-0.01262131,0.10891696
1755644245240,-0.08596013,-0.02977704,-0.09115707,-0.01423201,0.01867415,0.02087208,0.99384148,0.01535882,-0.01252514,0.10902445
1755644245250,0.25198118,-0.08792654,0.03413123,-0.03046864,0.01141177,0.02954988,0.99382793,0.01520190,-0.01246637,0.10917664
1755644245260,0.05770622,-0.13644670,-0.01996410,-0.01335528,0.00257679,-0.02752750,0.99384406,0.01513580,-0.01245362,0.10904038
1755644245271,0.08762813,-0.11622632,0.07899394,-0.01456658,-0.01222978,-0.01856561,0.99385563,0.01505568,-0.01252088,0.10893826
1755644245282,0.08269667,-0.03898009,-0.17791834,0.02748647,-0.00466879,-0.02496540,0.99386849,0.01521235,-0.01254749,0.10879596
1755644245294,-0.04060864,0.12077176,-0.00832168,0.00347901,0.00604693,-0.01263044,0.99387671,0.01523270,-0.01251212,0.10872207
1755644245305,-0.19539417,-0.04550208,-0.18854388,0.02487445,0.00414559,0.00319950,0.99387290,0.01537200,-0.01248890,0.10873999
1755644245315,-0.14091863,0.04636932,-0.14246362,0.02225275,0.00844792,0.02872397,0.99385530,0.01548772,-0.01244497,0.10888936
1755644245327,-0.04175094,0.00557008,0.05001293,0.01192542,0.01300235,0.01943793,0.99384313,0.01555509,-0.01237151,0.10899918
1755644245338,0.12287425,-0.00162680,0.13050452,0.02481903,0.00137174,0.04784080,0.99381049,0.01569904,-0.01236355,0.10927666
1755644245350,-0.02484258,-0.17220996,0.15380790,-0.02217834,-0.01808710,0.05868547,0.99377467,0.01557374,-0.01246575,0.10960823
1755644245360,-0.01071526,-0.20439579,-0.10349290,0.07716154,-0.01419664,-0.00067825,0.99376810,0.01595569,-0.01253602,0.10960487
1755644245373,0.06484526,0.07966257,0.13888054,0.05427382,-0.02142275,0.01522553,0.99374883,0.01632475,-0.01268169,0.10970841
1755644245388,0.04496827,0.11929823,0.03458643,0.01347364,0.00322859,0.01694275,0.99373406,0.01642176,-0.01265845,0.10983039
1755644245390,-3.73837500,-1.24013854,-28.11431091,0.02300782,-0.32137670,0.18579114,0.99370646,0.01644707,-0.01301196,0.11003476
1755644245400,0.95122438,0.25016253,5.69676064,0.05082894,-0.03600231,0.01807951,0.99368950,0.01670629,-0.01319557,0.11012697
1755644245411,-0.02721046,-0.04473448,0.05242383,0.03510920,-0.04044689,-0.04433174,0.99370950,0.01689237,-0.01340994,0.10989201
1755644245423,0.05791045,-0.08572308,0.25725063,0.03573641,-0.01290759,-0.03699298,0.99372914,0.01710501,-0.01348674,0.10967190
1755644245434,-0.07489388,0.15670280,0.02839179,0.00873622,-0.00171234,-0.00163324,0.99372917,0.01715305,-0.01349616,0.10966292
1755644245447,-0.14947953,0.09096050,0.23350863,-0.01096241,0.00972047,-0.00959260,0.99373834,0.01708015,-0.01343152,0.10959913
1755644245458,-0.23155013,0.02696212,-0.05140144,0.01179840,-0.00886273,0.01576334,0.99372731,0.01714328,-0.01347893,0.10968346
1755644245471,0.08645667,0.07982185,0.10593845,0.00425330,0.00642262,0.02014245,0.99371205,0.01717262,-0.01343462,0.10982245
1755644245483,-0.01961862,0.02042429,-0.02534178,0.01414387,0.02542963,0.00652932,0.99370843,0.01725466,-0.01328713,0.10986032
1755644245493,-0.13195278,0.05864353,0.10063070,-0.00338826,0.02325164,-0.00957468,0.99371578,0.01723721,-0.01316738,0.10981101
1755644245505,0.08633702,-0.06843315,0.08724933,0.00859344,0.00930617,0.00604702,0.99371164,0.01728834,-0.01311201,0.10984699
1755644245516,0.07316840,0.10534629,0.19981688,0.00701912,0.02788250,0.00656397,0.99370914,0.01732484,-0.01296702,0.10988112
1755644245528,-0.07100485,0.06079694,0.18708854,-0.00167446,0.00915072,0.01216329,0.99370183,0.01731462,-0.01291120,0.10995532
1755644245538,-0.11373739,0.13107403,0.02665354,-0.00506421,-0.00927444,0.00592436,0.99369839,0.01728930,-0.01295757,0.10998494
1755644245549,0.33104983,-0.02158486,0.05342930,-0.00762372,-0.00296500,0.01385851,0.99368996,0.01724470,-0.01297492,0.11006601
1755644245561,-0.09597559,-0.06468557,0.07198169,-0.01202121,-0.04842214,-0.00106457,0.99368820,0.01717679,-0.01324850,0.11005999
1755644245573,0.19531805,-0.22351836,0.06398617,0.00407805,-0.02645259,-0.00743623,0.99369061,0.01720146,-0.01340854,0.11001501
1755644245583,-0.07153690,0.08891096,0.12064306,-0.01345982,-0.06903049,-0.01626609,0.99369616,0.01713281,-0.01376060,0.10993205
1755644245594,-0.11151926,0.03147267,0.09394283,-0.01018488,-0.00503430,0.01594566,0.99368687,0.01707578,-0.01378879,0.11002134
1755644245614,-0.04690010,-0.06861504,-0.13048838,0.01751272,0.00115539,0.00096303,0.99368304,0.01724653,-0.01377752,0.11003073
1755644245615,-24.21568921,6.24111558,14.55702384,0.32377093,0.23235341,0.01666796,0.99367937,0.01752173,-0.01358002,0.11004490
1755644245624,4.44798614,-0.82756435,-2.82556117,0.00360660,0.01211934,0.01878615,0.99367076,0.01753742,-0.01352730,0.11012662
1755644245635,-0.06898352,0.02929089,0.22211896,-0.00426561,0.02057968,0.01386779,0.99366413,0.01751353,-0.01341206,0.11020428
1755644245646,-0.19254287,-0.14046596,0.01986835,0.02023543,0.00691189,0.01370299,0.99365485,0.01761876,-0.01337612,0.11027554
1755644245657,0.24579999,-0.04401911,-0.04722631,0.00381522,0.01811261,0.02148086,0.99364203,0.01764088,-0.01327106,0.11040013
1755644245669,0.00165568,-0.12725934,-0.16602877,0.03537495,0.01950547,0.00846637,0.99363415,0.01785313,-0.01315403,0.11045092
1755644245683,0.18163473,0.01524865,0.05415724,0.05024416,0.01059222,0.02955407,0.99360675,0.01819228,-0.01308253,0.11065041
1755644245729,0.03419036,0.00622890,-0.05524661,0.00475643,-0.00870879,0.00410811,0.99359156,0.01830168,-0.01328284,0.11074490
1755644245734,-0.37955436,0.98460354,4.56997160,0.06835487,0.00383020,-0.00617333,0.99359014,0.01848624,-0.01327249,0.11072823
1755644245757,0.17773453,-0.17202693,-0.97253822,-0.01488277,-0.02147832,-0.00493862,0.99359633,0.01831434,-0.01352057,0.11067119
1755644245772,0.18200252,-0.04400779,0.15301362,-0.02826964,-0.05423222,-0.00863837,0.99360167,0.01810797,-0.01391646,0.11060813
1755644245792,-0.10453557,-0.03473533,-0.13842599,0.01343655,-0.00707701,-0.02922845,0.99363143,0.01824570,-0.01398900,0.11030854
1755644245803,0.11614804,0.16133807,0.09330325,0.03800750,0.01563743,-0.01138018,0.99363542,0.01843954,-0.01390925,0.11025050
1755644245825,-0.12791697,-0.02089923,-0.11815782,-0.00966211,-0.00090455,-0.00116429,0.99363875,0.01833036,-0.01391947,0.11023734
1755644245827,2.61382569,-2.59411266,31.00387487,-0.22764309,0.37091213,0.02513313,0.99364333,0.01817101,-0.01365984,0.11025494
1755644245876,-0.08236910,0.03881998,-0.89314494,0.00083023,0.00527682,0.00284746,0.99363699,0.01819135,-0.01353055,0.11032470
1755644245915,0.08007581,-0.01897533,0.07835288,0.00747686,0.00171498,0.00837503,0.99361656,0.01833752,-0.01349703,0.11048843
1755644245950,-0.01041354,0.01233100,-0.09850986,0.00783323,-0.00328922,-0.00377853,0.99362062,0.01847577,-0.01355508,0.11042174
1755644245972,0.23355079,-0.01928765,-0.16170062,-0.00472550,0.01719748,0.00059099,0.99362339,0.01842450,-0.01336849,0.11042815
1755644245991,0.02386331,0.06521150,0.00249878,-0.04438517,0.00217198,-0.04005053,0.99367387,0.01800062,-0.01334774,0.11004567
1755644246015,-0.07272679,-0.02177223,-0.14224296,-0.00064762,0.00982631,-0.02816496,0.99371410,0.01799263,-0.01322639,0.10969783
1755644246050,-0.11244257,-0.01120363,0.12000995,-0.01121130,0.00580789,-0.00143797,0.99372154,0.01780203,-0.01312766,0.10967339
1755644246059,1.19471598,-0.41711974,-1.50516154,-0.00033070,0.01647881,0.00262011,0.99372121,0.01780040,-0.01304609,0.10968636
1755644246079,-0.47306853,0.24600361,0.58129406,-0.01624498,-0.00273995,-0.02463598,0.99374958,0.01764526,-0.01307225,0.10945108
1755644246118,-0.10141931,0.00553375,0.12922032,-0.00160346,-0.00030923,-0.00792000,0.99376745,0.01761327,-0.01307842,0.10929308
1755644246160,0.03115015,-0.01402936,-0.02560926,0.00005058,-0.00492365,0.01294126,0.99373711,0.01761430,-0.01317862,0.10955643
1755644246181,0.25060044,-0.13024430,0.05314661,0.00659575,-0.06088418,-0.01327472,0.99374275,0.01768619,-0.01384226,0.10941174
1755644246203,0.06495287,0.06986941,0.14004787,-0.01770280,-0.05183411,-0.03275957,0.99377723,0.01749412,-0.01440466,0.10905630
1755644246225,-0.36855527,0.02973419,-0.06222357,-0.01836369,-0.00708337,-0.02009864,0.99380435,0.01728844,-0.01448399,0.10883119
1755644246247,-0.11667227,0.05988231,-0.04182748,-0.01609423,-0.00094939,0.00554065,0.99380057,0.01711060,-0.01449448,0.10889242
1755644246259,-0.43667700,0.09927406,0.10319706,0.04850961,0.04777629,-0.00631819,0.99380371,0.01739196,-0.01421738,0.10885577
1755644246270,0.20613950,0.14062004,-0.17473768,0.05642391,0.08646952,0.07149866,0.99376100,0.01770793,-0.01373315,0.10925617
1755644246282,-0.07054970,-0.09489921,0.17635871,-0.01720648,0.03535022,0.00361514,0.99376330,0.01760727,-0.01352635,0.10927731
1755644246292,-0.03526327,0.05694490,0.21901424,-0.01119653,0.01363002,0.01648666,0.99375571,0.01754793,-0.01345411,0.10936469
1755644246303,0.14764534,-0.01347680,-0.07613232,0.00046938,-0.00984560,0.03894208,0.99373134,0.01755051,-0.01350826,0.10957887
1755644246314,-0.04418892,0.03165147,-0.14847459,0.00147559,0.00105552,-0.00247958,0.99373277,0.01755856,-0.01350251,0.10956536
1755644246325,0.03827316,-0.08867710,-0.05453274,-0.00473748,-0.00991333,-0.00635023,0.99373646,0.01753155,-0.01355901,0.10952916
1755644246338,-0.03101321,-0.04840689,-0.04709779,0.01577654,-0.01192111,0.00108586,0.99373292,0.01763094,-0.01363412,0.10953601
1755644246348,0.00659378,-0.07740463,0.19872966,0.03115611,0.00575798,0.01454247,0.99372284,0.01778205,-0.01360619,0.10960654
1755644246361,0.00789248,-0.00922121,-0.02735359,0.01995193,0.00379135,0.00293799,0.99371864,0.01791473,-0.01358098,0.10962607
1755644246370,-0.07516290,0.04463550,0.13470337,0.01552072,0.00629086,0.02536775,0.99370487,0.01798613,-0.01355204,0.10974277
1755644246389,0.13700626,0.00388821,-0.03779075,0.00591968,-0.00614403,0.01162466,0.99369122,0.01804088,-0.01360887,0.10985029
1755644246391,-5.86322383,0.61582699,9.34611570,0.14904843,-0.14364820,0.10090296,0.99367457,0.01819738,-0.01375970,0.10995624
1755644246435,0.30227120,-0.03090042,-0.46242700,0.00436486,-0.00580508,-0.00051642,0.99367226,0.01829450,-0.01388887,0.10994475
1755644246444,-1.98045186,0.50932413,0.51586139,0.06746969,-0.03279648,0.05322440,0.99363993,0.01858125,-0.01402825,0.11017095
1755644246458,0.85384594,-0.23256180,-0.23559265,-0.01132173,-0.00839849,0.01794270,0.99362626,0.01849973,-0.01408872,0.11030014
1755644246472,0.16138882,-0.04066834,0.02162523,0.00609066,-0.01361411,0.00411988,0.99362099,0.01854176,-0.01418266,0.11032857
1755644246492,0.07759183,0.04091617,-0.02713533,-0.00049754,-0.00593030,0.00236712,0.99361763,0.01853683,-0.01424137,0.11035200
1755644246503,-0.14442727,0.10242544,0.06063225,-0.02785481,-0.01170979,-0.00046529,0.99361990,0.01837945,-0.01430753,0.11034938
1755644246515,-0.02889204,-0.19878747,-0.17693515,-0.00392494,0.00301928,-0.01354255,0.99362970,0.01835571,-0.01428926,0.11026744
1755644246525,-0.19771501,-0.04223186,-0.23856882,-0.01812463,0.03297356,-0.00752412,0.99363790,0.01826508,-0.01412439,0.11022982
1755644246537,-0.04269829,0.03765204,-0.10978202,0.01227298,0.03885467,-0.00143737,0.99364060,0.01833381,-0.01390681,0.11022177
1755644246549,0.06536456,0.15748137,0.11980941,-0.00146215,0.02963142,0.02713039,0.99362490,0.01832489,-0.01372606,0.11038727
1755644246550,-15.89413766,10.48444616,2.92681605,0.04748023,0.33883243,0.30259388,0.99360248,0.01836050,-0.01347193,0.11061421
1755644246572,1.25634010,-0.76264332,-0.05787870,-0.02850032,-0.00431021,0.00211853,0.99360494,0.01805270,-0.01351848,0.11063709
1755644246582,-0.04910125,0.07231340,0.21976698,-0.05265437,-0.01567163,0.03734938,0.99358678,0.01777363,-0.01360154,0.11083505
1755644246593,-0.07687808,-0.21861054,-0.25530579,0.01909821,-0.02298550,-0.01300231,0.99359086,0.01787199,-0.01371992,0.11076808
1755644246595,-3.08707272,-3.72294590,0.32144317,0.11351948,-0.06562791,-0.02366887,0.99359055,0.01797983,-0.01378226,0.11074560
1755644246605,0.60537418,0.71729386,-0.08322010,-0.00586801,-0.02537785,0.00849102,0.99358434,0.01794932,-0.01391423,0.11078975
1755644246627,0.09254255,-0.04306967,-0.04795469,0.01289372,-0.00395058,0.00811971,0.99357150,0.01808792,-0.01395670,0.11087704
1755644246638,-0.28952490,-0.42861691,-0.39384635,0.05782136,-0.00519003,0.00701028,0.99356066,0.01841462,-0.01398602,0.11091665
1755644246648,0.16723871,0.48367961,0.46601245,-0.01248703,0.00684823,0.00176856,0.99356130,0.01835343,-0.01395246,0.11092531
1755644246659,-0.10086769,0.09406299,0.06246842,-0.00341337,0.00769619,-0.00747181,0.99356703,0.01833397,-0.01390860,0.11088272
1755644246670,-0.06559915,-0.04554196,-0.14705978,0.02078704,0.03086079,0.01133833,0.99356050,0.01844518,-0.01374349,0.11094338
1755644246681,0.03702032,0.18081680,-0.05400990,0.01440287,0.01987172,0.01727586,0.99354943,0.01852800,-0.01362923,0.11104272
1755644246694,0.11067590,-0.02254350,-0.05533873,0.01203414,0.00469906,0.02162407,0.99353280,0.01860562,-0.01359892,0.11118219
1755644246745,0.04071729,-0.02950908,0.04610856,0.00316469,0.00115824,-0.00049936,0.99353311,0.01868632,-0.01356938,0.11116946
1755644246783,-0.03164057,-0.02918264,-0.07022739,-0.01087931,0.01284699,-0.00026651,0.99354087,0.01847907,-0.01332465,0.11116438
1755644246806,0.10090452,0.12973374,0.04779623,0.00519851,-0.01197889,0.00165910,0.99353585,0.01853781,-0.01346001,0.11118313
1755644246840,-0.00754448,-0.06632461,0.04265641,-0.00206138,-0.00642043,-0.00720586,0.99354895,0.01850215,-0.01357108,0.11105847
1755644246849,0.35768832,-0.89554086,-1.48919947,0.02919327,0.08098022,0.01215804,0.99354541,0.01862914,-0.01321882,0.11111136
1755644246876,-0.08315526,0.28281959,0.55688709,-0.00603766,-0.00703645,-0.01439797,0.99356755,0.01854703,-0.01331452,0.11091555
1755644246893,0.01316837,0.08929911,0.13451250,-0.00175411,-0.02261334,-0.00168641,0.99356686,0.01853273,-0.01349881,0.11090180
1755644246915,-0.02524530,-0.04122107,-0.12568249,-0.00843337,0.00067871,0.00603752,0.99356117,0.01843828,-0.01349121,0.11096942
1755644246929,0.13181065,-0.06826214,-0.09123160,0.01584165,-0.00715690,0.00355994,0.99355564,0.01854917,-0.01354131,0.11099434
1755644246939,0.01293504,-0.14071933,0.12406085,0.01806179,-0.01539190,-0.01475174,0.99356092,0.01863587,-0.01361519,0.11092353
1755644246950,-0.12955417,0.20842132,0.18271374,-0.01455665,0.00100771,-0.01981120,0.99357503,0.01855362,-0.01360950,0.11081160
1755644246960,-0.01656926,-0.06420442,-0.12122272,-0.00260572,0.02152524,-0.02494050,0.99359157,0.01853981,-0.01349542,0.11067941
1755644246970,-0.12085123,0.10259309,-0.10234005,-0.01631672,0.01894232,-0.00639977,0.99359794,0.01845823,-0.01340070,0.11064742
1755644246983,0.02583913,0.02999366,-0.01969384,-0.00582231,0.03040313,0.00199884,0.99359971,0.01842300,-0.01321676,0.11065951
1755644246994,-0.07169352,0.04370236,0.03443294,-0.00663783,0.02392571,0.00193293,0.99360099,0.01838517,-0.01308039,0.11067053
1755644247027,0.01192651,-0.03090577,-0.01473092,-0.00064675,0.00680470,0.00000966,0.99360263,0.01837453,-0.01296845,0.11067069
1755644247029,12.57160718,-8.38283630,-6.13536044,0.33715471,0.05637327,0.01840832,0.99359541,0.01869483,-0.01291490,0.11068817
1755644247041,-1.65483442,1.12486917,0.89674145,0.00382871,-0.01443584,-0.02200376,0.99360887,0.01871837,-0.01300368,0.11055285
1755644247055,0.02733813,0.10120047,0.12254213,-0.00926942,-0.02360517,-0.00092379,0.99360864,0.01865534,-0.01316419,0.11054657
1755644247065,-0.07082492,-0.03072183,0.10237029,-0.01543769,-0.04247148,-0.00201255,0.99360837,0.01857661,-0.01338080,0.11053630
1755644247076,0.07450338,0.03178784,0.03093419,-0.01221478,-0.01721293,-0.00114617,0.99360903,0.01851126,-0.01347289,0.11053017
1755644247092,-0.17190872,0.05044327,-0.06944499,-0.01761958,-0.02434276,-0.00588609,0.99361432,0.01836766,-0.01367128,0.11048220
1755644247109,0.02022679,0.00279902,-0.00173960,-0.01343871,-0.00917269,0.00603005,0.99360973,0.01825545,-0.01374787,0.11053255
1755644247131,0.00302518,-0.05855575,-0.06789703,0.00826855,0.00268884,-0.00950960,0.99362023,0.01834764,-0.01371789,0.11042652
1755644247134,5.22193039,-1.26153965,-5.19088219,0.09385264,0.22645308,-0.04439275,0.99362841,0.01846965,-0.01342350,0.11036881
1755644247150,-0.88266085,0.30757363,0.84988261,-0.00569937,0.01611786,0.00465848,0.99362677,0.01842177,-0.01328811,0.11040794
1755644247165,0.04529409,0.00581052,0.04551962,-0.01571015,-0.00033058,0.01616183,0.99361574,0.01830709,-0.01329052,0.11052592
1755644247175,0.11460922,0.00184762,0.08666652,0.00219124,-0.01542253,-0.00522827,0.99361747,0.01831848,-0.01337072,0.11049873
1755644247195,-0.03214785,-0.03124541,-0.04364989,-0.00157738,-0.01155220,-0.00440969,0.99362114,0.01830255,-0.01348740,0.11045420
1755644247199,1.91177836,2.55143225,4.73782612,-0.01209508,-0.03662352,-0.08937975,0.99363852,0.01828078,-0.01355332,0.11029331
1755644247216,-0.48867330,-0.61879922,-0.99042020,0.00705192,0.00701920,0.00810895,0.99363057,0.01834072,-0.01349366,0.11036224
1755644247224,-0.26742387,-0.06813301,0.15233590,-0.03033180,0.01844258,0.00914683,0.99362970,0.01821333,-0.01341620,0.11040066
1755644247235,0.17072911,0.02657435,-0.15265030,-0.01979314,0.02627036,0.00780493,0.99362888,0.01810744,-0.01327565,0.11044241
1755644247246,0.03592385,0.05052071,-0.09091521,-0.00602715,0.01253941,0.00081303,0.99362987,0.01807549,-0.01320919,0.11044672
1755644247258,0.06725438,0.06751796,-0.05308539,0.01191977,-0.00201669,-0.01001927,0.99363508,0.01814701,-0.01322129,0.11038661
1755644247260,4.41606850,3.89029692,2.53949221,0.03311592,-0.00376454,-0.07593292,0.99364247,0.01817847,-0.01322487,0.11031447
1755644247277,-0.48289543,-0.43864230,-0.27768953,0.00293811,-0.01393078,-0.01127266,0.99365117,0.01820374,-0.01334468,0.11021752
1755644247288,0.05282847,0.00912857,0.03357494,-0.01758064,0.00121791,-0.01689321,0.99366388,0.01810265,-0.01333767,0.11012039
1755644247298,-0.20980347,-0.09517093,-0.12042096,-0.00620824,0.02051408,-0.02889390,0.99368110,0.01807285,-0.01323920,0.10998170
1755644247309,0.03477402,0.18948607,-0.00303092,-0.01343127,0.02684447,0.01981385,0.99367265,0.01800166,-0.01309693,0.11008671
1755644247321,-0.08842303,0.05587554,-0.14544404,-0.01045174,0.00800968,0.02718419,0.99365619,0.01793843,-0.01304847,0.11025118
1755644247333,0.06824434,-0.00472738,-0.11125425,-0.00167348,0.01004758,0.01837526,0.99364502,0.01792847,-0.01298869,0.11036051
1755644247350,0.03233618,-0.06801647,0.11102580,-0.01898627,0.00124468,0.00435556,0.99364394,0.01776709,-0.01297811,0.11039753
1755644247351,-1.84228997,-1.70204375,-10.80577670,-0.13913800,-0.02054309,-0.18667722,0.99366115,0.01766274,-0.01299351,0.11025752
1755644247367,0.14976110,0.06977041,1.07764853,0.00258616,-0.00336661,-0.00953357,0.99366898,0.01768369,-0.01302078,0.11018030
1755644247379,-0.08983948,-0.14966640,-0.11867351,0.03583036,-0.01853806,-0.00752629,0.99366868,0.01789508,-0.01313016,0.11013590
1755644247389,-0.00210695,0.08676884,0.03646936,0.03174606,-0.00260250,-0.00466987,0.99366822,0.01805540,-0.01314330,0.11011231
1755644247423,0.02896562,0.03327187,0.03967223,0.00385112,-0.00493381,0.00738534,0.99365223,0.01811991,-0.01322594,0.11023602
1755644247438,-0.12938654,-0.16628965,0.06965370,-0.00540521,-0.03551603,0.03078006,0.99362242,0.01807748,-0.01350474,0.11047764
1755644247450,0.12412625,0.17323720,-0.20756102,0.00441473,-0.02906739,-0.01444887,0.99362919,0.01810397,-0.01367915,0.11039095
1755644247461,-0.08951351,-0.08532531,-0.02489956,0.03686076,-0.02977919,-0.01085798,0.99362981,0.01829564,-0.01383400,0.11033449
1755644247481,0.04411317,0.08846418,0.11206533,0.00481052,-0.00009242,0.01729011,0.99360969,0.01834375,-0.01383492,0.11050739
1755644247491,-0.19815255,-0.04074080,-0.17712739,0.00796674,0.00186725,0.02729917,0.99359421,0.01838278,-0.01382577,0.11064115
1755644247500,0.29905291,0.03316134,-0.18498749,-0.00294701,0.01070894,0.01816614,0.99358611,0.01836967,-0.01377812,0.11072199
1755644247512,0.01697644,0.10371159,0.18002668,-0.04155423,-0.01669873,0.00327275,0.99358716,0.01810580,-0.01388416,0.11074277
1755644247521,-0.05653925,-0.15806024,-0.01182955,-0.07263306,-0.07871110,-0.01184230,0.99359406,0.01777532,-0.01424229,0.11068889
1755644247533,0.09296169,-0.06175044,0.06476046,-0.01601312,-0.03600621,0.01093272,0.99358535,0.01767924,-0.01445833,0.11075449
1755644247543,0.10589382,-0.00062838,-0.14338980,0.02846629,-0.03217414,-0.02300253,0.99359311,0.01781873,-0.01461598,0.11064178
1755644247557,0.01674966,-0.00300700,0.05353110,0.01688304,-0.05735794,-0.00910580,0.99359207,0.01793944,-0.01502609,0.11057667
1755644247569,0.01047171,0.02499098,0.01030974,0.02025262,-0.00204443,-0.01968714,0.99360228,0.01805488,-0.01503775,0.11046445
1755644247584,-0.15485705,0.03490773,-0.02558058,0.00474191,-0.02288281,0.00655170,0.99359350,0.01809068,-0.01521051,0.11051392
1755644247586,-4.49776794,0.78448011,-9.97591407,-0.12087206,0.13656620,-0.02672717,0.99359966,0.01798794,-0.01509443,0.11049120
1755644247601,0.45638145,-0.02210317,1.15339376,-0.02191012,0.00575658,0.01115905,0.99359389,0.01782142,-0.01505068,0.11057601
1755644247615,0.01090708,0.01076294,-0.02233099,-0.01230203,-0.00632333,0.01085128,0.99358641,0.01773654,-0.01509431,0.11065088
1755644247616,4.93003221,-5.07481279,-10.10125521,-0.09767676,-0.12887406,-0.03852798,0.99358926,0.01766817,-0.01518452,0.11062391
1755644247630,-0.29175692,0.30085251,0.98022933,-0.00239759,0.00210268,-0.01239666,0.99359973,0.01765090,-0.01516938,0.11053466
1755644247641,0.03465674,-0.01922058,0.02226727,0.00876376,-0.00753835,-0.01298116,0.99360589,0.01769691,-0.01520896,0.11046651
1755644247653,-0.16375373,0.05693824,0.12273567,0.01681976,0.00323195,-0.00000084,0.99360443,0.01779447,-0.01519021,0.11046650
1755644247663,-0.21728730,0.03573435,0.07137299,0.00680998,0.03459454,-0.01361344,0.99361411,0.01782886,-0.01501551,0.11039775
