UnixTime(ms),Ax,Ay,Az,Gx,Gy,Gz,QuatW,QuatX,QuatY,QuatZ
1755570162287,0.00000000,0.00000000,0.00000000,0.00000000,0.00000000,0.00000000,0.9978,-0.0334,-0.0006,0.0576
1755570162303,0.16624981,-0.14955669,-0.19077847,-0.00503009,-0.00742116,0.00667784,0.9978,-0.0334,-0.0007,0.0577
1755570162317,0.34074046,-0.30030032,-0.54419674,-0.04220892,-0.00830114,-0.00327007,0.9978,-0.0337,-0.0008,0.0577
1755570162323,0.16322952,0.06174850,-0.36315443,-0.07189799,-0.00329341,-0.06330993,0.9978,-0.0339,-0.0008,0.0575
1755570162334,-0.15782207,0.01379139,0.31105248,-0.02130533,-0.00470930,-0.05153650,0.9978,-0.0340,-0.0008,0.0572
1755570162345,0.06698536,-0.02394872,-0.04965684,-0.04271004,-0.00280994,-0.02394722,0.9978,-0.0343,-0.0008,0.0571
1755570162356,-0.03000804,0.14776253,0.04874640,-0.04044440,-0.00461012,0.00322685,0.9978,-0.0345,-0.0008,0.0571
1755570162367,-0.02542975,-0.04740680,0.08562207,-0.03345356,0.00011814,0.00027283,0.9978,-0.0347,-0.0008,0.0571
1755570162379,-0.06091002,0.05310282,-0.00568561,-0.00781145,-0.00905675,-0.02065359,0.9978,-0.0347,-0.0009,0.0570
1755570162390,0.10651385,0.01826319,-0.02904300,-0.03925175,0.00743716,0.01613612,0.9978,-0.0349,-0.0008,0.0571
1755570162401,-0.14319434,0.01644800,0.15867481,-0.05635938,0.01342984,-0.02600303,0.9978,-0.0352,-0.0008,0.0569
1755570162412,-0.01777372,-0.04610167,0.12715575,-0.04849324,0.01069158,-0.03794950,0.9978,-0.0355,-0.0007,0.0567
1755570162423,-0.00760263,0.05345602,0.16345662,-0.03895723,0.00809452,-0.05524472,0.9978,-0.0357,-0.0007,0.0564
1755570162435,0.09693357,0.00997846,-0.02280790,0.01569195,-0.01110669,-0.02763208,0.9978,-0.0357,-0.0007,0.0562
1755570162445,0.04999894,0.19147200,-0.05376381,0.00006349,-0.04701722,-0.00784556,0.9978,-0.0357,-0.0010,0.0562
1755570162457,0.11815183,0.00842769,-0.07644102,0.00928545,-0.05354838,0.02170953,0.9978,-0.0356,-0.0013,0.0563
1755570162468,0.07251287,-0.12527561,-0.05853552,0.02804183,-0.03147235,-0.01706903,0.9978,-0.0354,-0.0015,0.0562
1755570162479,-0.03189920,-0.04423196,0.01867444,-0.00351524,-0.04144693,-0.01115528,0.9978,-0.0355,-0.0017,0.0562
1755570162490,-0.09945627,0.01222037,0.10049299,-0.01287067,-0.04199995,-0.03076961,0.9978,-0.0355,-0.0019,0.0560
1755570162501,-0.04799637,0.18654959,0.06586110,-0.02373844,0.00115984,-0.02702584,0.9978,-0.0357,-0.0019,0.0558
1755570162512,-0.07217365,0.00019263,0.17801121,-0.00010585,0.00646075,-0.01594449,0.9978,-0.0357,-0.0019,0.0558
1755570162524,-0.15015201,0.00546439,0.13304608,-0.01054168,-0.00675344,0.00447901,0.9978,-0.0357,-0.0019,0.0558
1755570162535,0.02695260,-0.16341527,0.09250272,-0.00749209,-0.00519795,-0.00849516,0.9978,-0.0358,-0.0019,0.0557
1755570162546,0.00404731,-0.11445192,-0.02712409,-0.00046775,-0.00515311,0.01794297,0.9978,-0.0358,-0.0020,0.0558
1755570162557,0.08905448,0.11352114,-0.07644102,-0.02720683,-0.01643915,0.02259322,0.9978,-0.0359,-0.0021,0.0560
1755570162568,0.10073489,-0.04038899,-0.06842370,-0.02604249,-0.01506614,-0.00762014,0.9978,-0.0361,-0.0021,0.0559
1755570162579,-0.01361452,-0.07405487,-0.10559892,-0.01423701,-0.02283769,-0.04485298,0.9978,-0.0361,-0.0023,0.0557
1755570162590,-0.05224658,0.07716046,-0.03483106,-0.06118401,0.00385014,-0.04836034,0.9978,-0.0365,-0.0023,0.0554
1755570162601,-0.21866163,-0.11658729,-0.03483106,-0.04379950,0.02633880,-0.02477060,0.9978,-0.0367,-0.0021,0.0553
1755570162613,-0.09814931,-0.04386069,0.01023958,-0.01407770,0.02395893,0.00367088,0.9978,-0.0368,-0.0020,0.0553
1755570162624,0.10263555,0.04894195,0.02280790,-0.01642362,-0.00356030,0.04804522,0.9978,-0.0369,-0.0020,0.0555
1755570162635,0.08552962,0.00831538,0.09503292,-0.00944597,-0.01279902,-0.00536820,0.9978,-0.0370,-0.0021,0.0555
1755570162646,0.09285517,-0.02974515,0.09542373,-0.02018540,-0.03452741,-0.02793533,0.9978,-0.0371,-0.0023,0.0554
1755570162657,0.11597471,0.01781003,0.07733951,-0.04230458,-0.02911048,-0.04050934,0.9978,-0.0373,-0.0024,0.0551
1755570162668,0.12391286,-0.04530758,-0.08897814,-0.01490398,-0.03964511,-0.03166174,0.9978,-0.0374,-0.0026,0.0550
1755570162679,0.00193506,0.09336658,0.03096094,-0.03455570,-0.03183751,-0.03376123,0.9978,-0.0376,-0.0028,0.0548
1755570162691,0.02542773,0.02934676,-0.01472582,-0.02008028,-0.04001491,-0.01670846,0.9978,-0.0377,-0.0030,0.0547
1755570162702,-0.04432855,0.05961390,0.01180316,-0.01156977,-0.03574166,-0.04884934,0.9978,-0.0378,-0.0032,0.0544
1755570162713,-0.00577154,0.07734979,-0.10648055,0.02700357,-0.02979688,-0.06015509,0.9978,-0.0376,-0.0034,0.0541
1755570162724,-0.10086129,0.17022055,-0.05413072,-0.00257075,-0.02341460,-0.01499549,0.9978,-0.0376,-0.0035,0.0540
1755570162735,-0.18953300,0.15970228,0.16638080,-0.01895446,-0.00503690,-0.00777749,0.9978,-0.0377,-0.0036,0.0539
1755570162746,-0.12384376,-0.05756800,0.07353223,-0.00495949,-0.01448230,0.02444503,0.9978,-0.0378,-0.0036,0.0541
1755570162757,-0.00678073,-0.03775846,0.17465509,-0.00382364,-0.01016471,-0.00852042,0.9978,-0.0378,-0.0037,0.0540
1755570162769,-0.03729689,-0.07585606,0.12188341,0.01558784,-0.00463292,-0.02060744,0.9978,-0.0377,-0.0037,0.0539
1755570162780,-0.01323991,0.01350726,-0.03822600,0.00699300,-0.00524310,-0.02049042,0.9978,-0.0377,-0.0038,0.0538
1755570162791,-0.01989582,0.08710744,-0.00802110,-0.00821450,0.00553241,-0.01246294,0.9978,-0.0377,-0.0037,0.0537
1755570162802,-0.10343037,-0.01256162,-0.07326174,-0.00009059,0.01654560,0.01436117,0.9978,-0.0377,-0.0036,0.0538
1755570162813,-0.14064872,0.00427648,-0.10643687,0.02283905,0.00558797,0.02600069,0.9978,-0.0376,-0.0036,0.0540
1755570162824,0.03768393,0.05326242,-0.01013349,0.00058141,0.00523433,0.04214514,0.9978,-0.0376,-0.0036,0.0542
1755570162835,0.09033311,-0.09127480,-0.06227248,-0.03384057,0.02234113,0.01986192,0.9978,-0.0378,-0.0034,0.0543
1755570162845,0.03320830,-0.16959650,0.13130052,-0.01299236,0.01946091,-0.02381721,0.9978,-0.0378,-0.0033,0.0542
1755570162857,0.02356816,-0.04030346,0.12985298,-0.04733381,0.01365585,-0.03846894,0.9978,-0.0381,-0.0033,0.0540
1755570162868,0.08883993,0.04921226,0.02176941,-0.01274763,0.00064977,-0.01624664,0.9978,-0.0382,-0.0033,0.0539
1755570162879,0.07534272,0.06988420,0.03976561,-0.00125125,0.00102326,0.01287830,0.9978,-0.0382,-0.0033,0.0540
1755570162890,-0.05928472,0.00093756,-0.07531317,0.00104644,-0.03327658,0.00382999,0.9978,-0.0382,-0.0034,0.0540
1755570162901,0.13852362,0.03618898,-0.17248588,-0.00323862,-0.01718512,-0.01476214,0.9978,-0.0382,-0.0035,0.0539
1755570162912,0.04668115,-0.02160245,-0.11853519,-0.00792252,-0.00724916,-0.02630676,0.9978,-0.0382,-0.0036,0.0537
1755570162924,-0.09094776,0.04499011,-0.04257129,-0.00074980,0.00034897,-0.05254238,0.9978,-0.0382,-0.0036,0.0535
1755570162935,-0.05547673,0.16841091,0.20680138,-0.00905400,0.00768532,-0.01390372,0.9978,-0.0383,-0.0035,0.0534
1755570162946,-0.15057496,0.03923417,0.10295197,0.00674650,0.00332927,0.00062016,0.9978,-0.0382,-0.0035,0.0534
1755570162957,-0.11193336,0.09430519,0.00554787,0.02472117,0.00883425,0.02941334,0.9978,-0.0381,-0.0035,0.0535
1755570162968,0.02660922,0.04989228,-0.03801317,0.06415627,0.01553979,0.07779122,0.9978,-0.0377,-0.0034,0.0540
1755570162979,-0.05323603,-0.07168215,-0.02392630,0.05001229,0.00539698,0.03201495,0.9978,-0.0375,-0.0034,0.0542
1755570162991,-0.04618693,-0.22394549,-0.02325472,0.01847183,0.01696356,0.00346533,0.9978,-0.0374,-0.0033,0.0542
1755570163002,-0.03986336,-0.00752064,-0.04046888,-0.01989486,0.01986640,-0.03453940,0.9978,-0.0375,-0.0031,0.0540
1755570163013,0.18064359,-0.01031382,-0.07283448,0.00078972,-0.00061767,0.00680418,0.9978,-0.0375,-0.0032,0.0540
1755570163024,0.03544223,0.07374250,0.07366823,-0.01759409,-0.00706296,-0.01964526,0.9978,-0.0376,-0.0032,0.0539
1755570163035,0.01873411,-0.00388082,0.13750904,-0.00337400,-0.00305533,-0.01791358,0.9978,-0.0376,-0.0032,0.0538
1755570163046,-0.00580518,0.05345600,-0.06966211,0.00303230,-0.02124834,-0.01024955,0.9978,-0.0376,-0.0033,0.0538
1755570163058,0.14273773,0.00324910,-0.13465565,0.01630081,-0.00916948,-0.00513520,0.9978,-0.0375,-0.0034,0.0537
1755570163069,0.02280790,-0.05203052,-0.13684740,0.02206327,0.00428405,-0.00233833,0.9979,-0.0374,-0.0034,0.0537
1755570163080,-0.15736174,0.04680207,0.08431327,-0.00189741,0.01082551,0.00606431,0.9979,-0.0374,-0.0033,0.0537
1755570163091,-0.03410911,0.01681269,0.15212116,-0.00971248,0.01440622,0.01708262,0.9978,-0.0374,-0.0032,0.0538
1755570163102,0.00926064,0.14195254,0.08645566,-0.00271944,0.01490656,0.00716547,0.9978,-0.0374,-0.0031,0.0539
1755570163113,0.01161035,0.00145129,0.02322070,0.00084967,-0.00546645,0.00051967,0.9978,-0.0374,-0.0032,0.0539
1755570163124,0.05914301,-0.07512523,-0.04407473,0.00687680,-0.01062237,-0.02719374,0.9979,-0.0374,-0.0032,0.0537
1755570163136,0.06082107,-0.10762478,-0.03041053,0.00835818,-0.00130921,-0.03205017,0.9979,-0.0373,-0.0032,0.0536
1755570163147,-0.05331778,-0.09763840,-0.07964840,0.02433211,0.00625046,-0.02487726,0.9979,-0.0372,-0.0032,0.0534
1755570163158,-0.10255811,-0.01548047,0.01548047,0.00564946,0.01188875,-0.00943602,0.9979,-0.0372,-0.0031,0.0534
1755570163169,-0.07359486,-0.07629388,0.04458842,0.01832177,0.02271357,0.01616805,0.9979,-0.0371,-0.0030,0.0535
1755570163180,-0.00380132,0.06723579,0.07222502,0.01601392,0.03508695,0.02562929,0.9979,-0.0370,-0.0028,0.0536
1755570163191,-0.03801008,0.09065404,0.04467912,-0.00116430,-0.00589606,-0.00651163,0.9979,-0.0370,-0.0028,0.0536
1755570163202,0.05998682,-0.00580518,0.18189552,-0.00950618,0.00022556,-0.00994872,0.9979,-0.0370,-0.0028,0.0535
1755570163214,-0.05026212,-0.14001231,0.04053940,0.00504495,-0.00852929,-0.00820371,0.9979,-0.0370,-0.0029,0.0535
1755570163225,0.02889341,-0.04435583,-0.11229545,0.00598537,-0.01551890,0.01226659,0.9979,-0.0370,-0.0030,0.0535
1755570163236,0.05216186,-0.05554822,-0.14462059,0.00365933,-0.00840795,0.01503834,0.9979,-0.0370,-0.0030,0.0536
1755570163247,-0.06926825,-0.11615489,-0.25878413,-0.00107424,-0.01657113,-0.00408361,0.9979,-0.0370,-0.0031,0.0536
1755570163258,0.11416846,0.03628235,-0.14319434,-0.04462170,-0.00503687,0.00067272,0.9979,-0.0372,-0.0031,0.0536
1755570163269,0.00796222,-0.03347984,0.10403964,-0.06465778,0.00394348,-0.02905854,0.9979,-0.0376,-0.0031,0.0534
1755570163281,-0.14254937,-0.03516218,0.13684740,-0.03260132,-0.01542268,0.00497950,0.9979,-0.0378,-0.0032,0.0535
1755570163292,0.06842370,0.08030281,0.03421185,-0.00269635,-0.01918532,0.02472846,0.9978,-0.0378,-0.0033,0.0536
1755570163303,-0.01026942,-0.01362032,-0.35579538,0.00801528,-0.03995619,0.02354210,0.9978,-0.0377,-0.0035,0.0537
1755570163314,0.10118796,0.03510323,-0.05398551,-0.02019902,0.01176923,-0.01212641,0.9978,-0.0378,-0.0035,0.0537
1755570163325,-0.10802651,0.08617758,-0.00234990,-0.03891661,0.01163355,-0.04153105,0.9978,-0.0381,-0.0034,0.0534
1755570163337,0.04371514,0.12829444,0.26609216,-0.02301416,0.00591264,-0.01527017,0.9978,-0.0382,-0.0034,0.0533
1755570163348,-0.04331422,0.14590256,0.11969720,-0.00248273,-0.01761832,-0.00344060,0.9978,-0.0382,-0.0035,0.0533
1755570163359,0.05623209,-0.04861661,0.05243077,0.02915351,-0.00737609,0.00114383,0.9978,-0.0380,-0.0035,0.0533
1755570163370,-0.11213884,-0.03587493,-0.06462238,0.08107537,-0.02033479,0.00267791,0.9979,-0.0376,-0.0036,0.0533
1755570163381,-0.05775805,-0.01319339,-0.16959407,0.03097274,0.00301787,0.00044166,0.9979,-0.0374,-0.0036,0.0533
1755570163392,-0.01498267,0.11428564,-0.19304524,-0.00670833,0.00937707,0.00156882,0.9979,-0.0374,-0.0036,0.0534
1755570163404,-0.06313359,-0.05047395,0.00250067,-0.01288898,0.02747087,0.00759516,0.9979,-0.0375,-0.0034,0.0534
1755570163415,-0.17216885,0.05120414,0.23480995,-0.01090132,0.02668785,0.00321378,0.9979,-0.0376,-0.0033,0.0534
1755570163426,-0.02902588,-0.04015247,0.23994728,0.01877533,0.00991799,0.01785541,0.9979,-0.0375,-0.0032,0.0535
1755570163437,0.12244692,0.15139771,0.20359304,0.02931430,-0.01988238,0.03535596,0.9979,-0.0373,-0.0033,0.0537
1755570163448,0.17105925,0.00665230,-0.08362897,0.01248284,-0.02143108,0.02499101,0.9978,-0.0372,-0.0034,0.0539
1755570163459,-0.04561580,-0.14777618,-0.22427768,0.01344293,-0.02981829,-0.01887983,0.9979,-0.0372,-0.0036,0.0537
1755570163471,0.11784082,-0.08766786,-0.16725793,-0.01191163,0.00554004,-0.01123372,0.9979,-0.0372,-0.0036,0.0537
1755570163482,0.04941712,0.03444943,-0.09883423,-0.03803105,-0.00206492,-0.02717463,0.9979,-0.0374,-0.0036,0.0535
1755570163493,-0.04929216,0.02712538,0.16862654,-0.04163412,-0.00547176,-0.02568178,0.9979,-0.0377,-0.0036,0.0534
1755570163504,-0.16402168,-0.06299569,-0.01506828,0.01942210,-0.01247433,0.00194281,0.9979,-0.0376,-0.0037,0.0534
1755570163515,-0.06462238,0.05179294,0.08743028,0.02493672,-0.01710980,0.02502973,0.9979,-0.0374,-0.0038,0.0535
1755570163527,-0.04407442,0.04637662,-0.00722192,0.04431673,-0.01647989,0.05961020,0.9978,-0.0372,-0.0039,0.0539
1755570163538,-0.05048080,-0.09380623,-0.10170174,0.03340576,0.00993236,0.02205618,0.9978,-0.0370,-0.0038,0.0540
1755570163549,0.06040057,0.07647837,-0.10690783,-0.03307350,0.01469897,0.01309711,0.9978,-0.0372,-0.0037,0.0541
1755570163560,0.04181448,-0.01971933,-0.03041053,-0.00636538,0.01704050,-0.00692372,0.9978,-0.0372,-0.0036,0.0540
1755570163571,0.02466520,0.02908101,0.02800785,-0.00688791,0.01724740,-0.01232638,0.9978,-0.0373,-0.0035,0.0540
1755570163582,0.15288704,0.05103732,0.13871355,0.00546759,0.01131964,-0.00501344,0.9978,-0.0372,-0.0035,0.0539
1755570163594,-0.02832485,-0.12091887,0.11383766,0.01387498,-0.00996247,0.00327322,0.9978,-0.0371,-0.0035,0.0540
1755570163605,-0.12924477,-0.27892161,0.00760263,0.01421732,-0.01804643,-0.00408491,0.9978,-0.0371,-0.0036,0.0539
1755570163616,-0.00317902,-0.05127474,-0.11520510,0.00043437,0.00277082,-0.01745730,0.9979,-0.0371,-0.0036,0.0538
1755570163627,0.01645525,0.02468287,-0.22033938,-0.00884803,0.00166043,0.00338441,0.9979,-0.0371,-0.0036,0.0539
1755570163638,0.01629250,0.17464768,-0.02923321,-0.01275373,0.00610010,0.00325584,0.9978,-0.0372,-0.0036,0.0539
1755570163649,0.05023636,0.05801368,0.13153761,-0.02395004,-0.00194526,0.01311682,0.9978,-0.0373,-0.0036,0.0539
1755570163661,0.05380836,-0.05555883,0.14920363,0.00002715,0.00397183,0.00328233,0.9978,-0.0373,-0.0036,0.0540
1755570163672,0.03037689,-0.20109554,0.09136616,0.02550547,0.00239488,-0.00967189,0.9978,-0.0372,-0.0035,0.0539
1755570163683,-0.10643687,0.00190066,-0.09503292,-0.00055215,0.00147415,-0.00028072,0.9978,-0.0372,-0.0035,0.0539
1755570163694,0.00000000,-0.00712747,-0.18246320,-0.01055792,0.01710972,0.00133120,0.9978,-0.0372,-0.0034,0.0539
1755570163705,-0.03942682,0.09985421,-0.40017704,-0.02416431,0.01258676,0.01282007,0.9978,-0.0374,-0.0034,0.0540
1755570163716,0.06188270,0.04620012,-0.01013684,-0.03083690,0.00768473,0.00787321,0.9978,-0.0375,-0.0033,0.0540
1755570163728,0.08452266,0.04334704,0.06481738,-0.04361115,-0.00629801,-0.03693972,0.9978,-0.0378,-0.0034,0.0538
1755570163739,0.13083117,-0.05055039,0.24980506,-0.03516843,-0.02320249,-0.03698692,0.9978,-0.0380,-0.0035,0.0536
1755570163750,0.09603508,-0.02022041,0.14541764,0.00334647,-0.00722171,-0.04991608,0.9978,-0.0380,-0.0035,0.0533
1755570163761,-0.03611251,0.07174985,0.01140395,0.00148651,-0.03327219,-0.01940372,0.9979,-0.0380,-0.0037,0.0532
1755570163772,-0.02899133,0.09941148,0.04930944,-0.00605115,-0.01675912,-0.01998492,0.9979,-0.0380,-0.0038,0.0531
1755570163784,0.03031203,-0.06100674,-0.05867279,0.01742148,0.00034289,0.00082112,0.9979,-0.0379,-0.0038,0.0531
1755570163795,-0.07729960,0.22078078,0.08295066,-0.00821448,-0.00647060,-0.02854036,0.9979,-0.0379,-0.0038,0.0530
1755570163806,-0.14125928,0.11126587,0.17028516,-0.02488647,-0.01182429,-0.00750536,0.9979,-0.0381,-0.0039,0.0529
1755570163817,-0.08218900,-0.12568264,0.02011831,0.02039586,0.00242636,-0.00054819,0.9979,-0.0380,-0.0039,0.0529
1755570163828,-0.13499175,0.01692320,0.05305143,0.02492425,0.00743183,0.01272453,0.9979,-0.0378,-0.0039,0.0530
1755570163839,0.02322070,-0.01402918,-0.01548047,0.01464868,0.00216938,0.02517974,0.9979,-0.0377,-0.0038,0.0531
1755570163850,-0.00398967,-0.07224642,-0.02828728,0.02121734,0.00705675,0.01284254,0.9979,-0.0376,-0.0038,0.0532
1755570163862,0.01900658,-0.00285099,-0.07602633,0.00949918,-0.00039910,0.00909853,0.9979,-0.0376,-0.0038,0.0533
1755570163873,0.02935415,0.14204972,-0.00310992,0.00061198,-0.00482746,0.00701184,0.9979,-0.0376,-0.0038,0.0533
1755570163884,0.12296061,-0.00132062,0.06010190,0.01772864,-0.01299592,0.01319782,0.9979,-0.0375,-0.0039,0.0534
1755570163895,0.12734411,0.01971933,0.10263555,0.01396619,-0.04132947,0.04415979,0.9979,-0.0374,-0.0041,0.0536
1755570163906,-0.06679408,-0.37316397,-0.19903461,0.04841970,-0.04780181,-0.02152056,0.9979,-0.0371,-0.0044,0.0535
1755570163917,0.20304510,-0.09891771,-0.03842412,-0.00395433,0.01806231,0.00398701,0.9979,-0.0371,-0.0043,0.0535
1755570163929,-0.03991382,-0.03278636,-0.10643687,-0.01783871,-0.03711984,-0.00081905,0.9979,-0.0372,-0.0045,0.0535
1755570163940,0.00566490,0.04453195,0.10851282,0.00051137,-0.00653484,-0.00059671,0.9979,-0.0372,-0.0045,0.0535
1755570163951,-0.12489651,-0.08078681,-0.01887536,-0.01707847,-0.00511125,-0.00556793,0.9979,-0.0373,-0.0046,0.0535
1755570163962,0.02781230,0.01451863,-0.04760350,-0.01627048,0.01193179,-0.00400671,0.9979,-0.0374,-0.0045,0.0535
1755570163973,-0.01710592,0.11902009,-0.04838039,-0.03054741,0.00440648,-0.00396607,0.9979,-0.0376,-0.0045,0.0534
1755570163985,0.11124649,-0.02333751,-0.01400375,-0.01688917,-0.00261629,-0.00813683,0.9979,-0.0377,-0.0045,0.0534
1755570163996,0.02301521,0.00271208,-0.02928275,-0.00637081,-0.00557387,-0.02295082,0.9979,-0.0377,-0.0045,0.0533
1755570164007,0.10823479,-0.01881823,0.32064619,-0.01823784,-0.00319841,-0.01207675,0.9979,-0.0378,-0.0045,0.0532
1755570164018,-0.07792699,0.07697666,0.08743028,-0.00874668,-0.01183040,-0.02686794,0.9979,-0.0379,-0.0046,0.0530
1755570164029,0.05069163,0.06709643,0.09523253,-0.01224088,-0.00782384,-0.01325603,0.9979,-0.0379,-0.0047,0.0530
1755570164040,-0.05974231,0.03209929,-0.07157434,0.01346746,-0.01601344,-0.03630544,0.9979,-0.0379,-0.0047,0.0528
1755570164051,0.00718526,0.01631479,-0.19291838,0.04307251,-0.01786554,-0.02223207,0.9979,-0.0376,-0.0048,0.0526
1755570164063,0.13311544,0.12417235,-0.12369936,0.00825999,-0.01549721,0.01369552,0.9979,-0.0376,-0.0049,0.0527
1755570164074,-0.08857068,-0.03981879,-0.05259640,-0.00001941,-0.02617284,0.01507827,0.9979,-0.0376,-0.0051,0.0528
1755570164085,-0.06272172,-0.11546499,0.08743028,0.00563441,-0.00309200,-0.01395374,0.9979,-0.0375,-0.0051,0.0527
1755570164096,0.03306877,0.01946289,0.08127246,-0.01384720,-0.00908566,0.00238466,0.9979,-0.0376,-0.0051,0.0527
1755570164107,-0.03289600,0.20632563,-0.07353223,-0.00823826,-0.00670154,-0.00901608,0.9979,-0.0377,-0.0052,0.0527
1755570164118,0.02643799,0.00359370,0.07595784,0.00106951,-0.01044671,-0.00051557,0.9979,-0.0377,-0.0052,0.0527
1755570164129,-0.05892041,-0.07887732,0.02280790,0.00963923,-0.01617308,-0.00544297,0.9979,-0.0376,-0.0053,0.0526
1755570164141,-0.05236753,-0.04981696,0.11707105,0.00808176,-0.00397908,-0.02068917,0.9979,-0.0376,-0.0054,0.0525
1755570164152,-0.00511979,-0.05540162,-0.13123104,0.00983192,0.01023929,-0.00127724,0.9979,-0.0375,-0.0053,0.0525
1755570164163,-0.05095079,0.03921085,-0.04174198,0.00250031,0.01913255,0.00919777,0.9979,-0.0375,-0.0052,0.0526
1755570164174,-0.10991054,0.06928704,0.06634331,-0.00375331,-0.00276401,0.02241549,0.9979,-0.0375,-0.0052,0.0527
1755570164185,0.08286503,0.10071724,0.12983730,-0.00618110,0.00339373,0.02893012,0.9979,-0.0376,-0.0052,0.0529
1755570164197,0.00513691,-0.07078668,-0.04020492,0.00558048,-0.00924406,0.02759129,0.9979,-0.0375,-0.0052,0.0530
1755570164208,-0.07678036,-0.11192241,0.05991771,0.00450979,-0.01400980,0.00510958,0.9979,-0.0375,-0.0053,0.0530
1755570164219,0.07482126,0.03308755,-0.06439204,0.00656962,0.00107604,-0.01546281,0.9979,-0.0375,-0.0053,0.0530
1755570164230,-0.08678485,-0.05982261,-0.05356702,0.02159712,0.00613936,-0.02182765,0.9979,-0.0373,-0.0053,0.0528
1755570164241,-0.08169705,0.07877324,-0.03374480,0.00058859,0.03382693,-0.00572941,0.9979,-0.0373,-0.0051,0.0528
1755570164252,-0.01342554,-0.05265757,-0.04051636,0.01755166,0.06220360,0.01865085,0.9979,-0.0372,-0.0047,0.0529
1755570164263,0.00289347,-0.00660351,0.04796419,0.00543168,0.04864825,0.02488194,0.9979,-0.0372,-0.0045,0.0530
1755570164274,-0.00286741,-0.01135528,0.02600015,-0.00872089,0.00684644,0.01623875,0.9979,-0.0373,-0.0044,0.0531
1755570164286,0.13134412,-0.03659191,-0.01844470,-0.01290938,0.00241560,0.00822189,0.9979,-0.0373,-0.0044,0.0532
1755570164297,0.13601426,-0.04175653,-0.08554996,0.00113169,0.00932187,-0.01645008,0.9979,-0.0373,-0.0044,0.0531
1755570164308,0.05418164,-0.04910211,-0.28638868,0.00205108,-0.01286595,-0.01260091,0.9979,-0.0373,-0.0044,0.0530
1755570164319,-0.05418164,0.09578540,0.02709082,-0.00897535,-0.02638174,-0.01011503,0.9979,-0.0374,-0.0046,0.0530
1755570164331,0.04208696,0.02553057,0.06351733,-0.00693168,-0.01188401,-0.00294462,0.9979,-0.0374,-0.0047,0.0530
1755570164342,0.01327142,0.02625601,0.15206479,-0.01188615,-0.00716868,-0.01019168,0.9979,-0.0375,-0.0047,0.0529
1755570164353,-0.12771387,-0.14391999,0.08514258,0.00221141,0.00111688,-0.01908317,0.9979,-0.0375,-0.0047,0.0528
1755570164364,-0.06727646,-0.00116223,0.14369662,-0.00599314,0.01526304,0.00336685,0.9979,-0.0375,-0.0046,0.0528
1755570164375,-0.02850987,0.02043208,-0.05321843,0.02137923,0.02045185,0.01667060,0.9979,-0.0374,-0.0045,0.0529
1755570164386,0.00760263,0.02803471,-0.15205267,0.04576101,0.01507684,0.04757727,0.9979,-0.0371,-0.0044,0.0532
1755570164397,0.05904167,0.10352964,-0.13356507,0.00965651,0.00228122,0.02627567,0.9979,-0.0371,-0.0044,0.0533
1755570164408,-0.08839789,0.13637655,-0.19953457,-0.03215816,0.00889809,0.00315023,0.9979,-0.0372,-0.0043,0.0533
1755570164420,0.01710454,0.06086148,0.07460342,-0.02785142,0.01445006,-0.02018119,0.9979,-0.0374,-0.0043,0.0532
1755570164431,0.06191930,-0.09867180,0.18335245,-0.03027476,0.02922741,-0.04818855,0.9979,-0.0376,-0.0041,0.0529
1755570164442,0.02017256,-0.08386467,0.25453728,0.02015504,-0.00100950,-0.01385033,0.9979,-0.0375,-0.0041,0.0529
1755570164453,0.07924547,0.10809566,0.21866132,0.00798702,-0.00332080,0.00847133,0.9979,-0.0374,-0.0041,0.0529
1755570164464,0.03420907,0.04646085,-0.08130702,0.03569307,-0.02556563,0.00521153,0.9979,-0.0372,-0.0043,0.0529
1755570164475,0.12385101,0.05540162,-0.13609398,0.03321222,-0.04228197,0.00624034,0.9979,-0.0370,-0.0045,0.0530
1755570164487,0.03421185,0.10073489,-0.13684740,0.01227708,-0.01769518,-0.03328887,0.9979,-0.0370,-0.0046,0.0528
1755570164498,-0.00081203,-0.09779821,-0.06129989,0.02250202,0.00202440,-0.03202195,0.9979,-0.0368,-0.0046,0.0526
1755570164509,-0.12102880,0.02094439,0.01583422,0.00834706,0.02233545,-0.03655145,0.9979,-0.0368,-0.0045,0.0524
1755570164520,-0.07292137,-0.01713762,0.16369964,0.01065663,0.00357632,0.01482686,0.9979,-0.0367,-0.0044,0.0525
1755570164531,-0.05764209,0.01666861,0.13092676,0.01017175,0.01192097,0.03334879,0.9979,-0.0367,-0.0044,0.0527
1755570164542,-0.11397103,-0.17248846,0.14147386,0.02500610,0.02058815,0.02591918,0.9979,-0.0365,-0.0043,0.0528
1755570164553,-0.06259293,-0.03872231,-0.11686068,0.02003604,0.01306554,-0.00959002,0.9979,-0.0364,-0.0042,0.0528
1755570164565,0.13985818,0.07769151,-0.06159479,-0.00101991,0.01106942,0.00304359,0.9979,-0.0364,-0.0041,0.0528
1755570164576,0.08367401,0.00312719,-0.07487986,0.00531040,0.01299493,-0.01156099,0.9979,-0.0364,-0.0041,0.0527
1755570164587,-0.00235499,-0.00235499,-0.02597213,0.00675074,-0.00965282,-0.01792715,0.9979,-0.0364,-0.0041,0.0526
1755570164598,0.05077388,-0.03702940,0.04192056,-0.00013482,-0.00430119,-0.02168603,0.9980,-0.0364,-0.0041,0.0525
1755570164609,-0.03378085,-0.11020047,-0.01373956,-0.00004565,-0.00537529,-0.02093575,0.9980,-0.0364,-0.0042,0.0524
1755570164620,0.03915356,-0.16631192,0.02294613,0.01131258,0.00246937,-0.00410163,0.9980,-0.0363,-0.0041,0.0524
1755570164632,-0.17866188,0.00522681,0.02280790,-0.01729093,-0.00652461,0.00039619,0.9980,-0.0364,-0.0042,0.0524
1755570164643,0.14521579,-0.07705032,-0.07512174,-0.01895679,-0.00040804,0.01674553,0.9979,-0.0365,-0.0042,0.0525
1755570164654,0.04958927,0.06180996,-0.09645348,-0.02418436,-0.01096623,-0.00714817,0.9979,-0.0366,-0.0043,0.0524
1755570164665,0.10238687,0.06285516,-0.01404202,-0.03475931,-0.00969247,-0.02046627,0.9979,-0.0368,-0.0043,0.0523
1755570164676,-0.10642823,0.00000000,-0.02709082,-0.00030889,-0.02582324,-0.02503002,0.9979,-0.0368,-0.0044,0.0522
1755570164687,0.06966211,0.04837647,-0.03483106,0.00971198,-0.01363397,-0.02278447,0.9980,-0.0368,-0.0045,0.0520
1755570164699,-0.01217864,-0.02173946,-0.18678400,0.01916292,-0.02225947,-0.01908172,0.9980,-0.0367,-0.0046,0.0519
1755570164710,0.12076136,-0.00858789,-0.09236908,-0.00892993,-0.00114905,-0.00802345,0.9980,-0.0367,-0.0047,0.0519
1755570164721,-0.13158399,-0.04837647,0.01548047,-0.00087189,0.00514963,-0.01836740,0.9980,-0.0367,-0.0046,0.0518
1755570164732,-0.13314080,-0.04860522,0.08673076,0.00589528,0.01182591,-0.01277662,0.9980,-0.0367,-0.0046,0.0517
1755570164743,-0.16636815,0.14109295,0.22375391,-0.01229458,0.01690066,0.00516495,0.9980,-0.0368,-0.0045,0.0517
1755570164754,-0.03435609,0.09373160,0.08859050,-0.02374474,0.01049791,0.02240371,0.9980,-0.0369,-0.0044,0.0519
1755570164766,0.04072443,0.08146358,0.04245703,-0.00665010,0.01088181,0.00813954,0.9980,-0.0369,-0.0043,0.0519
1755570164776,-0.02056717,-0.02316068,-0.06099605,0.01295389,-0.00238968,-0.00044873,0.9980,-0.0369,-0.0044,0.0519
1755570164788,0.13365662,0.07512656,-0.08993904,0.02331446,0.00372658,-0.00447549,0.9980,-0.0367,-0.0043,0.0519
1755570164799,-0.04788932,0.02602215,-0.12490632,0.01542473,-0.01604991,0.00058521,0.9980,-0.0366,-0.0044,0.0519
1755570164810,-0.00234990,-0.05231130,0.04354235,0.01189225,-0.00222454,-0.01223880,0.9980,-0.0366,-0.0044,0.0518
1755570164821,-0.00525614,-0.12966974,0.01430839,0.02773434,-0.00496150,0.00069435,0.9980,-0.0364,-0.0045,0.0518
1755570164832,-0.03307432,0.04797088,0.09830422,0.00578153,-0.02568135,0.01827667,0.9980,-0.0364,-0.0046,0.0519
1755570164843,0.07717228,-0.00425131,0.14458774,-0.00973226,-0.02526362,0.02387949,0.9980,-0.0364,-0.0048,0.0521
1755570164852,-0.02405563,-0.01248506,0.11438824,-0.00249307,-0.00575477,-0.00708774,0.9980,-0.0365,-0.0048,0.0520
1755570164863,-0.08660384,-0.04173029,-0.03800060,-0.01051545,-0.01917102,-0.00709436,0.9980,-0.0365,-0.0049,0.0520
1755570164874,0.09328742,0.10515944,-0.01002712,-0.00182652,-0.00721155,-0.00184329,0.9980,-0.0365,-0.0049,0.0520
1755570164885,-0.03948266,0.03162795,-0.14880301,0.01763423,-0.01171892,0.00380830,0.9980,-0.0364,-0.0050,0.0520
1755570164896,-0.03016314,0.07580334,-0.01446835,0.00479659,-0.00264901,0.01292862,0.9980,-0.0364,-0.0050,0.0521
1755570164907,-0.03230473,0.02554546,-0.19941855,0.01134221,-0.00548794,0.02163506,0.9980,-0.0363,-0.0050,0.0522
1755570164922,0.00065382,-0.05212844,0.06758909,0.01081432,0.01489297,0.00648226,0.9980,-0.0362,-0.0049,0.0522
1755570164928,-0.04718068,0.51574197,0.44819510,-0.00263695,0.01485304,0.04672894,0.9980,-0.0363,-0.0049,0.0524
1755570164940,-0.06992440,-0.28636661,0.03939761,0.00076552,-0.01313242,0.01836193,0.9980,-0.0363,-0.0050,0.0525
1755570164953,0.07517306,0.00795327,-0.05532094,0.01206279,-0.01995827,0.00348979,0.9980,-0.0362,-0.0051,0.0525
1755570164961,0.12014061,0.22642780,-0.04656613,0.02550211,-0.00276408,-0.00713486,0.9980,-0.0361,-0.0051,0.0525
1755570164972,-0.12068709,-0.19168312,-0.16255812,0.02595336,-0.00567324,0.00082458,0.9980,-0.0359,-0.0051,0.0525
1755570164984,-0.08805232,0.04760093,-0.00331137,-0.00271040,0.00017878,0.00112789,0.9980,-0.0359,-0.0051,0.0525
1755570164994,0.18192257,-0.01169116,-0.03946611,0.00907492,0.01706387,0.01399945,0.9980,-0.0359,-0.0050,0.0526
1755570165006,-0.00785605,-0.11953557,0.12797766,0.01102975,-0.00218192,0.01324374,0.9980,-0.0358,-0.0051,0.0527
1755570165017,0.03204192,-0.01746093,0.07391982,-0.00525532,-0.02781370,0.01392949,0.9980,-0.0359,-0.0052,0.0527
1755570165028,0.16153914,-0.11352859,0.18390972,-0.00141512,-0.02508187,0.00145445,0.9979,-0.0359,-0.0054,0.0527
1755570165039,0.07783086,-0.23207195,-0.04482663,0.01923868,-0.01201848,-0.02074840,0.9980,-0.0358,-0.0054,0.0526
1755570165051,-0.16407580,-0.03514838,-0.14983299,-0.00448110,-0.00683889,-0.03479771,0.9980,-0.0358,-0.0055,0.0524
1755570165062,-0.01284187,0.05847639,-0.26417571,-0.03068364,0.00987152,-0.02532099,0.9980,-0.0360,-0.0054,0.0523
1755570165073,0.17761802,0.15157111,-0.24707644,-0.06038811,0.04227085,-0.01203319,0.9980,-0.0363,-0.0052,0.0522
1755570165084,-0.13441823,0.05834624,0.04611175,-0.06450718,-0.01516252,-0.03491644,0.9980,-0.0367,-0.0053,0.0520
1755570165096,0.13284601,-0.14654659,0.18059588,-0.03550224,0.00282054,-0.02923523,0.9980,-0.0369,-0.0052,0.0519
1755570165106,0.16733895,0.03043012,-0.08999117,-0.05287963,-0.03664293,-0.03041299,0.9980,-0.0372,-0.0054,0.0517
1755570165118,0.06282060,0.08147475,0.15286803,-0.00269887,-0.00897202,-0.04679338,0.9980,-0.0372,-0.0055,0.0514
1755570165129,-0.03449931,-0.05931946,-0.03401535,-0.04780579,-0.02127346,0.01295001,0.9980,-0.0374,-0.0056,0.0515
1755570165140,-0.36478817,0.24062334,0.27549178,-0.01525841,0.07245680,-0.10253703,0.9980,-0.0375,-0.0052,0.0509
1755570165151,-0.26461927,-0.16892026,-0.09516342,0.09557588,0.00414016,0.02927223,0.9980,-0.0370,-0.0052,0.0511
1755570165162,-0.07164675,0.48293383,0.00158664,0.00649411,0.02706788,0.02149511,0.9980,-0.0370,-0.0050,0.0512
1755570165173,-0.19732506,-0.01560778,-0.14095375,0.06563826,0.04099296,0.03071185,0.9980,-0.0366,-0.0048,0.0514
1755570165185,-0.00714031,-0.01597580,0.07273871,0.00163667,0.06453802,0.02315173,0.9980,-0.0366,-0.0044,0.0515
1755570165196,0.06393249,-0.14401524,0.07121594,0.02021255,0.02411276,0.02903519,0.9980,-0.0365,-0.0043,0.0517
1755570165207,-0.08940006,-0.03745593,0.21135320,0.02915913,0.01264995,-0.01039340,0.9980,-0.0363,-0.0042,0.0516
1755570165218,0.11784082,-0.07602633,0.07602633,0.00439572,0.01655632,0.00886808,0.9980,-0.0363,-0.0041,0.0517
1755570165229,0.01465393,-0.04902773,-0.05181389,0.00188504,0.02903221,-0.01964444,0.9980,-0.0363,-0.0040,0.0515
1755570165241,-0.03203978,-0.11842388,-0.06383981,0.00327446,0.03928532,-0.02616367,0.9980,-0.0363,-0.0037,0.0514
1755570165252,-0.05202181,0.09280802,-0.05676268,-0.00411514,0.03666720,-0.00146151,0.9980,-0.0363,-0.0035,0.0514
1755570165263,-0.04627974,-0.03075408,-0.01419489,0.01226452,0.02840772,0.03018165,0.9980,-0.0362,-0.0034,0.0516
1755570165274,0.00954751,-0.02069463,-0.02000778,-0.00603945,0.00725460,0.03306282,0.9980,-0.0362,-0.0033,0.0517
1755570165285,0.23093999,-0.06606996,-0.05890828,0.00266446,0.02311922,0.05644895,0.9980,-0.0362,-0.0032,0.0521
1755570165296,0.13055218,-0.08223811,0.02263346,-0.05504636,-0.03063680,0.04307536,0.9980,-0.0365,-0.0034,0.0523
1755570165308,0.24634725,-0.19675274,-0.11165660,-0.09112227,-0.05090128,-0.02565945,0.9979,-0.0370,-0.0037,0.0521
1755570165319,0.26700491,-0.36689835,-0.02614034,-0.06761517,-0.04497251,-0.07499877,0.9980,-0.0374,-0.0039,0.0517
1755570165330,0.28363165,-0.18497791,-0.14726995,-0.09803242,-0.06274063,-0.06138980,0.9979,-0.0380,-0.0043,0.0514
1755570165341,0.07114747,-0.08282121,0.01824840,-0.12132963,-0.08526711,-0.03103081,0.9979,-0.0386,-0.0047,0.0512
1755570165352,-0.12941166,-0.16642189,0.04100978,-0.13249819,-0.07010146,-0.02237946,0.9979,-0.0394,-0.0051,0.0511
1755570165363,0.01486887,-0.19995598,0.03713853,-0.14303344,-0.04265452,-0.04103861,0.9979,-0.0402,-0.0054,0.0509
1755570165375,-0.02280790,-0.09099402,-0.09883423,-0.11310794,-0.04648100,-0.06143253,0.9979,-0.0408,-0.0056,0.0505
1755570165386,-0.14635069,-0.00427648,-0.11403950,-0.14329460,-0.04116978,-0.08929259,0.9979,-0.0416,-0.0059,0.0500
1755570165397,-0.18170546,-0.04613258,0.02847301,-0.17001564,0.01028859,-0.08407544,0.9978,-0.0426,-0.0058,0.0495
1755570165408,-0.24575245,-0.14440375,-0.02709082,-0.12406386,0.02822894,-0.06100651,0.9978,-0.0433,-0.0057,0.0492
1755570165419,-0.08953642,0.18408347,-0.12301198,-0.13728457,0.02479975,-0.01824095,0.9978,-0.0440,-0.0055,0.0491
1755570165430,-0.07607199,0.33212820,-0.08486614,-0.15430236,-0.01183495,-0.00814519,0.9978,-0.0449,-0.0056,0.0491
1755570165441,0.19703491,0.20848595,-0.07554689,-0.13208419,-0.00172428,-0.00988595,0.9977,-0.0456,-0.0056,0.0490
1755570165453,0.11079939,-0.27518867,0.07235737,-0.02351656,0.02335863,-0.04847957,0.9977,-0.0458,-0.0055,0.0487
1755570165464,-0.30747857,0.05629416,0.20198347,-0.04389296,-0.02945645,-0.10130686,0.9978,-0.0460,-0.0056,0.0482
1755570165475,-0.00950329,0.13257092,-0.02280790,-0.04317113,-0.00450764,-0.02897176,0.9978,-0.0462,-0.0057,0.0480
1755570165486,-0.17676122,0.20835967,-0.27369480,-0.03240118,0.00093667,-0.02731457,0.9978,-0.0464,-0.0056,0.0478
1755570165497,0.03991382,0.28034710,-0.11403950,0.00933252,0.04403285,0.04140928,0.9978,-0.0464,-0.0054,0.0481
1755570165508,-0.30879006,0.33670115,0.01477801,-0.01115449,-0.02238971,0.02367283,0.9977,-0.0464,-0.0055,0.0482
1755570165520,-0.02362815,0.15781382,0.09250965,0.02059000,-0.00288521,0.07819083,0.9977,-0.0463,-0.0055,0.0487
1755570165531,0.14275121,0.10903345,0.13543452,0.06421291,0.04335708,-0.03244551,0.9978,-0.0460,-0.0053,0.0485
1755570165542,0.10902589,-0.24379650,0.01942220,0.10127981,-0.03354815,0.05025819,0.9978,-0.0454,-0.0055,0.0487
1755570165553,0.12864611,0.22255691,0.00013704,0.01890082,0.00496355,0.03336928,0.9978,-0.0453,-0.0055,0.0489
1755570165564,-0.03527629,-0.09116609,-0.15100307,0.03225947,0.01634024,0.03600667,0.9978,-0.0451,-0.0054,0.0491
1755570165575,0.06515320,0.04724249,-0.08986176,-0.01860818,0.01852537,0.02901435,0.9977,-0.0452,-0.0053,0.0493
1755570165586,0.19714571,0.06695846,0.09007550,-0.03485109,0.00329443,0.01225218,0.9977,-0.0454,-0.0052,0.0494
1755570165598,0.22611706,-0.08452705,0.07504992,0.00297298,-0.00815636,0.00413509,0.9977,-0.0454,-0.0053,0.0494
1755570165609,0.31164629,-0.24127763,0.09461418,0.00222898,-0.01826812,-0.00346195,0.9977,-0.0454,-0.0054,0.0494
1755570165620,-0.03096094,-0.09481788,0.10836329,-0.02683774,-0.03445779,-0.02299936,0.9977,-0.0455,-0.0056,0.0492
1755570165631,-0.02152367,-0.03032706,-0.03150641,-0.07400777,-0.02342686,-0.03877001,0.9977,-0.0459,-0.0057,0.0490
1755570165642,-0.06462238,0.04300239,-0.10643687,-0.05450631,-0.01501816,0.00040308,0.9977,-0.0463,-0.0058,0.0490
1755570165653,-0.05433714,0.02518600,-0.12785209,-0.04924220,-0.00014497,-0.01037789,0.9977,-0.0465,-0.0058,0.0490
1755570165665,-0.10642823,0.11029834,-0.04257129,-0.04402508,0.00894067,-0.03012430,0.9977,-0.0468,-0.0057,0.0488
1755570165676,0.02628388,0.20309219,0.07386883,-0.04487459,0.00932909,0.01336731,0.9977,-0.0470,-0.0057,0.0489
1755570165687,-0.09123160,-0.13589707,0.01520527,0.01147669,-0.01284151,0.01763243,0.9977,-0.0470,-0.0058,0.0490
1755570165698,0.00380132,0.02518372,0.04181448,-0.00872810,0.00730153,0.01406127,0.9977,-0.0470,-0.0057,0.0491
1755570165709,0.00532140,0.06193961,-0.23428473,0.02045239,-0.00424886,0.02739810,0.9977,-0.0469,-0.0057,0.0492
1755570165720,0.02869271,-0.04939428,-0.10589750,0.03456414,-0.00579694,0.01462486,0.9977,-0.0467,-0.0058,0.0493
1755570165732,-0.06073697,0.04823761,-0.07188862,0.02003703,-0.01753012,-0.01989003,0.9977,-0.0466,-0.0059,0.0492
1755570165743,0.04181448,0.03682525,0.08362897,-0.01088324,-0.00160197,-0.03227222,0.9977,-0.0466,-0.0059,0.0490
1755570165754,-0.05620309,0.03101709,0.01979980,-0.05166188,0.01353726,-0.04661196,0.9977,-0.0469,-0.0058,0.0487
1755570165765,-0.07354284,-0.07976883,0.14816224,-0.00869802,0.00969499,-0.01849726,0.9977,-0.0470,-0.0058,0.0486
1755570165776,-0.03349535,-0.08085506,0.12394650,0.00802414,0.00228220,0.00126021,0.9977,-0.0469,-0.0057,0.0486
1755570165788,-0.01190950,-0.05804619,0.09483864,0.01713353,-0.01069193,0.02394753,0.9977,-0.0468,-0.0058,0.0488
1755570165799,-0.03862336,-0.11614253,-0.25189752,0.02332510,-0.01717155,0.02115215,0.9977,-0.0467,-0.0059,0.0489
1755570165810,-0.02263511,-0.19736609,-0.36831302,0.00485118,-0.00331023,-0.00169664,0.9977,-0.0467,-0.0059,0.0489
1755570165821,0.02304666,-0.01184880,-0.20034761,-0.05248416,0.01543224,-0.03320364,0.9977,-0.0470,-0.0058,0.0487
1755570165832,0.03152097,0.01306286,0.20006640,-0.09220597,0.03310144,-0.06113874,0.9977,-0.0475,-0.0056,0.0483
1755570165843,-0.01098416,-0.05304170,0.22468239,-0.05144173,0.01904616,-0.03414699,0.9977,-0.0478,-0.0055,0.0482
1755570165854,-0.19646367,-0.08852128,0.22241559,-0.01248991,0.01490124,-0.01122866,0.9977,-0.0479,-0.0055,0.0481
1755570165865,-0.08466310,0.00566604,0.15586641,0.00503328,0.02414791,0.02759086,0.9977,-0.0478,-0.0053,0.0483
1755570165877,-0.09832054,0.17713579,-0.11023818,0.00923791,0.00204357,0.04234805,0.9977,-0.0478,-0.0053,0.0485
1755570165888,0.00438844,0.14805143,-0.17902748,-0.01447105,0.01644772,0.04945991,0.9976,-0.0479,-0.0052,0.0488
1755570165899,0.14960407,0.01031236,-0.10766973,-0.01793575,0.02703491,0.03154638,0.9976,-0.0480,-0.0051,0.0489
1755570165910,0.06577472,-0.00193938,0.04671785,-0.03113712,0.00796879,0.00823094,0.9976,-0.0481,-0.0050,0.0490
1755570165921,0.09675293,-0.08296564,0.14706446,-0.01207258,0.01594290,-0.00261177,0.9976,-0.0482,-0.0049,0.0490
1755570165932,-0.06794425,-0.09499011,0.17667561,-0.00147688,-0.00006926,0.00904056,0.9976,-0.0482,-0.0049,0.0490
1755570165944,-0.02239139,-0.07129482,0.09651105,0.00629045,-0.00870975,0.00534185,0.9976,-0.0482,-0.0050,0.0491
1755570165955,0.09061517,0.04713761,-0.04623223,-0.00495085,-0.01361330,0.02194616,0.9976,-0.0482,-0.0051,0.0492
1755570165966,0.03801317,0.01805625,-0.10263555,-0.02883158,-0.02957879,0.01494156,0.9976,-0.0484,-0.0052,0.0493
1755570165977,0.12370554,0.03290680,-0.07038776,-0.05882496,-0.03367397,0.00096147,0.9976,-0.0487,-0.0054,0.0493
1755570165988,0.04655757,0.06313268,0.16099090,-0.04856155,-0.03994048,-0.02466635,0.9976,-0.0490,-0.0056,0.0491
1755570165999,-0.02090724,0.04609096,0.26229085,-0.03590384,-0.05600709,-0.01565950,0.9976,-0.0492,-0.0059,0.0490
1755570166011,-0.08552962,0.02660922,0.09123160,0.01225922,-0.07917302,-0.00086316,0.9976,-0.0491,-0.0064,0.0490
1755570166022,0.00087964,0.19476187,0.00281486,0.01320996,-0.07025220,0.01915807,0.9976,-0.0490,-0.0068,0.0491
1755570166033,0.07341362,0.05702074,-0.20386071,0.02634307,-0.06918354,0.02801650,0.9976,-0.0489,-0.0072,0.0493
1755570166044,-0.06163076,0.14693174,-0.07445695,-0.03098025,-0.06799772,-0.01611816,0.9976,-0.0490,-0.0075,0.0492
1755570166055,0.01465733,0.06481288,0.06763604,-0.02771858,-0.06109473,0.01399088,0.9975,-0.0492,-0.0079,0.0493
1755570166067,-0.00497950,0.07079821,0.08537226,0.00357561,-0.08350914,0.01787488,0.9975,-0.0492,-0.0084,0.0494
1755570166078,0.16617052,0.20057909,0.07598145,0.01289174,-0.09668424,0.02956845,0.9975,-0.0491,-0.0089,0.0495
1755570166089,0.05011802,0.29588366,0.14417946,0.00403611,-0.13411582,0.02404587,0.9975,-0.0491,-0.0096,0.0497
1755570166100,0.05258488,0.11647097,-0.03452006,0.02256651,-0.16340190,0.05813726,0.9975,-0.0490,-0.0106,0.0500
1755570166111,0.17527831,0.01551502,-0.08514258,0.12013477,-0.15039153,0.05341810,0.9975,-0.0483,-0.0114,0.0503
1755570166122,0.03096094,0.35266444,-0.03870117,0.03520970,-0.21066232,0.06940857,0.9975,-0.0481,-0.0126,0.0507
1755570166133,0.10540948,0.41223952,0.04671167,0.01314898,-0.22516187,0.03359211,0.9975,-0.0480,-0.0138,0.0509
1755570166144,0.28319809,0.06058348,-0.10643687,0.09353663,-0.21156439,0.04669058,0.9974,-0.0475,-0.0150,0.0511
1755570166156,0.00264343,-0.10772834,0.08735408,0.02992314,-0.24067949,0.04442431,0.9974,-0.0473,-0.0163,0.0514
1755570166167,0.13115588,-0.18466872,0.21080486,0.04790718,-0.22150753,0.02401329,0.9974,-0.0471,-0.0176,0.0515
1755570166178,0.11803858,-0.23868435,0.12209706,0.06562105,-0.20778385,0.04029128,0.9974,-0.0467,-0.0187,0.0517
1755570166189,0.22176780,-0.28356030,-0.05691088,0.07583011,-0.18547904,0.11599395,0.9974,-0.0463,-0.0198,0.0524
1755570166200,-0.09469933,-0.37174450,-0.05706742,0.06435679,-0.21785223,0.05414631,0.9973,-0.0459,-0.0210,0.0527
1755570166211,0.13898354,-0.31024463,-0.23837283,0.00785226,-0.15726585,0.00515035,0.9973,-0.0459,-0.0219,0.0527
1755570166222,0.30847339,-0.21575896,-0.21097370,-0.04412100,-0.08723445,-0.03323828,0.9973,-0.0461,-0.0224,0.0525
1755570166234,-0.00266092,-0.07366779,-0.09309770,-0.07375865,-0.07127507,-0.08726447,0.9973,-0.0465,-0.0228,0.0520
1755570166245,-0.08477976,-0.13188202,-0.05794810,-0.06685385,-0.05221044,-0.06011680,0.9973,-0.0469,-0.0230,0.0517
1755570166256,-0.12504962,-0.20428652,0.01941754,-0.06011676,-0.02165453,-0.00490486,0.9973,-0.0472,-0.0232,0.0517
1755570166267,-0.09503292,-0.24518492,-0.11784082,-0.08528283,-0.02543855,0.04006182,0.9972,-0.0477,-0.0233,0.0519
1755570166278,0.04403986,-0.16037663,-0.07871542,-0.12651811,-0.00756596,0.02297986,0.9972,-0.0484,-0.0234,0.0520
1755570166289,0.06659153,-0.21786082,-0.18427824,-0.10742936,-0.03779604,0.01481070,0.9972,-0.0490,-0.0236,0.0521
1755570166301,1.05676602,-0.16155596,-0.05701975,-0.12962697,-0.02385226,0.00303092,0.9971,-0.0497,-0.0237,0.0521
1755570166312,-0.47706524,0.38108199,0.34211850,-0.12894922,-0.08223858,-0.02396530,0.9971,-0.0505,-0.0242,0.0520
1755570166323,0.28964902,-0.08420827,0.00562972,-0.11842281,-0.10243833,-0.04284368,0.9970,-0.0511,-0.0247,0.0518
1755570166334,0.15457536,0.04302831,0.07809978,-0.06987003,-0.08157864,-0.04833941,0.9970,-0.0515,-0.0252,0.0515
1755570166345,-0.00385103,-0.42467843,-0.25733565,0.01424453,-0.09867499,-0.03520703,0.9970,-0.0514,-0.0257,0.0513
1755570166356,-0.01530922,0.63709880,0.01006915,-0.05849352,-0.14310438,-0.01645126,0.9970,-0.0517,-0.0265,0.0512
1755570166368,-0.32665333,-0.32170786,-0.02482828,-0.04001090,-0.10951463,-0.06422669,0.9970,-0.0520,-0.0271,0.0508
1755570166379,-0.01719306,0.24358434,0.00313869,-0.08154776,-0.07143913,-0.09911530,0.9970,-0.0524,-0.0275,0.0503
1755570166390,-0.21798823,0.29698650,0.32864110,-0.08564401,-0.05802384,-0.05783620,0.9970,-0.0529,-0.0279,0.0500
1755570166401,-0.01900658,-0.09218193,-0.23568163,-0.04603269,-0.06456996,-0.01904349,0.9969,-0.0532,-0.0282,0.0499
1755570166412,-0.02470655,-0.26106879,-0.07937196,-0.00268834,-0.06825542,0.01150888,0.9969,-0.0532,-0.0286,0.0499
1755570166424,-0.33092595,-0.17595948,-0.02469371,-0.00432888,-0.05405014,-0.01483293,0.9969,-0.0532,-0.0289,0.0498
1755570166435,0.01373378,0.17985557,0.34635838,-0.06656898,0.00856997,-0.07226020,0.9969,-0.0536,-0.0289,0.0494
1755570166446,-0.24903390,0.12807166,0.16966754,-0.04121508,0.04131695,-0.10574694,0.9969,-0.0538,-0.0286,0.0489
1755570166457,0.10847575,-0.10392281,-0.28088274,-0.02233689,0.04200507,-0.09732081,0.9970,-0.0539,-0.0284,0.0483
1755570166468,-0.69944226,0.12876960,0.26989348,-0.02642731,0.03750886,-0.04230021,0.9970,-0.0541,-0.0282,0.0481
1755570166479,-0.36826585,0.19487077,0.01710454,-0.04709456,0.07748594,-0.02309798,0.9970,-0.0543,-0.0278,0.0480
1755570166490,-0.20318116,0.04523200,-0.06579199,0.01440994,0.12557792,0.00588787,0.9970,-0.0542,-0.0271,0.0480
1755570166502,-0.03184277,0.01839833,-0.00602203,0.00705639,0.11070117,-0.00618803,0.9970,-0.0542,-0.0264,0.0480
1755570166513,-0.17076465,0.07052475,-0.02096028,-0.00118338,0.12465962,-0.03741130,0.9971,-0.0542,-0.0257,0.0477
1755570166524,-0.00580518,0.07474164,0.06192188,-0.02657784,0.14798058,-0.01941037,0.9971,-0.0544,-0.0249,0.0476
1755570166535,-0.17876462,-0.04578061,0.07835507,-0.02957045,0.14501980,-0.03928768,0.9971,-0.0545,-0.0241,0.0474
1755570166546,-0.05183193,-0.13787941,0.20345760,-0.02281073,0.14168221,-0.05160100,0.9971,-0.0547,-0.0233,0.0471
1755570166557,-0.02465719,-0.26225232,0.17849065,-0.01549406,0.11106148,-0.06298786,0.9971,-0.0547,-0.0227,0.0468
1755570166569,0.08615643,-0.24179398,0.00200054,-0.02525688,0.12758002,-0.08528479,0.9972,-0.0549,-0.0220,0.0463
1755570166580,-0.09185535,-0.17521271,-0.06990185,-0.06116577,0.12704388,-0.08931178,0.9972,-0.0552,-0.0213,0.0458
1755570166591,-0.17765566,0.04071054,0.08790476,-0.06207770,0.16474203,-0.05648736,0.9972,-0.0556,-0.0204,0.0455
1755570166602,-0.21104219,0.19135310,-0.15592310,-0.02553176,0.11007717,-0.03073667,0.9972,-0.0557,-0.0198,0.0453
1755570166613,0.13114542,0.20550868,-0.18246320,-0.01007480,0.11694199,0.01617353,0.9972,-0.0558,-0.0191,0.0454
1755570166624,-0.05721534,0.05655058,-0.07361974,-0.01399268,0.09221838,-0.04131768,0.9972,-0.0558,-0.0186,0.0452
1755570166635,0.01007869,-0.07671052,0.05761245,-0.06260422,0.12066700,-0.06296985,0.9973,-0.0562,-0.0179,0.0448
1755570166647,0.01171497,-0.10026837,0.17734870,-0.05846489,0.12135918,-0.09423020,0.9973,-0.0565,-0.0172,0.0443
1755570166658,-0.10073489,-0.02755955,0.15205267,-0.04339978,0.09827332,-0.07278260,0.9973,-0.0568,-0.0167,0.0439
1755570166669,-0.07881606,0.28088777,0.14144668,-0.07676998,0.09282595,-0.03890109,0.9973,-0.0572,-0.0162,0.0437
1755570166680,-0.07084272,0.10188393,-0.05909319,-0.00689489,0.07638448,-0.01207277,0.9973,-0.0572,-0.0158,0.0436
1755570166691,0.00950329,0.22736625,-0.16345662,0.01776582,0.06050959,0.01267067,0.9973,-0.0571,-0.0154,0.0437
1755570166702,0.17476757,0.09357208,-0.25024099,0.01269633,0.05103779,0.00726984,0.9973,-0.0570,-0.0151,0.0437
1755570166713,0.04692898,0.06941723,-0.11535268,0.00978652,0.06512313,0.00969984,0.9973,-0.0570,-0.0148,0.0438
1755570166724,-0.05539105,0.17512713,0.00542508,-0.00460631,0.07617589,-0.01456712,0.9973,-0.0570,-0.0143,0.0437
1755570166736,-0.17968541,0.00861672,0.13507525,0.03362084,0.07954853,-0.00862178,0.9973,-0.0568,-0.0139,0.0436
1755570166747,-0.17379639,0.19324756,0.19390146,0.00456597,0.06719614,0.01880856,0.9973,-0.0568,-0.0135,0.0438
1755570166758,0.05715798,0.02803471,0.05183614,0.02323719,0.06803977,0.05960928,0.9973,-0.0567,-0.0131,0.0441
1755570166769,-0.10694655,-0.00555034,-0.03752632,0.02094205,0.04024653,0.07396758,0.9973,-0.0566,-0.0129,0.0445
1755570166780,0.04326994,-0.12802047,-0.01602717,0.01516483,0.05774723,0.03590948,0.9973,-0.0565,-0.0126,0.0447
1755570166792,-0.05869907,-0.13537796,-0.04174452,0.01068747,0.05731003,0.00233183,0.9973,-0.0564,-0.0123,0.0447
1755570166803,0.10510965,0.14072843,-0.02260423,0.01658644,0.07183177,0.00297245,0.9973,-0.0563,-0.0119,0.0447
1755570166814,0.09868799,0.07208094,-0.10062305,0.02271443,0.04182519,0.03058600,0.9973,-0.0562,-0.0116,0.0449
1755570166825,0.04921164,0.11289225,-0.00681497,-0.00278099,0.02672651,0.02070715,0.9973,-0.0562,-0.0115,0.0450
1755570166836,0.08362897,-0.18911550,-0.00380132,0.00343070,0.02253257,0.01281412,0.9973,-0.0562,-0.0114,0.0451
1755570166847,0.12307972,-0.19262434,0.06516399,-0.01990438,0.01556227,-0.00637649,0.9973,-0.0563,-0.0113,0.0450
1755570166858,0.12430305,-0.07120557,0.14127075,-0.00921187,0.00544430,-0.00884510,0.9973,-0.0564,-0.0113,0.0450
1755570166870,0.10664525,-0.04018577,-0.01960526,-0.01312687,-0.02480700,-0.02017314,0.9973,-0.0564,-0.0114,0.0449
1755570166881,0.10019494,-0.05628366,-0.06421655,0.00149853,-0.02823991,-0.01617168,0.9973,-0.0564,-0.0115,0.0448
1755570166892,-0.01407683,0.07747583,-0.23623516,0.01506253,-0.04149564,-0.01678291,0.9973,-0.0563,-0.0118,0.0447
1755570166903,0.06092057,-0.04627180,-0.09532737,0.02956303,-0.01699523,0.01901147,0.9973,-0.0562,-0.0119,0.0448
1755570166914,0.01623402,0.04359295,-0.06364571,0.01458770,-0.02563011,0.06398805,0.9973,-0.0561,-0.0120,0.0452
1755570166925,-0.01009077,-0.08898537,0.13200936,0.00944093,-0.02871667,0.00944031,0.9973,-0.0560,-0.0122,0.0452
1755570166936,-0.00190066,0.00688989,0.03801317,0.00717606,-0.01263918,-0.01390603,0.9973,-0.0560,-0.0122,0.0451
1755570166947,0.08117350,0.04615050,0.21308485,-0.04366480,-0.01713897,0.00317029,0.9973,-0.0562,-0.0123,0.0452
1755570166959,-0.02878832,-0.10985308,0.11919316,-0.02128773,-0.03335241,-0.00696991,0.9973,-0.0564,-0.0125,0.0451
1755570166970,0.01964574,-0.03736560,-0.12426605,0.00095509,-0.05023824,0.00880048,0.9973,-0.0563,-0.0128,0.0452
1755570166981,0.12854318,0.06320904,-0.32502075,0.01868841,-0.04601367,0.02044329,0.9973,-0.0562,-0.0131,0.0453
1755570166992,0.08737891,-0.01180206,-0.22527082,-0.00284068,-0.06476671,0.02510538,0.9973,-0.0563,-0.0134,0.0454
1755570167003,0.01052188,-0.20143183,0.02605418,-0.02086786,-0.05748379,-0.00311445,0.9973,-0.0564,-0.0137,0.0454
1755570167014,-0.05224658,-0.02830023,0.00774023,-0.05113953,-0.04350595,-0.01457319,0.9973,-0.0567,-0.0140,0.0453
1755570167026,-0.01566759,0.04426736,0.14897052,-0.07108001,-0.02825886,-0.00353679,0.9972,-0.0571,-0.0141,0.0453
1755570167037,-0.01520527,0.01235428,-0.00760263,-0.03816554,-0.04385197,-0.00412514,0.9972,-0.0573,-0.0144,0.0453
1755570167048,-0.07792699,0.03231119,0.11403950,-0.02067973,-0.03004190,-0.02254702,0.9972,-0.0574,-0.0146,0.0452
1755570167059,-0.08388812,-0.07448610,-0.04722962,0.02073587,-0.01952189,-0.00680738,0.9972,-0.0573,-0.0147,0.0451
1755570167070,-0.07355611,0.13953006,-0.08667767,-0.02022053,-0.00391398,0.00887511,0.9972,-0.0574,-0.0147,0.0452
1755570167081,-0.16551372,0.11988716,-0.07372440,-0.02012617,-0.00953118,-0.01457920,0.9972,-0.0575,-0.0147,0.0451
1755570167093,0.04162085,0.12766119,-0.09254360,-0.01570687,-0.00726877,0.00908956,0.9972,-0.0576,-0.0148,0.0451
1755570167104,-0.17083206,0.24101672,0.10294912,-0.01004072,-0.02007035,0.00811048,0.9972,-0.0576,-0.0149,0.0452
1755570167115,-0.01668568,-0.00448969,0.13131278,0.01082563,-0.01096113,0.01443761,0.9972,-0.0576,-0.0150,0.0453
1755570167126,-0.10617136,0.10428768,0.12196007,0.01308292,-0.01320965,0.02188986,0.9972,-0.0575,-0.0150,0.0454
1755570167137,0.01935059,-0.27864845,-0.06192188,0.04972840,0.00439270,0.04383093,0.9972,-0.0572,-0.0150,0.0456
1755570167148,-0.10104311,0.04749719,-0.05472526,0.01819703,0.00235766,0.02597433,0.9972,-0.0571,-0.0150,0.0458
1755570167159,0.01294070,-0.03631475,-0.08023583,0.01296728,0.01561497,0.03509138,0.9972,-0.0571,-0.0149,0.0460
1755570167170,-0.15286964,-0.00217694,-0.06192188,0.01117432,0.00069300,0.03060285,0.9972,-0.0570,-0.0149,0.0461
1755570167182,0.05805176,0.00411200,-0.02322070,0.00238470,0.01110450,0.04709909,0.9972,-0.0570,-0.0148,0.0464
1755570167193,0.04740250,-0.03598292,-0.07754631,0.00487175,0.01329250,0.04030326,0.9972,-0.0570,-0.0148,0.0466
1755570167204,-0.06582536,-0.00032913,0.10678530,-0.00496793,0.01018687,0.02693420,0.9972,-0.0570,-0.0147,0.0468
1755570167215,0.07528079,-0.11707775,0.16865612,-0.01306372,0.02743937,-0.00236747,0.9972,-0.0571,-0.0146,0.0468
1755570167226,-0.09506751,-0.12233490,0.05925154,-0.00992085,0.02438912,-0.02560218,0.9972,-0.0571,-0.0144,0.0466
1755570167237,0.16480435,-0.06569366,-0.05308020,0.00303365,0.03677914,-0.00393845,0.9972,-0.0571,-0.0142,0.0466
1755570167249,-0.06401243,0.00938158,-0.02183852,-0.00116165,0.02975942,0.00475140,0.9972,-0.0571,-0.0140,0.0466
1755570167260,-0.10001572,0.13277639,-0.22164073,0.00685250,0.02020171,0.01990706,0.9972,-0.0571,-0.0139,0.0467
1755570167271,0.06562141,0.05227721,-0.21055147,-0.00353723,0.03721492,0.03722262,0.9972,-0.0571,-0.0137,0.0469
1755570167282,-0.07163132,-0.07192413,-0.04817291,-0.00840581,0.04748332,0.00436077,0.9972,-0.0571,-0.0135,0.0470
1755570167293,-0.03399319,-0.04197427,-0.01449883,-0.03885814,0.05674696,0.01275660,0.9972,-0.0573,-0.0131,0.0470
1755570167304,0.02149849,0.15947937,0.29675654,-0.05742861,0.04436748,0.01473200,0.9971,-0.0577,-0.0129,0.0471
1755570167315,0.17655388,-0.05304565,0.22172043,-0.00454620,0.04324515,0.00235946,0.9971,-0.0577,-0.0127,0.0471
1755570167326,0.06750245,-0.04410897,0.04782359,0.00677304,0.01453059,-0.01408943,0.9971,-0.0577,-0.0126,0.0471
1755570167338,0.20254463,-0.11924598,-0.00515658,0.01445900,0.03460736,-0.02268073,0.9972,-0.0576,-0.0124,0.0469
1755570167349,-0.20502004,-0.02603897,-0.05506162,0.04310272,0.03865022,-0.05565100,0.9972,-0.0573,-0.0122,0.0466
1755570167360,-0.06087446,0.08176289,-0.09543922,-0.00794608,0.06024885,-0.00498921,0.9972,-0.0574,-0.0118,0.0466
1755570167371,-0.12344005,0.23840634,-0.09544387,-0.04716082,0.05983895,0.01003378,0.9972,-0.0576,-0.0115,0.0466
1755570167382,0.02586413,0.04099690,-0.12042285,-0.02397820,0.07301312,0.00891002,0.9972,-0.0578,-0.0111,0.0467
1755570167393,0.06939971,0.03800889,-0.00989712,-0.01476397,0.05288838,0.01429688,0.9972,-0.0579,-0.0108,0.0468
1755570167405,0.09123160,0.13874806,0.49036985,0.00498942,0.03245796,0.01283480,0.9972,-0.0578,-0.0106,0.0469
1755570167416,0.01014178,-0.04966795,0.20794970,0.01582446,-0.00480065,-0.00363040,0.9972,-0.0577,-0.0106,0.0468
1755570167427,0.05076984,0.09959193,0.09421101,0.00936615,-0.00448624,0.00313094,0.9972,-0.0577,-0.0107,0.0468
1755570167438,0.12486312,-0.11016445,-0.29243574,0.01028050,0.01530927,0.00924539,0.9972,-0.0576,-0.0106,0.0469
1755570167449,-0.05224658,0.08901270,-0.05031153,0.01202134,-0.01073963,0.02086051,0.9972,-0.0576,-0.0106,0.0470
1755570167460,0.05537594,0.11290724,-0.00623279,0.02110725,-0.01682776,0.03138200,0.9972,-0.0574,-0.0107,0.0472
1755570167471,0.04941712,-0.01140395,0.01520527,0.03047345,-0.00555070,0.01106685,0.9972,-0.0573,-0.0108,0.0473
1755570167483,-0.00511408,-0.05597632,-0.00905331,0.03898738,-0.01349414,0.02384530,0.9972,-0.0571,-0.0108,0.0474
1755570167494,0.02902588,0.06409882,0.02709082,0.02543993,-0.03243354,0.03439090,0.9972,-0.0569,-0.0110,0.0476
1755570167505,0.06373198,0.04659395,0.04674592,0.00852748,-0.01997290,0.03518679,0.9972,-0.0569,-0.0111,0.0478
1755570167516,-0.01900658,-0.09146918,0.09503292,0.01066727,-0.00257039,0.01064344,0.9972,-0.0568,-0.0111,0.0478
1755570167527,0.04581943,0.01165786,-0.02308249,0.00019381,-0.01868716,0.04087611,0.9972,-0.0568,-0.0113,0.0481
1755570167538,0.01161035,-0.19011951,0.03483106,-0.02058415,-0.02417997,0.04524504,0.9971,-0.0569,-0.0114,0.0483
1755570167549,-0.00601771,-0.15675786,0.00024852,-0.00003670,-0.01416426,0.00269248,0.9971,-0.0569,-0.0115,0.0483
1755570167561,0.01912998,-0.10019474,-0.07166527,-0.00372797,-0.00520605,0.00045706,0.9971,-0.0569,-0.0115,0.0483
1755570167572,-0.01544622,-0.10499406,-0.09370479,0.00016333,0.00592816,-0.01553307,0.9971,-0.0569,-0.0115,0.0482
1755570167583,0.03483106,0.01644800,-0.04644141,-0.00418078,0.00826416,0.01267314,0.9971,-0.0570,-0.0114,0.0483
1755570167594,-0.09332061,0.03215280,-0.05917725,-0.00494684,-0.00987738,0.02503012,0.9971,-0.0570,-0.0115,0.0485
1755570167605,0.02280790,-0.07341293,0.19006583,-0.00661225,-0.00812110,0.03878148,0.9971,-0.0570,-0.0115,0.0487
1755570167616,0.07001962,0.01187959,0.02265962,-0.00871863,-0.00460028,0.00290930,0.9971,-0.0571,-0.0115,0.0487
1755570167627,-0.01357940,-0.00295564,0.08297012,-0.01522896,-0.00344470,-0.02273757,0.9971,-0.0572,-0.0116,0.0486
1755570167639,0.18061300,0.14336725,-0.19719751,-0.01911678,0.00172440,-0.02938575,0.9971,-0.0573,-0.0115,0.0484
1755570167650,0.01329453,-0.01266967,0.10427785,-0.01962027,0.00376221,-0.01877892,0.9971,-0.0574,-0.0115,0.0483
1755570167661,-0.09650439,-0.02291447,0.07044324,-0.00389505,-0.00488126,-0.00424363,0.9971,-0.0574,-0.0116,0.0483
1755570167672,-0.07695098,-0.00273541,-0.09907396,0.00378953,-0.00840844,0.00542863,0.9971,-0.0574,-0.0116,0.0483
1755570167683,0.00687958,0.08970475,-0.10515923,-0.00579788,-0.00079463,0.00115376,0.9971,-0.0574,-0.0116,0.0483
1755570167694,-0.00644263,0.07630822,-0.04055690,0.00119679,0.01095835,-0.00989632,0.9971,-0.0574,-0.0115,0.0482
1755570167705,-0.07981522,0.22144831,0.15896856,-0.00436452,0.00889579,-0.01042341,0.9971,-0.0574,-0.0115,0.0482
1755570167716,-0.14566932,0.06722234,0.15190922,0.01089324,0.00821162,-0.00690783,0.9971,-0.0574,-0.0115,0.0482
1755570167727,-0.06368416,-0.04740030,-0.08051226,0.03483443,0.02415330,0.00179960,0.9971,-0.0572,-0.0113,0.0482
1755570167738,0.01591650,-0.06604534,-0.12993059,0.03014475,0.04509215,0.03166782,0.9971,-0.0570,-0.0111,0.0483
1755570167749,-0.14794380,-0.07450609,-0.06011914,0.02493527,0.03704962,0.03670265,0.9971,-0.0569,-0.0109,0.0485
1755570167760,-0.04711543,-0.01546957,-0.02003278,0.01913730,0.04440292,0.04383732,0.9971,-0.0568,-0.0106,0.0488
1755570167772,0.05991832,-0.01356468,0.06976486,0.00693912,0.03723411,0.03642125,0.9971,-0.0567,-0.0104,0.0490
1755570167783,0.06222516,0.01854212,0.16088816,-0.00437380,0.02879651,0.00357088,0.9971,-0.0568,-0.0102,0.0490
1755570167794,0.09123160,-0.09194435,0.13684740,-0.00237298,0.00723237,-0.00206811,0.9971,-0.0568,-0.0102,0.0490
1755570167805,0.13194653,-0.14177215,0.42068072,0.01912183,-0.00134931,-0.01108135,0.9971,-0.0567,-0.0102,0.0489
1755570167816,0.15913357,-0.09940119,-0.06735381,0.01620230,0.01087142,0.00046470,0.9971,-0.0566,-0.0101,0.0489
1755570167828,0.10899350,0.05350227,-0.16275018,0.01500433,-0.00680155,-0.00183360,0.9972,-0.0565,-0.0102,0.0489
1755570167839,0.15509875,-0.04201617,-0.52961577,0.02199866,-0.00899480,0.00674574,0.9972,-0.0564,-0.0102,0.0490
1755570167850,0.00426054,-0.09101591,-0.02518978,0.00408099,-0.01513332,0.00014404,0.9972,-0.0563,-0.0103,0.0490
1755570167861,-0.00544556,0.10434975,0.07370347,-0.03614240,-0.01975527,-0.00880730,0.9971,-0.0565,-0.0104,0.0489
1755570167872,0.07402319,0.08770506,0.24312269,-0.07223713,-0.04485527,0.01004437,0.9971,-0.0569,-0.0107,0.0490
1755570167883,0.05278991,-0.00116274,0.14652170,-0.01258609,-0.06486895,0.02782410,0.9971,-0.0570,-0.0110,0.0491
1755570167895,0.00030276,-0.00539711,-0.07373881,0.03236277,-0.08629356,0.00814053,0.9971,-0.0568,-0.0115,0.0492
1755570167905,0.33954240,0.27392539,-0.08331983,0.02785599,-0.07982139,0.02435772,0.9971,-0.0567,-0.0120,0.0493
1755570167917,0.03685785,0.07779341,-0.14289504,0.01672185,-0.10278667,-0.02071054,0.9971,-0.0566,-0.0126,0.0492
1755570167928,0.04117300,0.11584636,-0.05027365,-0.01379685,-0.10605275,-0.03085071,0.9971,-0.0567,-0.0131,0.0490
1755570167939,0.00351506,-0.11315433,0.06362615,-0.01884688,-0.10995152,-0.02856350,0.9971,-0.0568,-0.0137,0.0489
1755570167950,-0.04962259,0.12801191,0.28157140,-0.02953233,-0.12824065,-0.02180960,0.9971,-0.0569,-0.0145,0.0487
1755570167961,0.08296564,0.07304846,0.21900718,0.01489019,-0.15052041,0.00027080,0.9971,-0.0568,-0.0153,0.0487
1755570167972,0.09675293,0.05660047,0.01548047,0.04913108,-0.17293972,0.02616461,0.9971,-0.0566,-0.0163,0.0489
1755570167984,0.02905781,0.13617532,-0.04612949,0.05848876,-0.18429514,0.03246834,0.9971,-0.0562,-0.0173,0.0491
1755570167995,0.04181448,0.15918013,0.02280790,0.03095736,-0.16906958,0.01609974,0.9970,-0.0561,-0.0182,0.0492
1755570168006,0.14007443,0.30956415,0.27254875,0.03711801,-0.16803118,0.02914059,0.9970,-0.0559,-0.0192,0.0493
1755570168017,-0.11216583,0.16803020,-0.01914695,-0.00137515,-0.21434984,0.02587177,0.9970,-0.0559,-0.0204,0.0495
1755570168028,0.29087528,0.21635197,0.16768225,0.00799845,-0.21773922,0.03236231,0.9970,-0.0558,-0.0216,0.0497
1755570168039,0.69855618,0.25784657,-0.04257129,0.06722271,-0.25198844,0.01932676,0.9970,-0.0555,-0.0230,0.0498
1755570168050,-0.29795816,-0.52134758,-0.02263667,0.08501285,-0.28197771,-0.01341606,0.9969,-0.0550,-0.0246,0.0497
1755570168062,-0.07982765,0.11190126,-0.23948295,0.09797497,-0.29153067,-0.03331259,0.9969,-0.0544,-0.0262,0.0495
1755570168073,0.30220467,0.39248594,-0.09883423,0.07382068,-0.29119563,0.00840974,0.9969,-0.0540,-0.0278,0.0495
1755570168084,0.19077709,0.01834936,0.12695015,0.06915008,-0.30969425,0.04990420,0.9969,-0.0536,-0.0295,0.0498
1755570168095,0.00079482,-0.19478292,0.44931563,0.07120020,-0.31713972,0.04057443,0.9968,-0.0532,-0.0313,0.0500
1755570168106,-0.11166325,0.26851531,-0.23818499,0.13334102,-0.36488219,0.00222132,0.9968,-0.0525,-0.0333,0.0501
1755570168117,0.31593736,0.19051531,0.01938329,0.09913917,-0.39752581,0.02959422,0.9968,-0.0519,-0.0355,0.0502
1755570168128,0.24818855,-0.20190696,0.05397432,0.11147065,-0.43910325,0.02880567,0.9967,-0.0513,-0.0380,0.0504
1755570168140,-0.19544093,0.07595105,-0.22446681,0.08038684,-0.51225107,-0.01675755,0.9966,-0.0509,-0.0408,0.0503
1755570168151,-0.22903789,0.60237170,0.00551362,-0.00022428,-0.61125161,-0.05547348,0.9965,-0.0509,-0.0443,0.0500
1755570168162,1.19089039,-0.09017028,0.30791621,-0.02160871,-0.58436059,0.02085562,0.9963,-0.0510,-0.0475,0.0501
1755570168173,-1.46725685,-0.84290772,-0.36978934,0.10211214,-0.72685872,0.03035717,0.9961,-0.0504,-0.0516,0.0503
1755570168184,0.65762778,0.66974447,0.51697906,0.05112488,-0.68733143,0.10490492,0.9959,-0.0501,-0.0554,0.0509
1755570168195,-0.12544345,-0.90376303,0.05701975,0.16999402,-0.74074241,0.15237666,0.9957,-0.0492,-0.0596,0.0517
1755570168206,0.53713428,-0.37893675,0.17322231,0.24327109,-0.73912955,0.16111622,0.9954,-0.0478,-0.0637,0.0526
1755570168218,0.77830594,0.00594213,-0.39705058,0.24840672,-0.78942435,0.25097938,0.9951,-0.0464,-0.0681,0.0540
1755570168229,0.67448761,-0.19815177,0.17207010,0.21175800,-0.89358807,0.32779555,0.9947,-0.0453,-0.0730,0.0558
1755570168240,0.61364229,-0.23321855,-0.02174302,0.26593090,-0.98835634,0.31536654,0.9943,-0.0438,-0.0785,0.0576
1755570168251,0.54058696,-0.31438217,0.04430737,0.15401447,-1.11405873,0.39454747,0.9937,-0.0429,-0.0848,0.0598
1755570168262,1.58772514,-0.98522477,0.29976512,0.18040860,-1.14334842,0.34856077,0.9930,-0.0419,-0.0911,0.0617
1755570168273,-0.13813775,-0.64447139,0.33423687,0.21055394,-1.11592703,0.09403851,0.9925,-0.0408,-0.0973,0.0622
1755570168284,-0.12354279,0.35946200,-0.07602633,0.10320141,-1.12654855,-0.07086335,0.9919,-0.0402,-0.1036,0.0618
1755570168296,1.14812905,1.12059982,0.38300340,-0.00541758,-0.98682775,-0.11075369,0.9913,-0.0402,-0.1091,0.0612
1755570168307,-1.29563254,-0.13056752,-0.31876266,-0.03716227,-0.98412017,-0.05701381,0.9907,-0.0404,-0.1146,0.0609
1755570168318,0.34320172,0.60376092,0.44615519,-0.07296862,-0.90330936,0.01869062,0.9901,-0.0408,-0.1196,0.0610
1755570168329,-0.90280929,0.45912793,0.20012637,-0.11348905,-0.85166666,0.09253061,0.9895,-0.0415,-0.1244,0.0615
1755570168340,-0.16876109,-0.71459105,-0.45194751,0.02550546,-0.78134622,0.08568458,0.9889,-0.0413,-0.1287,0.0620
1755570168351,-0.40124438,0.24049535,0.15373072,-0.06963502,-0.72633594,0.14816283,0.9883,-0.0417,-0.1328,0.0628
1755570168363,-0.40103890,-0.14326212,-0.11403950,-0.05500955,-0.66954002,0.07651960,0.9877,-0.0420,-0.1365,0.0633
1755570168374,-0.61856224,-0.12084614,-0.51994335,-0.08973277,-0.69985275,0.04481761,0.9871,-0.0425,-0.1404,0.0635
1755570168385,0.32402182,-0.10311926,-0.24335105,-0.08465984,-0.64527469,0.00599432,0.9866,-0.0430,-0.1441,0.0635
1755570168396,-0.34139232,0.38932042,0.17499805,-0.10367330,-0.62022323,-0.08595711,0.9861,-0.0436,-0.1474,0.0631
1755570168407,-1.07079892,0.02574770,-0.05421317,-0.07899271,-0.52808310,-0.00320559,0.9856,-0.0440,-0.1504,0.0631
1755570168418,-1.01115022,-0.16915859,-0.28129743,0.01726529,-0.48501499,0.04032147,0.9852,-0.0439,-0.1531,0.0633
1755570168429,-0.98048585,-0.03668113,-0.34313134,0.12217267,-0.35133662,-0.01578721,0.9849,-0.0432,-0.1550,0.0632
1755570168440,-1.06312459,0.49551026,-0.23319350,-0.00906918,-0.22999444,0.03302085,0.9847,-0.0433,-0.1563,0.0634
1755570168451,1.50001602,-0.40278160,0.18624940,0.00835793,-0.08845163,0.00101644,0.9846,-0.0432,-0.1568,0.0634
1755570168463,-3.09263444,0.35345391,-1.15434668,-0.01865453,0.04431410,-0.00344217,0.9847,-0.0433,-0.1565,0.0634
1755570168474,-0.63274706,-0.27395422,-0.96889929,0.06847535,0.16146890,0.09490590,0.9848,-0.0430,-0.1556,0.0639
1755570168485,-1.88651468,-0.44855536,-2.04726585,0.15518389,0.30545875,0.08648488,0.9851,-0.0421,-0.1539,0.0644
1755570168497,0.53724672,0.25834037,0.62356057,0.15950988,0.32200902,0.12011232,0.9854,-0.0412,-0.1521,0.0651
1755570168507,-0.27138585,-0.10238706,0.12204680,0.17340619,0.47574719,0.19810209,0.9857,-0.0402,-0.1495,0.0661
1755570168518,-0.82444572,0.03147066,-0.40270545,0.20041373,0.43301652,0.16632286,0.9861,-0.0391,-0.1472,0.0670
1755570168530,0.26905879,-0.06095240,0.01921485,0.21232972,0.46696061,0.14927905,0.9864,-0.0379,-0.1445,0.0679
1755570168541,0.16349522,-0.13205096,0.33313698,0.13150024,0.47773660,0.09809707,0.9868,-0.0372,-0.1418,0.0685
1755570168552,-0.68025782,-0.61733805,-0.26543932,0.18714113,0.50461163,-0.06097768,0.9873,-0.0362,-0.1391,0.0681
1755570168563,0.38261716,0.22920499,0.21473726,0.12180613,0.48534246,-0.10437905,0.9877,-0.0355,-0.1364,0.0676
1755570168574,-0.27671081,0.05454946,-0.13726202,0.08976166,0.44738000,-0.10813349,0.9881,-0.0350,-0.1338,0.0669
1755570168586,0.53090865,-0.29348818,-0.19192303,0.09839370,0.43421907,-0.02642990,0.9885,-0.0344,-0.1313,0.0668
1755570168597,-1.26958840,0.52518110,-1.13586342,0.05857473,0.37680140,-0.01693846,0.9888,-0.0341,-0.1293,0.0667
1755570168608,0.48242640,0.04364507,0.23549845,0.02862378,0.41082680,0.03451139,0.9891,-0.0340,-0.1270,0.0669
1755570168619,-0.04941980,0.28835982,0.23875585,-0.04443975,0.34334837,0.07336465,0.9893,-0.0342,-0.1251,0.0673
1755570168630,0.13616741,-0.92500099,0.09556501,0.06282625,0.31174305,0.03776181,0.9895,-0.0338,-0.1234,0.0675
1755570168641,0.18484955,-0.50506873,0.03360901,0.09627860,0.28062169,-0.03271917,0.9897,-0.0333,-0.1218,0.0673
1755570168652,0.02884110,0.43633495,0.15892247,-0.02262004,0.26867040,-0.02428062,0.9899,-0.0334,-0.1203,0.0672
1755570168663,-0.17930653,0.25171879,-0.04728964,-0.02028528,0.27276384,-0.06940677,0.9901,-0.0335,-0.1188,0.0668
1755570168674,-0.19335365,-0.42052000,0.25729564,-0.01886076,0.26357301,-0.01798113,0.9903,-0.0336,-0.1173,0.0667
1755570168686,-0.39186388,0.83549303,0.65196461,-0.03486141,0.31274179,-0.02548906,0.9905,-0.0338,-0.1155,0.0666
1755570168697,-0.13316259,-0.96056567,-1.13934218,0.19150676,0.29062361,0.03939413,0.9907,-0.0328,-0.1139,0.0668
1755570168708,-0.31616559,0.61639999,0.18252859,0.13440691,0.41275601,0.05416611,0.9910,-0.0321,-0.1117,0.0671
1755570168719,-0.23492477,0.56092749,0.71629124,0.06832718,0.47749115,0.04735275,0.9913,-0.0317,-0.1090,0.0673
1755570168730,-0.39513686,-0.20545449,-0.29390180,0.06538256,0.48464870,0.08319033,0.9915,-0.0313,-0.1063,0.0678
1755570168741,0.10380879,-0.25561638,-0.07110391,0.11103144,0.54254643,0.09939033,0.9918,-0.0307,-0.1033,0.0683
1755570168753,0.34306151,-0.02035845,0.89913508,0.05058373,0.55964006,0.08595261,0.9921,-0.0304,-0.1001,0.0688
1755570168763,-0.99197222,-0.97251099,-1.03088097,0.09852704,0.53013176,0.03169535,0.9924,-0.0299,-0.0973,0.0690
1755570168775,1.37959225,1.41400397,1.46773302,-0.12994126,0.55973356,0.05273805,0.9927,-0.0306,-0.0941,0.0693
1755570168786,-0.01715390,-1.49269548,-0.57200589,-0.03142805,0.49280876,-0.03438310,0.9929,-0.0308,-0.0913,0.0691
1755570168797,0.28455371,-0.08193973,0.27117512,-0.11701858,0.54073180,-0.09528250,0.9932,-0.0314,-0.0883,0.0686
1755570168808,-0.21992927,0.41345847,0.04143355,-0.21795172,0.53274368,-0.09433091,0.9935,-0.0326,-0.0854,0.0681
1755570168819,0.68712278,-1.00632326,-0.34000372,-0.15414971,0.46798340,0.02017734,0.9937,-0.0335,-0.0828,0.0682
1755570168830,-0.14182367,0.64444844,0.81838891,-0.26701290,0.42806235,-0.00479621,0.9938,-0.0350,-0.0804,0.0681
1755570168842,1.29092425,-1.08513491,-0.14000573,-0.21801053,0.37106731,0.08145245,0.9939,-0.0362,-0.0783,0.0686
1755570168853,0.20662730,-0.58279120,-0.23067605,-0.12261587,0.36012243,0.00348109,0.9940,-0.0369,-0.0764,0.0686
1755570168864,0.10562195,0.16535345,0.47505690,-0.15583901,0.27830462,-0.00752507,0.9941,-0.0377,-0.0748,0.0686
1755570168875,0.01548047,-0.38894679,-0.35605080,-0.12415564,0.24414926,-0.03790502,0.9942,-0.0384,-0.0735,0.0684
1755570168886,0.77706599,0.44805332,0.27070831,-0.17080364,0.28202673,0.00247298,0.9943,-0.0394,-0.0719,0.0684
1755570168897,-0.10056210,-0.12243695,-0.21529275,-0.13371145,0.19469411,0.02517919,0.9943,-0.0401,-0.0708,0.0685
1755570168908,0.46787667,0.24625605,0.25454430,-0.11410248,0.17238275,-0.00238925,0.9944,-0.0408,-0.0698,0.0685
1755570168920,-0.08279534,-0.31480070,0.08302876,-0.21055036,0.09346289,0.04263928,0.9943,-0.0420,-0.0693,0.0688
1755570168931,0.45615800,1.09430403,0.73745543,-0.17719227,0.11329753,-0.06903842,0.9944,-0.0429,-0.0687,0.0684
1755570168942,-0.38029086,-0.90420800,-0.29665141,-0.08339260,0.05834737,-0.09262542,0.9944,-0.0434,-0.0684,0.0679
1755570168953,0.15901672,0.75247369,-0.05652035,-0.04146223,0.11405659,-0.12208425,0.9945,-0.0436,-0.0677,0.0672
1755570168964,0.08577153,0.85772822,0.36091774,-0.08432258,0.12809150,-0.05770347,0.9945,-0.0441,-0.0670,0.0669
1755570168975,0.11167954,0.22148104,0.39703590,-0.07749973,0.13478756,0.00788564,0.9946,-0.0445,-0.0663,0.0669
1755570168987,-0.15102438,0.54839551,-0.10980612,-0.05890619,0.08517251,-0.02546809,0.9946,-0.0449,-0.0658,0.0668
1755570168998,-0.10476759,0.14073342,0.23217781,-0.01982138,0.09010920,-0.07157454,0.9946,-0.0450,-0.0653,0.0664
1755570169009,0.03893398,0.76185763,-0.06536179,-0.06207237,0.04958648,-0.10709402,0.9947,-0.0453,-0.0650,0.0658
1755570169020,0.05877963,-0.51792112,0.00447371,-0.08849355,0.01177578,-0.08060573,0.9947,-0.0458,-0.0649,0.0653
1755570169031,0.25167456,0.59364323,0.36328258,-0.06367282,0.05807780,-0.03896973,0.9947,-0.0462,-0.0646,0.0651
1755570169042,0.19766846,-0.08647995,-0.01900658,-0.09206354,-0.01484212,-0.06622286,0.9947,-0.0467,-0.0647,0.0647
1755570169053,0.12860935,0.05446368,0.07113111,-0.09395202,0.00727805,-0.08393564,0.9947,-0.0472,-0.0647,0.0643
1755570169064,0.04875873,-0.27010014,-0.02575107,-0.00962022,0.01971071,-0.16238280,0.9948,-0.0473,-0.0645,0.0634
1755570169075,-0.08310291,-0.13440633,0.10318773,-0.04773569,0.04256534,-0.09116227,0.9948,-0.0475,-0.0643,0.0629
1755570169087,-0.05890998,0.08601174,0.02870984,-0.01079488,0.06619793,-0.13509142,0.9949,-0.0476,-0.0639,0.0621
1755570169098,-0.11430862,-0.25269715,0.05947547,-0.00466811,0.11046614,-0.04805753,0.9949,-0.0476,-0.0633,0.0618
1755570169109,-0.27222129,0.12333191,-0.01243966,-0.06473437,0.08578742,-0.06979150,0.9950,-0.0480,-0.0628,0.0614
1755570169120,-0.03241393,0.16833240,-0.03708852,-0.03417429,0.16564314,-0.06997035,0.9950,-0.0482,-0.0619,0.0610
1755570169132,-0.66826247,0.70420127,-0.13693671,-0.02977633,0.15595714,-0.09039204,0.9951,-0.0483,-0.0610,0.0605
1755570169143,0.28413887,-0.23410506,-0.15749262,0.04812800,0.21038353,-0.03156213,0.9952,-0.0481,-0.0599,0.0604
1755570169154,-0.23965573,0.39065008,-0.00746440,0.03954208,0.20326263,0.02326163,0.9953,-0.0478,-0.0587,0.0605
1755570169165,0.17457743,-0.06698168,-0.18686238,0.05341323,0.21962714,0.05412943,0.9954,-0.0475,-0.0575,0.0608
1755570169176,-0.03162906,0.14688956,-0.02001022,0.04393636,0.26310486,0.03394359,0.9954,-0.0473,-0.0561,0.0610
1755570169188,0.22754367,0.00426882,0.14478322,0.00103804,0.22333055,0.03526838,0.9955,-0.0473,-0.0547,0.0612
1755570169198,-0.07265599,-0.09703642,-0.02442455,0.00386673,0.22727285,0.00549571,0.9956,-0.0473,-0.0535,0.0612
1755570169209,0.33949226,-0.04364150,0.07805584,0.00483832,0.19729632,0.02010076,0.9956,-0.0472,-0.0525,0.0613
1755570169220,0.25556977,-0.19587365,0.08162752,0.03343410,0.17159060,0.03173995,0.9957,-0.0471,-0.0515,0.0615
1755570169232,0.06243063,-0.31885898,-0.21722299,0.06783043,0.09887016,0.07213977,0.9957,-0.0467,-0.0509,0.0619
1755570169243,-0.12491495,0.24118476,0.07985572,0.06653202,0.08978251,0.08355231,0.9957,-0.0463,-0.0505,0.0624
1755570169254,0.71749684,-0.35690859,-0.07334098,0.04663104,0.06994875,0.05325279,0.9957,-0.0460,-0.0501,0.0627
1755570169265,0.32077439,-0.03012273,0.07463114,0.02170640,0.04726591,0.02480980,0.9957,-0.0459,-0.0498,0.0628
1755570169276,0.27656306,-0.15084316,0.11542180,0.03536012,-0.01433195,-0.01740614,0.9957,-0.0457,-0.0499,0.0627
1755570169287,0.35732376,-0.17438540,0.11023818,0.05715481,-0.01145239,-0.03005805,0.9958,-0.0454,-0.0499,0.0625
1755570169299,0.17361968,-0.09210102,0.01682810,0.02348632,-0.04603496,-0.03671420,0.9958,-0.0453,-0.0502,0.0623
1755570169310,0.16054570,-0.01325752,-0.01667785,0.02747927,-0.01717973,-0.02632947,0.9958,-0.0451,-0.0503,0.0622
1755570169321,-0.12924477,-0.11902873,0.04181448,0.03187566,-0.00203700,0.00159233,0.9958,-0.0449,-0.0503,0.0622
1755570169332,-0.16703703,-0.03463021,0.03655879,-0.00500617,-0.00613788,0.02480868,0.9958,-0.0450,-0.0503,0.0623
1755570169344,-0.05156620,-0.04533157,0.01757311,0.03042506,0.02049378,0.01089322,0.9958,-0.0448,-0.0502,0.0624
1755570169355,0.02826868,0.07357219,-0.08399837,0.03352737,0.02051232,0.03385551,0.9958,-0.0446,-0.0501,0.0626
1755570169365,0.08149658,0.26814701,0.07294169,0.03548532,0.03562314,0.02207230,0.9958,-0.0444,-0.0499,0.0627
1755570169376,-0.16639764,0.10258978,0.09999327,0.02565971,0.01069081,0.00052573,0.9958,-0.0443,-0.0499,0.0627
1755570169388,0.00044925,0.16110671,0.00552919,0.01710519,0.03370869,-0.00652874,0.9958,-0.0442,-0.0497,0.0627
1755570169399,0.12924477,0.00570197,-0.00380132,-0.03565697,0.04326665,0.01135408,0.9958,-0.0444,-0.0494,0.0627
1755570169410,0.15965530,0.02637163,0.01900658,-0.05616598,0.01676391,-0.02911328,0.9958,-0.0447,-0.0493,0.0626
1755570169421,0.11624783,-0.09550685,0.03427585,-0.03060061,0.02268161,-0.02461156,0.9958,-0.0449,-0.0492,0.0624
1755570169432,0.09368732,0.02199634,-0.00417136,-0.02385907,-0.00227766,0.02900593,0.9958,-0.0450,-0.0492,0.0626
1755570169443,-0.17820403,-0.07143122,0.15523424,-0.02033839,-0.04837858,0.03844686,0.9958,-0.0451,-0.0495,0.0628
1755570169455,0.09930504,-0.15000815,0.10741335,0.06993482,-0.00210161,0.05295168,0.9958,-0.0447,-0.0495,0.0631
1755570169466,-0.00380132,-0.05868283,0.06082107,0.04584445,-0.01899430,0.06853285,0.9958,-0.0445,-0.0496,0.0635
1755570169477,-0.11733021,0.07303767,0.04505922,0.03103120,0.00195520,0.04080291,0.9958,-0.0443,-0.0496,0.0637
1755570169488,-0.10419375,0.00435353,-0.09787534,0.01857404,-0.03337919,0.04849605,0.9957,-0.0442,-0.0498,0.0640
1755570169499,0.16345662,0.15585398,-0.41054220,-0.00449287,-0.01212306,0.03441091,0.9957,-0.0442,-0.0498,0.0642
1755570169510,0.07952746,-0.21438118,-0.32294747,0.01515568,-0.00784512,-0.00103923,0.9957,-0.0441,-0.0499,0.0642
1755570169521,0.03639030,0.03514992,0.32236478,-0.07405030,-0.00793245,0.01014313,0.9957,-0.0445,-0.0499,0.0642
1755570169533,-0.19401565,-0.11250319,0.35238537,-0.01105286,-0.07986000,-0.03957470,0.9957,-0.0446,-0.0504,0.0640
1755570169544,0.28797505,-0.15240314,0.18183493,0.03979391,0.00587417,-0.01033244,0.9957,-0.0444,-0.0503,0.0640
1755570169555,-0.12941755,-0.01478626,-0.02128737,0.00875589,-0.03426264,-0.03938619,0.9957,-0.0443,-0.0505,0.0637
1755570169566,-0.18689514,0.18640784,-0.02384920,0.00140807,-0.00897173,-0.04193936,0.9957,-0.0443,-0.0506,0.0635
1755570169577,-0.05073133,0.12804511,-0.08241640,0.02838756,0.00231876,-0.02373410,0.9957,-0.0442,-0.0506,0.0634
1755570169588,-0.22180388,0.10914885,-0.15484020,0.02832609,-0.00083256,-0.02918181,0.9957,-0.0440,-0.0506,0.0632
1755570169599,-0.07085517,-0.00889542,-0.21342167,0.05821677,0.06000964,-0.01052062,0.9958,-0.0437,-0.0502,0.0631
1755570169611,-0.12631681,0.22985085,-0.17621019,0.02922362,0.06663769,0.03647978,0.9958,-0.0435,-0.0499,0.0633
1755570169622,-0.17381629,-0.02375334,0.00108635,0.08630854,0.08170564,0.03545315,0.9958,-0.0430,-0.0494,0.0635
1755570169633,-0.32106562,-0.08263171,0.07925178,0.09275205,0.13712256,0.08357717,0.9959,-0.0425,-0.0487,0.0640
1755570169644,-0.37153127,0.16254493,0.03483106,0.03202358,0.16280681,0.07834360,0.9959,-0.0423,-0.0478,0.0644
1755570169655,0.00320201,-0.00871135,-0.13876518,0.06755695,0.17324744,0.09809601,0.9959,-0.0420,-0.0468,0.0650
1755570169666,-0.07482803,-0.02579934,-0.15798372,0.06940826,0.17654759,0.05808542,0.9959,-0.0416,-0.0458,0.0653
1755570169677,0.19390139,-0.02479845,0.04633497,0.00768117,0.15255642,0.07573849,0.9960,-0.0415,-0.0449,0.0657
1755570169689,0.13874806,-0.24518492,0.07222502,0.00242033,0.07561831,0.05182375,0.9960,-0.0415,-0.0445,0.0660
1755570169700,0.45927947,-0.29790887,-0.07023074,-0.00771905,0.09424551,-0.01187582,0.9960,-0.0416,-0.0440,0.0660
1755570169711,0.27307276,-0.49855995,-0.12489053,-0.03204305,0.04629447,-0.08010802,0.9960,-0.0417,-0.0437,0.0655
1755570169722,0.26039019,-0.47540216,-0.02280790,-0.00413159,0.07189226,-0.09860765,0.9961,-0.0418,-0.0433,0.0650
1755570169733,0.08353579,0.06401027,-0.00162407,-0.05631485,0.03469503,-0.08648167,0.9961,-0.0421,-0.0432,0.0645
1755570169744,0.03505088,0.03468273,-0.08201940,-0.04325362,0.02959975,-0.05325517,0.9961,-0.0423,-0.0430,0.0642
1755570169755,0.00139946,-0.06643989,-0.16879931,-0.04263927,0.02120550,-0.04400437,0.9961,-0.0426,-0.0429,0.0639
1755570169767,-0.01135440,0.04321737,0.06247399,-0.05992856,0.03734662,-0.03191142,0.9961,-0.0429,-0.0427,0.0638
1755570169778,-0.01832128,-0.03448203,0.01009399,-0.01097738,0.00278587,-0.02189628,0.9961,-0.0430,-0.0426,0.0636
1755570169789,0.08555691,0.14036419,0.09299519,-0.01415277,0.01876965,-0.03103799,0.9961,-0.0430,-0.0425,0.0635
1755570169800,-0.03331904,0.26113161,0.04040665,-0.01268475,-0.01107417,-0.04306163,0.9962,-0.0431,-0.0426,0.0632
1755570169812,-0.02419305,0.33648371,-0.04000712,-0.01930803,0.02244412,-0.05061754,0.9962,-0.0432,-0.0425,0.0629
1755570169822,-0.05023089,0.03042024,-0.00512187,-0.03177020,0.03700568,-0.04892389,0.9962,-0.0434,-0.0423,0.0627
1755570169834,-0.16651118,-0.11683633,-0.05938143,-0.00937255,0.03144772,-0.03084335,0.9962,-0.0434,-0.0421,0.0625
1755570169844,-0.04537638,-0.19065287,-0.04055219,-0.02357161,0.05577566,0.04518025,0.9962,-0.0436,-0.0418,0.0627
1755570169855,-0.09375907,0.22376170,0.01679485,-0.05081428,0.01228072,0.03648097,0.9962,-0.0439,-0.0417,0.0629
1755570169867,0.14304004,0.00673618,0.00759815,-0.01903886,0.00462958,0.01451972,0.9962,-0.0440,-0.0417,0.0630
1755570169878,0.11564447,-0.20641129,0.08868149,0.00028657,0.02304947,-0.05992024,0.9962,-0.0440,-0.0416,0.0627
1755570169889,-0.09994594,0.05625321,0.19644917,-0.02231008,0.01641702,-0.03867986,0.9962,-0.0441,-0.0415,0.0625
1755570169901,-0.03727278,0.14171070,-0.15098686,0.00548436,0.02790362,-0.01540588,0.9962,-0.0441,-0.0413,0.0624
1755570169912,0.05277135,0.14496951,-0.30836308,0.01553816,0.04065942,-0.01494252,0.9962,-0.0440,-0.0411,0.0623
1755570169923,-0.11997364,0.11828046,0.05418164,-0.03218896,0.05849869,-0.00399814,0.9962,-0.0441,-0.0408,0.0623
1755570169933,0.05792065,-0.02421884,0.07913679,0.00342292,0.06416858,0.03858420,0.9962,-0.0441,-0.0404,0.0625
1755570169945,0.07031411,0.12919534,0.26583013,-0.02841453,0.02635360,0.03689091,0.9962,-0.0443,-0.0403,0.0627
1755570169956,0.06870181,-0.01339796,0.13629464,-0.03071119,-0.01162565,0.00142043,0.9962,-0.0445,-0.0403,0.0627
1755570169967,0.13038516,-0.09484285,0.00354790,0.00652349,-0.00403906,-0.04532515,0.9962,-0.0444,-0.0404,0.0625
1755570169978,0.00380132,-0.12686894,-0.01520527,-0.00289186,-0.00132523,-0.01969866,0.9962,-0.0444,-0.0404,0.0624
1755570169990,0.02069254,0.12913855,-0.02455262,0.01317139,-0.01414590,-0.04236865,0.9963,-0.0444,-0.0404,0.0621
1755570170000,-0.01748019,0.20978877,-0.27644082,0.03209128,-0.01476810,-0.00771297,0.9963,-0.0442,-0.0405,0.0621
1755570170012,-0.04056402,0.17642290,0.01182268,0.02122070,0.00818161,-0.00840071,0.9963,-0.0441,-0.0405,0.0620
1755570170023,-0.16158793,0.10684222,0.11016381,-0.00884229,-0.01431575,-0.01368209,0.9963,-0.0441,-0.0406,0.0619
1755570170034,-0.10397305,-0.14633309,0.31438296,-0.00915285,-0.01257015,-0.00519286,0.9963,-0.0442,-0.0406,0.0619
1755570170045,-0.01076376,-0.15849772,0.19471528,0.00998687,-0.01207690,0.01966051,0.9963,-0.0441,-0.0407,0.0620
1755570170056,0.00686634,-0.11399883,-0.10934778,0.06290119,-0.03964211,0.04561040,0.9963,-0.0438,-0.0409,0.0623
1755570170067,0.02470856,0.00784022,-0.26609216,0.02766362,-0.02839202,0.03113741,0.9962,-0.0436,-0.0411,0.0625
1755570170078,0.05715334,-0.07066852,-0.25200684,0.00614280,0.00532660,-0.00840002,0.9963,-0.0436,-0.0410,0.0624
1755570170090,-0.12846663,0.07467999,-0.01853242,-0.02402192,-0.00002699,-0.01132233,0.9963,-0.0437,-0.0410,0.0623
1755570170101,-0.04411607,0.04997218,-0.07380403,-0.02659658,0.00942072,-0.00978996,0.9963,-0.0438,-0.0410,0.0623
1755570170112,-0.15172091,0.05555922,0.10734329,-0.03500469,0.01545339,0.00540780,0.9962,-0.0440,-0.0409,0.0623
1755570170123,-0.17906133,-0.05034986,0.01500523,-0.01525147,0.02251771,0.04274618,0.9962,-0.0441,-0.0408,0.0626
1755570170134,0.00561681,-0.13980799,-0.12877559,0.02331262,0.03244996,0.06660903,0.9962,-0.0440,-0.0406,0.0629
1755570170145,-0.03321871,0.03687448,-0.07246474,-0.02438182,0.03698168,0.03742159,0.9962,-0.0441,-0.0404,0.0631
1755570170156,0.00190066,-0.01045362,-0.08743028,-0.07088712,0.02708803,0.02431573,0.9962,-0.0445,-0.0402,0.0633
1755570170168,-0.00570197,-0.10358588,0.03801317,-0.01841235,0.03997228,-0.00920665,0.9962,-0.0446,-0.0400,0.0632
1755570170179,0.01892993,-0.13256228,0.01794473,-0.00260081,-0.00217817,0.00186383,0.9962,-0.0446,-0.0400,0.0632
1755570170190,0.24054206,0.04411182,0.18128496,-0.02255800,0.01518610,0.01885442,0.9962,-0.0448,-0.0399,0.0633
1755570170201,-0.26885328,-0.18157015,0.01739840,-0.02042308,-0.03217019,-0.00261139,0.9962,-0.0449,-0.0401,0.0633
1755570170212,0.14772053,-0.17507674,-0.05811562,-0.03289459,0.03254283,-0.00520837,0.9962,-0.0451,-0.0399,0.0633
1755570170223,-0.06118800,-0.16485839,-0.18008062,-0.02149383,0.00036884,-0.02259616,0.9962,-0.0452,-0.0399,0.0632
1755570170235,0.14182367,0.06046685,-0.17665755,-0.02338067,0.00875400,-0.02349127,0.9962,-0.0453,-0.0399,0.0630
1755570170246,0.07809344,0.05261373,-0.02971697,-0.00618478,-0.00505845,-0.01933106,0.9962,-0.0454,-0.0399,0.0629
1755570170257,-0.14319434,-0.02225317,0.14706446,-0.01664550,0.00639557,-0.02572152,0.9962,-0.0455,-0.0399,0.0628
1755570170268,-0.20185591,0.08021880,0.19721323,-0.06063480,0.02196440,-0.02627934,0.9962,-0.0458,-0.0398,0.0626
1755570170279,-0.05262541,-0.01549947,0.00073236,-0.04164323,0.03681408,0.00653741,0.9962,-0.0460,-0.0396,0.0627
1755570170290,-0.04696354,0.04769788,-0.17534437,-0.03760109,0.02721035,0.01644753,0.9962,-0.0462,-0.0394,0.0628
1755570170301,-0.06462238,0.11427708,0.00380132,-0.08455985,0.04929057,0.03268200,0.9962,-0.0467,-0.0391,0.0630
1755570170313,-0.10385391,-0.20434090,0.05673868,-0.06131791,0.04295268,-0.00534656,0.9961,-0.0470,-0.0389,0.0629
1755570170324,0.02709082,-0.10884705,0.11610352,-0.08027130,0.02601689,-0.01870340,0.9961,-0.0475,-0.0387,0.0628
1755570170335,0.22059669,-0.10449317,-0.08514258,-0.05553991,0.01830063,-0.03908329,0.9961,-0.0478,-0.0386,0.0626
1755570170346,0.24328426,0.10366935,-0.14393634,-0.06659519,0.00932895,-0.00844271,0.9961,-0.0482,-0.0386,0.0626
1755570170357,-0.11776214,0.06810068,0.03299966,-0.10585828,-0.02095261,-0.04953140,0.9961,-0.0488,-0.0387,0.0623
1755570170368,-0.02902588,-0.05877741,0.06192188,-0.09072958,0.03440400,-0.04421781,0.9961,-0.0493,-0.0385,0.0620
1755570170379,-0.11681343,-0.06245846,0.00476021,-0.06048355,0.03002574,-0.03678840,0.9961,-0.0496,-0.0383,0.0618
1755570170390,-0.03306877,0.15662961,0.00680726,-0.05009047,0.03729874,-0.00070175,0.9961,-0.0499,-0.0381,0.0618
1755570170402,-0.15729232,0.28405852,0.03506800,-0.04383564,0.02370910,0.02032897,0.9961,-0.0501,-0.0380,0.0619
1755570170413,0.00196961,0.14731930,0.03427818,-0.03732797,0.03568718,0.02488429,0.9961,-0.0503,-0.0378,0.0621
1755570170424,0.01548047,-0.08175623,0.01935059,-0.02282793,0.02176890,0.01495052,0.9961,-0.0505,-0.0377,0.0622
1755570170435,0.02261955,-0.21109079,0.04188298,-0.03603884,0.02698275,-0.01206161,0.9961,-0.0507,-0.0375,0.0621
1755570170446,0.06082107,-0.00855296,-0.01140395,-0.02763416,0.02757162,-0.02164719,0.9961,-0.0508,-0.0374,0.0620
1755570170457,0.13640436,0.21460794,-0.00366279,-0.00778750,0.02747186,-0.01438235,0.9961,-0.0509,-0.0372,0.0619
1755570170469,0.00546225,0.13346560,0.01123272,0.01608889,0.01290037,-0.00123104,0.9961,-0.0508,-0.0372,0.0619
1755570170480,-0.10419945,0.31910327,0.14347078,-0.00881095,0.00522446,-0.01034500,0.9961,-0.0508,-0.0371,0.0618
1755570170491,0.10335979,-0.01206527,-0.08156393,0.03944188,0.01048556,0.00375584,0.9961,-0.0506,-0.0371,0.0619
1755570170502,-0.08966894,0.03572076,0.04193188,0.04610338,-0.00759309,0.04895603,0.9961,-0.0503,-0.0371,0.0621
1755570170513,-0.12419015,-0.08303974,0.11822372,0.02348050,-0.00454200,0.01269687,0.9961,-0.0502,-0.0371,0.0622
1755570170524,0.05641186,-0.04038867,-0.05181426,0.02313346,-0.00493629,0.01791854,0.9961,-0.0501,-0.0372,0.0623
1755570170535,0.23889223,0.18666582,0.06671104,0.00283266,-0.01620295,0.00543026,0.9961,-0.0501,-0.0373,0.0623
1755570170547,0.03630781,0.05609761,0.13484304,0.01092704,-0.01866524,-0.00040230,0.9961,-0.0500,-0.0374,0.0623
1755570170558,-0.04450635,-0.00290259,0.11610352,0.00672758,-0.03348070,-0.01367203,0.9961,-0.0500,-0.0375,0.0622
1755570170569,0.05017752,-0.01693863,-0.12693127,0.05058151,-0.00450129,0.00946937,0.9961,-0.0497,-0.0376,0.0623
1755570170580,-0.02931015,0.09454525,-0.19466743,0.05678541,0.01181881,0.02033975,0.9961,-0.0494,-0.0375,0.0624
1755570170591,-0.08018830,0.10986308,-0.16994713,0.01534043,0.00603118,0.04631913,0.9961,-0.0493,-0.0375,0.0627
1755570170602,-0.11231288,-0.11920929,0.04334883,0.01295278,0.00826307,0.01781552,0.9961,-0.0492,-0.0374,0.0628
1755570170613,0.04017216,-0.07977166,0.13925846,-0.00711716,0.00806657,0.00822693,0.9961,-0.0492,-0.0374,0.0628
1755570170624,0.14878424,-0.05359590,0.22317637,-0.01096231,-0.01262922,0.01260694,0.9961,-0.0493,-0.0375,0.0629
1755570170635,-0.00069109,-0.01153692,0.13925512,-0.02049964,-0.02833085,0.00078642,0.9961,-0.0494,-0.0376,0.0629
1755570170646,0.14133364,-0.19431235,-0.01636963,0.03925350,-0.01080316,0.00282160,0.9961,-0.0492,-0.0377,0.0629
1755570170658,-0.05844900,0.04817958,-0.11303030,0.02123941,-0.01073889,0.01161022,0.9961,-0.0491,-0.0377,0.0630
1755570170669,-0.00378387,-0.13467825,-0.16551372,0.02368857,0.01632015,0.00826586,0.9961,-0.0489,-0.0376,0.0630
1755570170680,0.02277334,-0.01707137,-0.21757354,0.01587980,0.05226108,0.01002539,0.9961,-0.0489,-0.0373,0.0631
1755570170691,0.04561580,0.18103770,-0.06082107,-0.02204176,0.02063227,0.01061795,0.9961,-0.0490,-0.0372,0.0631
1755570170702,-0.08643838,0.06375759,0.06565378,-0.03485484,0.00197642,0.00340521,0.9961,-0.0492,-0.0372,0.0631
1755570170713,-0.04547882,-0.03800460,0.21622985,-0.00189217,0.00627426,0.00331317,0.9961,-0.0492,-0.0372,0.0632
1755570170725,-0.08743028,-0.11356433,0.13684740,0.01124762,-0.00055354,-0.01841346,0.9961,-0.0491,-0.0372,0.0631
1755570170736,0.12056107,0.07674149,0.15459737,0.02521711,0.00272830,-0.01120482,0.9961,-0.0490,-0.0372,0.0630
1755570170747,0.01161035,0.00894965,-0.18576563,0.02988153,0.00074640,-0.00489456,0.9961,-0.0488,-0.0372,0.0630
1755570170758,0.03436596,0.04598180,-0.17818244,0.01728630,0.00833372,-0.00598525,0.9961,-0.0487,-0.0371,0.0629
1755570170769,0.16345662,0.00879054,-0.10643687,0.00126699,0.01754059,0.00180180,0.9961,-0.0487,-0.0370,0.0629
1755570170780,0.00164134,0.07414125,0.03562581,0.00222613,-0.00502637,-0.00878053,0.9961,-0.0487,-0.0371,0.0629
1755570170791,0.07933741,-0.01475482,0.09288282,0.01881136,-0.02874908,-0.00088058,0.9961,-0.0486,-0.0372,0.0629
1755570170803,-0.00580518,-0.02975153,0.15093458,0.00443370,-0.03107527,0.00673021,0.9961,-0.0486,-0.0374,0.0629
1755570170814,-0.16003201,-0.19710340,0.14499797,0.00942762,-0.01817360,-0.00526812,0.9961,-0.0485,-0.0375,0.0629
1755570170825,-0.02429190,-0.07468981,-0.02246050,0.01503952,0.00294219,-0.00363861,0.9961,-0.0484,-0.0375,0.0629
1755570170836,-0.08153297,0.14053587,-0.01601390,-0.00024337,0.01514902,-0.00133969,0.9961,-0.0484,-0.0374,0.0629
1755570170847,-0.01607708,0.02519237,-0.06179737,0.01173786,0.02099695,0.00645380,0.9961,-0.0484,-0.0373,0.0629
1755570170858,-0.08124450,-0.01006917,-0.04533934,0.00387430,0.01981855,0.01721616,0.9961,-0.0484,-0.0372,0.0630
1755570170870,0.14254937,0.02114482,0.03801317,-0.00879300,0.03923797,0.04366038,0.9961,-0.0484,-0.0369,0.0633
1755570170881,0.00805123,-0.16904984,-0.02342803,0.01656569,0.00146101,0.02159789,0.9961,-0.0483,-0.0369,0.0634
1755570170892,0.05805176,-0.12964893,-0.03096094,0.01753460,0.01715128,0.00587022,0.9961,-0.0482,-0.0368,0.0634
1755570170903,-0.04837647,-0.09965552,0.03096094,-0.01238486,0.01055640,0.00995124,0.9961,-0.0483,-0.0368,0.0635
1755570170914,-0.04227681,-0.07371472,0.09164255,-0.02924618,0.00960011,-0.00030781,0.9961,-0.0484,-0.0367,0.0635
1755570170925,0.01750191,-0.09203623,0.10103771,-0.03009164,0.00062876,-0.01461204,0.9961,-0.0486,-0.0367,0.0634
1755570170936,0.18792545,0.03063099,0.01770523,-0.01801062,0.00084604,-0.02334404,0.9961,-0.0487,-0.0367,0.0632
1755570170947,-0.07351495,-0.04977377,-0.12622802,-0.03051668,-0.01043312,-0.02319813,0.9961,-0.0489,-0.0368,0.0631
1755570170959,0.06905725,0.02984761,-0.12578591,-0.02618791,0.02223483,-0.01518882,0.9961,-0.0490,-0.0366,0.0630
1755570170970,-0.03678339,0.07582795,-0.08980746,-0.03254324,0.01079254,0.00125779,0.9961,-0.0492,-0.0366,0.0630
1755570170981,-0.08127246,0.11416846,-0.03096094,-0.01430049,0.01363434,0.00536097,0.9961,-0.0493,-0.0365,0.0631
1755570170992,0.08849191,0.09727389,0.00565061,0.00207690,0.01309709,0.00312918,0.9961,-0.0493,-0.0364,0.0631
1755570171003,0.00570197,0.05036745,0.17486057,0.00403441,0.00989847,0.00052979,0.9961,-0.0493,-0.0364,0.0631
1755570171014,-0.06021142,-0.09551545,0.16230305,0.00009932,0.02922287,-0.01588870,0.9961,-0.0493,-0.0362,0.0630
1755570171026,-0.12849135,0.06258902,0.05962245,-0.02135560,0.04691661,-0.03094521,0.9962,-0.0494,-0.0360,0.0628
1755570171037,0.05123044,0.00365052,-0.14616157,-0.01964402,0.06177291,0.02929425,0.9962,-0.0495,-0.0356,0.0630
1755570171048,-0.01610376,0.05105859,-0.09213009,-0.00960967,0.02675793,0.00801656,0.9962,-0.0495,-0.0355,0.0630
1755570171059,0.11254439,0.08319888,-0.07391233,-0.01710240,0.01706497,-0.01854687,0.9962,-0.0496,-0.0354,0.0629
1755570171070,0.17996046,0.02854212,-0.00387012,-0.00464356,0.01995411,-0.02818731,0.9962,-0.0497,-0.0353,0.0628
1755570171081,0.00470884,-0.09149915,0.09989586,0.00430712,0.03050996,-0.05352546,0.9962,-0.0496,-0.0351,0.0625
1755570171092,-0.33451586,-0.13209575,0.11784082,0.00620661,0.07732640,-0.08717714,0.9962,-0.0496,-0.0347,0.0620
1755570171103,-0.24193417,0.05242152,-0.04554299,-0.00531226,0.09006241,-0.02693813,0.9963,-0.0496,-0.0342,0.0618
1755570171115,-0.18770069,0.28203480,-0.05805176,0.01652207,0.09169443,0.01717338,0.9963,-0.0495,-0.0337,0.0619
1755570171126,-0.05325409,0.31678642,-0.09855558,0.01577386,0.05315671,0.06565346,0.9963,-0.0494,-0.0334,0.0623
1755570171137,0.09606964,0.12978041,0.04741279,0.01441987,0.02640144,0.05835443,0.9963,-0.0494,-0.0332,0.0626
1755570171148,0.15090712,-0.16448576,0.04154447,0.03368570,0.01826635,0.01507147,0.9963,-0.0492,-0.0331,0.0627
1755570171159,0.06336267,-0.13644374,0.02766789,0.04083058,0.00922507,-0.02124854,0.9963,-0.0490,-0.0331,0.0626
1755570171170,0.17810317,0.06613229,0.08738534,0.00709189,0.00147450,-0.02603534,0.9963,-0.0489,-0.0331,0.0624
1755570171181,-0.09597057,-0.02501801,0.02098256,0.01219398,0.00213286,-0.00059919,0.9963,-0.0488,-0.0330,0.0624
1755570171193,-0.10983713,-0.06875937,0.03466522,0.03221950,0.01932921,0.00432681,0.9963,-0.0487,-0.0329,0.0625
1755570171205,0.08260508,-0.08640280,0.11920929,0.00375917,0.04003564,0.02029545,0.9963,-0.0486,-0.0327,0.0626
1755570171215,-0.20112008,-0.13557273,0.12114563,-0.00168521,0.04116947,0.02875529,0.9963,-0.0487,-0.0325,0.0627
1755570171227,0.11458332,-0.02601188,-0.14376206,-0.02327081,0.03613171,0.01170339,0.9963,-0.0488,-0.0323,0.0628
1755570171237,-0.05880491,-0.31946527,-0.41481934,-0.01462642,0.05670044,-0.00206583,0.9963,-0.0489,-0.0320,0.0628
1755570171248,-0.02986510,-0.01327606,0.01715408,-0.06954349,0.02102975,-0.02172754,0.9963,-0.0492,-0.0319,0.0627
1755570171259,0.08730633,-0.08366050,-0.09189770,-0.01168344,0.03845254,-0.03029265,0.9963,-0.0493,-0.0316,0.0625
1755570171271,0.13351905,0.11126587,-0.00774023,-0.02236182,0.02202730,0.00522799,0.9963,-0.0494,-0.0315,0.0625
1755570171282,-0.06444807,-0.03939841,0.04677756,-0.01330369,-0.01732563,0.01418407,0.9963,-0.0495,-0.0316,0.0626
1755570171293,0.03688255,-0.14769308,-0.06704201,-0.00319935,0.02068806,-0.02123495,0.9963,-0.0495,-0.0315,0.0625
1755570171304,-0.07522283,-0.07508645,-0.19229457,-0.03380384,0.02359574,-0.02193469,0.9963,-0.0497,-0.0314,0.0624
1755570171315,-0.00674921,0.03012948,-0.08284056,-0.05225127,-0.00045339,-0.00100399,0.9963,-0.0500,-0.0314,0.0624
1755570171326,0.03301763,0.01345178,-0.04618768,-0.05422653,-0.00157011,-0.02052668,0.9963,-0.0503,-0.0314,0.0623
1755570171337,0.11023818,0.09075643,0.23568163,-0.05413402,-0.01547074,-0.02370520,0.9963,-0.0506,-0.0315,0.0621
1755570171348,0.00760263,0.08196589,0.06842370,-0.02693291,-0.03826388,-0.01797619,0.9963,-0.0508,-0.0317,0.0620
1755570171359,0.08589974,-0.08071336,-0.11996409,-0.02030395,-0.03368813,0.00922095,0.9963,-0.0509,-0.0319,0.0621
1755570171370,0.02842346,0.11883040,-0.04622234,0.00018161,-0.02604818,-0.00980517,0.9963,-0.0509,-0.0320,0.0620
1755570171381,0.01690764,0.24548310,-0.07060552,-0.01767358,-0.03957436,0.01436461,0.9962,-0.0510,-0.0322,0.0621
1755570171392,-0.00602458,0.12861409,0.01828891,0.01197014,-0.02443864,0.00384673,0.9962,-0.0509,-0.0324,0.0621
1755570171404,-0.18156472,0.10406864,0.19131548,0.01488913,-0.01977999,-0.00709184,0.9962,-0.0508,-0.0325,0.0621
1755570171415,-0.11389720,0.07211933,0.29501242,-0.01482087,-0.00746872,0.03349667,0.9962,-0.0509,-0.0325,0.0623
1755570171427,-0.10762742,-0.10380935,0.10163767,0.02219420,-0.00520011,0.03201460,0.9962,-0.0508,-0.0326,0.0625
1755570171437,-0.11619324,-0.11839747,-0.09109609,0.01834684,0.01555915,0.03921238,0.9962,-0.0507,-0.0325,0.0627
1755570171449,0.00384368,-0.06193891,-0.27531619,-0.01339731,-0.00396534,0.04418712,0.9962,-0.0508,-0.0325,0.0629
1755570171460,0.14901361,-0.07699143,-0.12663205,0.00053561,0.01312893,0.01932664,0.9962,-0.0508,-0.0324,0.0630
1755570171471,-0.03398078,-0.00633899,-0.09955713,-0.00015210,0.00588978,-0.00622551,0.9962,-0.0508,-0.0324,0.0630
1755570171482,0.00788161,0.11058878,0.16157292,-0.01571425,-0.00113225,0.01951057,0.9962,-0.0508,-0.0324,0.0631
1755570171493,0.03324783,-0.04502969,0.10322658,-0.00191625,-0.01344589,0.01557630,0.9962,-0.0509,-0.0325,0.0632
1755570171504,0.04117861,-0.22078621,-0.06025399,0.01688000,-0.01787118,0.00686177,0.9962,-0.0508,-0.0326,0.0632
1755570171515,-0.02856210,-0.09671097,-0.08167576,0.00527734,-0.02725539,-0.00549484,0.9962,-0.0507,-0.0327,0.0632
1755570171526,0.01516206,-0.16254365,-0.11905883,-0.04025920,-0.02627107,-0.01533969,0.9962,-0.0509,-0.0329,0.0631
1755570171537,0.15991769,0.12426504,0.20263163,-0.01889538,-0.01376113,-0.01744393,0.9962,-0.0511,-0.0329,0.0630
1755570171549,-0.00183455,-0.01009004,0.01467643,0.00438514,-0.00647824,-0.01961041,0.9962,-0.0510,-0.0330,0.0629
1755570171560,-0.12699232,0.09967627,-0.06481138,-0.00738676,-0.00476296,-0.00930109,0.9962,-0.0511,-0.0330,0.0629
1755570171571,-0.11109081,0.06306589,-0.12441319,-0.00357619,0.01096305,-0.00241090,0.9962,-0.0511,-0.0329,0.0629
1755570171582,-0.06462238,0.10097247,-0.15205267,-0.02384491,0.01641806,0.01473319,0.9962,-0.0512,-0.0329,0.0629
1755570171593,0.01520527,-0.06129623,-0.07602633,-0.01353572,0.01826396,0.01613033,0.9962,-0.0513,-0.0327,0.0630
1755570171605,0.02594726,0.06226054,0.06650996,-0.02718057,0.01940071,0.02342329,0.9961,-0.0515,-0.0326,0.0632
1755570171616,0.01045169,-0.02219914,0.06065410,-0.03073364,0.01026783,0.02177277,0.9961,-0.0516,-0.0326,0.0633
1755570171627,-0.02264365,0.01202838,0.24476864,-0.00047383,0.01397296,-0.00390360,0.9961,-0.0516,-0.0325,0.0633
1755570171638,-0.08378817,0.01125587,0.04493303,-0.01423874,0.01100488,0.00683504,0.9961,-0.0517,-0.0324,0.0633
1755570171649,-0.01483545,0.06529479,-0.01354541,-0.00171334,0.01231806,-0.00089227,0.9961,-0.0517,-0.0324,0.0633
1755570171660,0.03483106,-0.01499670,-0.19350587,0.00469618,0.02802016,0.00937849,0.9961,-0.0517,-0.0322,0.0633
1755570171672,0.01586341,0.02387161,-0.13622762,-0.01895666,0.02239483,0.01872621,0.9961,-0.0518,-0.0321,0.0635
1755570171682,0.00723281,-0.12993508,-0.07704515,-0.01102818,0.01921150,0.01504734,0.9961,-0.0519,-0.0320,0.0635
1755570171694,0.14072177,-0.04193299,0.09084025,0.00181611,0.02969479,-0.00408211,0.9961,-0.0518,-0.0318,0.0635
1755570171705,-0.21331355,-0.01717926,0.00042227,-0.00654226,0.00431227,-0.00302040,0.9961,-0.0519,-0.0318,0.0635
1755570171716,0.05731724,0.15435411,0.20970046,-0.01709355,0.00954179,0.00262023,0.9961,-0.0520,-0.0317,0.0635
1755570171727,-0.01055572,0.12989696,0.05686016,-0.04983131,0.00712059,0.01049341,0.9961,-0.0523,-0.0317,0.0636
1755570171738,0.09084975,-0.01091383,0.16995107,0.04503834,0.01360471,-0.00644349,0.9961,-0.0520,-0.0316,0.0635
1755570171750,0.03399004,0.05810695,-0.07844855,0.00078631,-0.00496354,0.03272200,0.9961,-0.0520,-0.0317,0.0637
1755570171762,-0.00903619,-0.11044606,-0.10961061,0.01565394,0.02570241,0.02051370,0.9961,-0.0519,-0.0315,0.0638
1755570171772,-0.24943756,0.04114176,-0.19544422,-0.00622926,0.03967371,0.01378951,0.9961,-0.0519,-0.0313,0.0639
1755570171782,0.12031879,0.13648376,0.07972268,-0.01043562,0.02322344,0.03006340,0.9961,-0.0520,-0.0312,0.0641
1755570171793,0.05014814,0.04400755,0.14708171,0.01942141,-0.01302295,0.02116179,0.9961,-0.0519,-0.0313,0.0642
1755570171805,0.16404449,0.05562491,0.27198200,0.01995872,-0.01108501,0.01174938,0.9961,-0.0518,-0.0313,0.0643
1755570171817,0.08785890,0.01337837,0.15901506,0.01385899,-0.00528172,0.01463342,0.9961,-0.0517,-0.0314,0.0643
1755570171827,-0.01012273,-0.04427228,-0.05745332,0.02148466,-0.01456583,0.02888863,0.9961,-0.0516,-0.0314,0.0645
1755570171839,-0.03493790,-0.09029925,-0.15605940,0.02193454,0.00199899,-0.00286369,0.9961,-0.0514,-0.0314,0.0645
1755570171849,0.02956706,-0.00900745,-0.13169639,0.00304158,0.00827785,0.02001620,0.9961,-0.0514,-0.0314,0.0646
1755570171860,0.06416438,-0.05498641,-0.03305876,0.01623126,0.01738721,-0.01021435,0.9961,-0.0513,-0.0313,0.0645
1755570171871,0.02659209,0.07750320,0.05869781,-0.00004487,0.00678557,-0.01033814,0.9961,-0.0513,-0.0312,0.0645
1755570171883,-0.00570197,-0.05654458,0.11784082,0.00036691,0.01191543,0.00023054,0.9961,-0.0513,-0.0312,0.0645
1755570171894,-0.05321843,-0.08909336,0.11403950,0.01247241,0.01815281,0.00405125,0.9961,-0.0513,-0.0311,0.0645
1755570171905,-0.12296630,0.00251526,0.08872378,-0.00027257,0.01181000,0.01563863,0.9961,-0.0513,-0.0310,0.0646
1755570171916,0.03708888,0.08102186,0.03686220,-0.00605152,0.00800310,0.01649595,0.9961,-0.0513,-0.0310,0.0647
1755570171927,0.04582314,-0.03388355,-0.07630279,0.01478393,0.00731212,-0.00572345,0.9961,-0.0512,-0.0309,0.0646
1755570171938,0.02470856,0.13399641,-0.06462238,0.02424453,0.00840904,-0.02728752,0.9961,-0.0511,-0.0309,0.0645
1755570171950,0.07032436,0.21715021,-0.10263555,0.04363339,0.03318185,-0.00747486,0.9962,-0.0508,-0.0307,0.0644
1755570171961,-0.08493525,0.00465192,-0.01174857,0.04580349,0.01927746,0.03473732,0.9962,-0.0506,-0.0306,0.0646
1755570171972,-0.03746523,-0.01007477,0.07246474,0.01658298,0.01830189,0.03562693,0.9962,-0.0505,-0.0305,0.0648
1755570171983,0.04167287,-0.05877093,0.10877794,-0.01173837,-0.00303434,0.04959355,0.9961,-0.0506,-0.0305,0.0651
1755570171994,0.25736280,-0.15915858,0.00000000,0.00412001,0.00214794,0.03191528,0.9961,-0.0505,-0.0305,0.0653
1755570172005,0.17879887,-0.10213898,0.21910652,-0.02069736,-0.00969110,-0.01439287,0.9961,-0.0507,-0.0305,0.0652
1755570172017,0.09005747,-0.08543957,0.07515348,-0.02019197,0.00369258,-0.01895403,0.9961,-0.0508,-0.0305,0.0651
1755570172028,-0.02827241,-0.01870628,-0.02667984,-0.04841923,0.00157840,-0.07780891,0.9961,-0.0510,-0.0305,0.0647
1755570172039,-0.10824782,0.01037789,-0.33894456,0.03619893,-0.00184737,-0.01914337,0.9962,-0.0508,-0.0305,0.0646
1755570172050,0.02826797,0.24232530,-0.13463572,-0.01050251,0.00030303,0.01419136,0.9961,-0.0509,-0.0305,0.0646
1755570172061,-0.00570197,0.13494674,0.02280790,-0.00203998,0.00442834,0.01297744,0.9961,-0.0509,-0.0305,0.0647
1755570172072,0.03032168,-0.05643201,0.19329854,-0.00057448,-0.00514998,0.00259032,0.9961,-0.0509,-0.0305,0.0647
1755570172084,0.01190950,-0.01474810,0.20616217,-0.00169645,-0.00366632,-0.01782523,0.9961,-0.0509,-0.0305,0.0646
1755570172095,-0.06630573,-0.03529770,0.17713493,0.01537753,-0.00895115,-0.03536602,0.9962,-0.0508,-0.0306,0.0644
1755570172106,-0.05611670,-0.10739576,-0.10062305,0.02766356,0.00383388,-0.01683935,0.9962,-0.0507,-0.0306,0.0643
1755570172117,-0.19633287,-0.08356261,-0.10287527,0.01373820,0.00046292,-0.01233187,0.9962,-0.0506,-0.0306,0.0643
1755570172128,0.08029386,-0.02779234,-0.11963152,0.01782105,0.01991875,0.00434173,0.9962,-0.0505,-0.0305,0.0643
1755570172139,0.01427222,0.21474847,-0.06496796,0.00980672,0.00784474,0.00744188,0.9962,-0.0504,-0.0304,0.0643
1755570172150,0.08743028,0.14112388,0.06082107,0.00735057,0.00073428,-0.00222691,0.9962,-0.0504,-0.0304,0.0643
1755570172162,0.09524981,-0.00050104,0.15687797,0.03003056,-0.00819388,-0.00022373,0.9962,-0.0502,-0.0305,0.0643
1755570172173,-0.08707764,-0.04740894,0.23220704,0.02493569,-0.04213730,0.00487428,0.9962,-0.0501,-0.0307,0.0643
1755570172184,0.03450054,-0.08362302,0.15354506,0.02932007,-0.00292684,0.00195823,0.9962,-0.0499,-0.0307,0.0644
1755570172195,0.01827417,0.04603852,-0.02200572,0.00947482,-0.02551096,0.01301314,0.9962,-0.0499,-0.0308,0.0644
1755570172206,0.25085234,-0.02930470,-0.08556418,0.02014303,-0.02382066,0.02211511,0.9962,-0.0498,-0.0310,0.0646
1755570172217,0.03421185,-0.20479593,-0.17866188,0.01940729,-0.03250591,0.00509585,0.9962,-0.0497,-0.0312,0.0646
1755570172228,0.08609951,0.00190883,-0.14081333,0.00508843,-0.00118146,-0.03505796,0.9962,-0.0496,-0.0312,0.0644
1755570172240,-0.07232727,0.04391662,-0.10615694,-0.00641140,-0.00177228,-0.03377955,0.9962,-0.0497,-0.0312,0.0642
1755570172251,-0.10293485,0.17203185,0.12428899,-0.00611102,-0.01777907,-0.00452733,0.9962,-0.0497,-0.0313,0.0642
1755570172262,-0.10556737,0.04901817,0.19643660,0.01160478,-0.00500169,-0.00153687,0.9962,-0.0496,-0.0313,0.0642
1755570172273,-0.04347324,-0.01108429,0.02052711,0.02984802,-0.00318749,0.01324680,0.9962,-0.0495,-0.0313,0.0642
1755570172284,-0.09693357,-0.09669599,-0.06842370,0.03069529,-0.00639671,-0.00055643,0.9962,-0.0493,-0.0314,0.0642
1755570172295,0.19984664,-0.02061399,-0.18891010,-0.00045415,0.03113914,-0.00821659,0.9962,-0.0493,-0.0312,0.0642
1755570172306,-0.11997364,-0.16060987,-0.27477833,-0.00153287,0.00754468,-0.02511074,0.9962,-0.0493,-0.0311,0.0641
1755570172318,0.09570071,0.14895767,0.03380090,-0.00810181,0.00680092,-0.02643810,0.9962,-0.0494,-0.0311,0.0639
1755570172329,0.03191347,-0.02875555,0.08029386,-0.00054855,0.00526693,-0.01682216,0.9963,-0.0494,-0.0311,0.0638
1755570172340,0.00422659,0.01991079,0.18627539,0.00485397,-0.00354998,-0.01128385,0.9963,-0.0493,-0.0311,0.0637
1755570172351,-0.04294485,0.03104165,0.00746867,0.01421864,-0.00871353,-0.01455111,0.9963,-0.0493,-0.0311,0.0637
1755570172362,0.05267200,0.06872577,-0.00269931,0.02094916,-0.01393871,0.00284484,0.9963,-0.0491,-0.0312,0.0637
1755570172373,-0.02052227,0.06554567,0.00134922,0.02207247,-0.04178772,0.00385556,0.9963,-0.0490,-0.0315,0.0637
1755570172385,0.05206165,-0.03700096,-0.02013051,0.03195965,-0.00276591,-0.02785593,0.9963,-0.0488,-0.0315,0.0635
1755570172395,-0.12385344,0.04945952,0.07185471,0.00489273,-0.00112103,-0.05142399,0.9963,-0.0488,-0.0315,0.0633
1755570172406,-0.00537911,0.00297804,-0.12728780,0.03063845,0.00665346,-0.01977214,0.9963,-0.0486,-0.0314,0.0632
1755570172418,-0.10749492,0.05667283,0.00386744,0.03465247,0.02251868,0.00320057,0.9963,-0.0484,-0.0313,0.0632
1755570172429,-0.16905748,0.00040486,-0.01890543,0.02226512,0.01629024,0.04772175,0.9963,-0.0483,-0.0312,0.0634
1755570172440,-0.12381545,-0.05194236,0.01695867,0.02559620,0.03492399,0.03428740,0.9963,-0.0482,-0.0310,0.0636
1755570172451,-0.00191748,-0.00019763,-0.05072908,0.00853341,0.02230906,0.02201269,0.9963,-0.0481,-0.0309,0.0637
1755570172462,0.14702990,-0.01834418,-0.00179684,0.02223839,0.00405468,0.01930607,0.9963,-0.0480,-0.0309,0.0639
1755570172473,0.08407046,0.04124973,0.10849634,0.03450628,-0.00655113,-0.01700756,0.9963,-0.0478,-0.0309,0.0638
1755570172485,0.01309726,-0.12092939,0.00546007,0.05960055,0.00582159,-0.02726011,0.9964,-0.0475,-0.0309,0.0636
1755570172496,-0.00021672,0.03093538,0.02317288,0.02269967,0.01634146,-0.01431759,0.9964,-0.0474,-0.0308,0.0635
1755570172507,0.08365276,-0.00211487,-0.07856681,0.03307288,-0.01039074,-0.00829456,0.9964,-0.0472,-0.0308,0.0635
1755570172518,0.12118857,0.04077488,-0.00919521,0.04099064,0.00332177,-0.02765690,0.9964,-0.0469,-0.0308,0.0633
1755570172529,-0.02997312,0.06172037,0.07081903,0.03980072,-0.01888784,-0.01302087,0.9964,-0.0467,-0.0309,0.0633
1755570172540,-0.00528348,0.15705715,0.14664712,0.06803702,-0.04472484,-0.00842302,0.9964,-0.0463,-0.0312,0.0632
1755570172551,-0.04649580,-0.17789769,-0.06031617,0.12588411,-0.01850363,0.00784581,0.9965,-0.0456,-0.0313,0.0633
1755570172562,-0.10631449,0.12719116,-0.09447465,0.08429686,0.01684666,0.01015267,0.9965,-0.0452,-0.0312,0.0633
1755570172574,-0.04634151,0.23132740,-0.09724459,0.03790349,-0.01297998,0.03426470,0.9965,-0.0450,-0.0313,0.0635
1755570172585,0.02058885,0.08638983,0.06138312,0.06306391,-0.01022268,0.00329056,0.9965,-0.0446,-0.0313,0.0635
1755570172596,0.11273138,-0.14127822,0.01625145,0.07342718,-0.03308033,0.01120382,0.9965,-0.0442,-0.0315,0.0636
1755570172607,0.10141467,-0.22928466,0.08612770,0.03474839,-0.02803579,-0.03610083,0.9965,-0.0440,-0.0317,0.0634
1755570172618,0.11772095,-0.11484214,0.01160943,0.04453027,0.03975979,-0.00643071,0.9965,-0.0438,-0.0314,0.0633
1755570172629,-0.49418289,-0.07956417,0.13922056,0.00400443,0.02099580,-0.02010167,0.9965,-0.0437,-0.0313,0.0632
1755570172641,-0.18496316,-0.12475425,-0.08095777,0.02146369,0.08635178,0.02609524,0.9966,-0.0436,-0.0308,0.0634
1755570172652,-0.25242250,0.04527525,-0.36959102,-0.04426946,0.08419465,0.03796197,0.9965,-0.0439,-0.0304,0.0636
1755570172663,0.10346493,-0.05492039,-0.43148400,-0.03792077,0.11394069,0.05650197,0.9965,-0.0441,-0.0297,0.0639
1755570172674,0.09939331,-0.14844396,-0.17641396,-0.07522199,0.10372254,0.03923245,0.9965,-0.0445,-0.0291,0.0641
1755570172686,-0.01167823,-0.27600190,-0.08886304,-0.07166426,0.10239039,-0.02613139,0.9965,-0.0449,-0.0286,0.0640
1755570172696,0.21992284,-0.37911966,-0.04465251,-0.06984083,0.21699461,-0.02192570,0.9966,-0.0453,-0.0274,0.0639
1755570172707,-0.41178414,-0.24509298,0.09076520,-0.09490990,0.09582412,-0.08557353,0.9966,-0.0458,-0.0269,0.0634
1755570172719,0.11737849,0.02871749,-0.03315022,-0.12998742,0.15425891,-0.05402061,0.9966,-0.0465,-0.0260,0.0631
1755570172730,-0.07982765,-0.40769121,-0.16345662,-0.12348361,0.18146374,-0.05488433,0.9966,-0.0472,-0.0250,0.0628
1755570172741,-0.13270701,-0.23586335,-0.23894519,-0.17878154,0.18388347,-0.04306548,0.9966,-0.0482,-0.0240,0.0625
1755570172752,0.04555215,-0.01591718,-0.27785466,-0.29752481,0.20017633,-0.03083528,0.9965,-0.0499,-0.0228,0.0624
1755570172763,0.21881919,-1.63851525,-1.16595456,-0.17930076,0.17653822,-0.00995150,0.9965,-0.0509,-0.0219,0.0623
1755570172774,-0.00585795,0.26606617,0.74943063,-0.30306730,0.21166101,-0.02908165,0.9965,-0.0526,-0.0207,0.0621
1755570172786,-0.40575100,-0.83312721,-0.20374546,-0.28323981,0.20912466,-0.04636478,0.9964,-0.0542,-0.0195,0.0619
1755570172796,0.09106096,-0.77454076,-0.18850683,-0.35161675,0.30062541,-0.07415896,0.9964,-0.0560,-0.0179,0.0615
1755570172807,-0.06571757,0.53085962,0.10702363,-0.39906618,0.24626953,-0.02946580,0.9963,-0.0583,-0.0166,0.0613
1755570172819,-0.15841618,-0.28521110,-0.42313730,-0.38912640,0.23396369,-0.00611839,0.9962,-0.0605,-0.0152,0.0613
1755570172830,0.31248845,0.00007780,0.13230681,-0.41429793,0.31189052,-0.00484868,0.9961,-0.0628,-0.0135,0.0613
1755570172840,-1.23537157,-0.96961521,-0.81255298,-0.45198981,0.24069410,-0.02353415,0.9959,-0.0652,-0.0122,0.0611
1755570172852,0.47645508,0.63868033,0.64724531,-0.40176744,0.24630111,-0.00582101,0.9958,-0.0676,-0.0107,0.0611
1755570172863,0.16525351,-0.72332694,-0.53539329,-0.35968895,0.23680004,0.02392823,0.9957,-0.0695,-0.0094,0.0612
1755570172876,0.06670698,0.63889993,0.47994342,-0.27171424,0.15210653,0.02690082,0.9955,-0.0713,-0.0085,0.0614
1755570172885,-0.85965638,-2.26769006,-1.15227329,-0.28675007,0.19125283,-0.08121552,0.9955,-0.0725,-0.0076,0.0611
1755570172896,0.48576357,1.41961685,0.34253736,-0.14421817,0.10047555,-0.00165196,0.9954,-0.0733,-0.0071,0.0611
1755570172907,0.04053978,0.34856207,0.19432291,-0.17908544,0.15451098,-0.01364637,0.9954,-0.0743,-0.0063,0.0610
1755570172919,-0.16123122,0.71735265,0.27014290,-0.13720997,0.12907169,0.00833950,0.9953,-0.0751,-0.0055,0.0610
1755570172930,-0.35414917,0.53593146,0.04441825,-0.17956914,0.10655231,0.01570021,0.9952,-0.0761,-0.0049,0.0611
1755570172941,-0.32993991,-0.20507821,-0.37276160,-0.13859619,0.08201934,0.01861880,0.9951,-0.0769,-0.0044,0.0612
1755570172952,0.27505600,0.01284748,0.15184009,-0.10532812,0.10888137,0.02270857,0.9951,-0.0775,-0.0038,0.0614
1755570172964,-0.18111522,0.39770661,-0.01867167,-0.05877953,0.13883133,0.00154317,0.9951,-0.0778,-0.0030,0.0614
1755570172975,-0.09718587,-0.01382603,-0.28072555,-0.06917553,0.13763349,0.05371140,0.9950,-0.0782,-0.0023,0.0617
1755570172986,-0.22165338,0.46401101,-0.06597841,-0.11595613,0.15583481,0.06605837,0.9950,-0.0789,-0.0014,0.0620
1755570172996,-0.22072264,-0.45708304,-0.30227889,-0.11352890,0.23905004,0.06516435,0.9949,-0.0794,-0.0002,0.0624
1755570173008,0.35006196,0.54227297,0.74381920,-0.11565703,0.21638042,0.06325727,0.9948,-0.0801,0.0011,0.0627
1755570173019,-0.05642476,0.26120003,0.33626777,-0.12795675,0.23551818,0.04087815,0.9947,-0.0808,0.0024,0.0630
1755570173030,-0.15318063,-0.06427159,0.17135636,-0.10963792,0.19909021,0.04389853,0.9947,-0.0814,0.0035,0.0632
1755570173041,-0.20094610,-0.29373663,-0.76341132,-0.06292373,0.19090207,0.02060542,0.9946,-0.0818,0.0045,0.0633
1755570173053,0.48797881,0.46449756,0.31896173,-0.06465516,0.17912174,0.01032699,0.9946,-0.0821,0.0056,0.0634
1755570173063,-0.27401584,-0.20074084,-0.54735548,-0.09137861,0.23483058,0.01249023,0.9945,-0.0826,0.0068,0.0635
1755570173075,0.41971474,0.94232446,0.67867965,-0.10448509,0.18804776,0.00078403,0.9945,-0.0833,0.0080,0.0635
1755570173085,-0.19114166,-0.42565810,-0.46074173,-0.03748751,0.20661084,0.02016486,0.9944,-0.0834,0.0090,0.0636
1755570173096,-0.01690629,0.72754270,0.71464150,-0.01942332,0.11432793,-0.01400676,0.9944,-0.0835,0.0096,0.0635
1755570173108,0.10182500,-0.08915321,0.55441989,0.02154052,0.12992217,-0.00355865,0.9944,-0.0834,0.0104,0.0635
1755570173119,-0.29479677,0.06351445,0.03846143,0.05133032,0.10141392,-0.02574213,0.9945,-0.0831,0.0109,0.0633
1755570173130,0.25451779,0.30813446,0.10011152,0.04708725,0.11580930,-0.01592578,0.9945,-0.0829,0.0116,0.0632
1755570173141,0.29900082,0.25725321,-0.41044625,0.06412808,0.11399931,-0.02992562,0.9945,-0.0825,0.0122,0.0631
1755570173152,-0.19224807,-0.01983372,-0.02843948,0.07342660,0.10457958,-0.03197081,0.9946,-0.0821,0.0128,0.0629
1755570173164,0.19764038,0.19761581,0.22525697,0.06635331,0.12566647,-0.01226862,0.9946,-0.0817,0.0135,0.0628
1755570173175,0.05798369,0.24693236,0.13128183,0.06738751,0.13459712,0.03053228,0.9946,-0.0814,0.0142,0.0630
1755570173186,-0.37603937,0.11065883,0.16298293,0.06097881,0.06416701,0.00632038,0.9946,-0.0810,0.0146,0.0630
1755570173197,0.54934557,-0.22175772,0.03089057,0.08309182,0.06622028,0.02916891,0.9946,-0.0806,0.0150,0.0632
1755570173208,0.00919521,0.00456654,0.29985605,0.07043358,0.06561391,-0.02130990,0.9947,-0.0802,0.0153,0.0631
1755570173219,0.14706448,0.18555675,0.00320213,0.03720955,0.06496388,0.00196739,0.9947,-0.0800,0.0157,0.0631
1755570173230,0.18474160,-0.11713357,0.01985598,0.02797232,0.07692817,-0.02202678,0.9947,-0.0798,0.0161,0.0629
1755570173242,-0.10325675,-0.13337541,-0.14740385,0.02401294,0.04858305,-0.03866578,0.9947,-0.0797,0.0164,0.0627
1755570173253,-0.01368910,0.02947824,0.12976995,0.03603194,0.02603648,0.00425394,0.9947,-0.0795,0.0165,0.0627
1755570173264,0.05911204,-0.00541860,0.07093445,0.07094442,0.01543761,0.01992286,0.9947,-0.0791,0.0166,0.0629
1755570173275,0.10658130,0.02615731,-0.00685760,0.01840701,0.00929921,0.02716828,0.9947,-0.0790,0.0167,0.0630
1755570173286,0.11408284,0.03691167,-0.08569056,-0.00545613,0.00603007,0.00697059,0.9947,-0.0790,0.0167,0.0630
1755570173297,0.01548047,-0.14561317,-0.00387012,0.02013973,0.02476031,-0.02863493,0.9948,-0.0789,0.0168,0.0629
1755570173308,-0.11229295,-0.01288937,0.19492878,0.00215981,0.03142006,-0.03721736,0.9948,-0.0789,0.0170,0.0627
1755570173320,0.01584727,0.01445767,0.13434698,-0.01860805,0.05426539,-0.02352031,0.9948,-0.0790,0.0173,0.0625
1755570173331,-0.16907366,-0.08260319,-0.00097384,0.03990959,0.03294447,-0.00679852,0.9948,-0.0788,0.0175,0.0625
1755570173342,0.36986888,0.05905440,-0.16648650,0.07996750,0.02512723,0.04023695,0.9948,-0.0783,0.0176,0.0627
1755570173353,0.12302159,0.27656298,-0.31303683,0.03774984,-0.03856958,0.05929732,0.9948,-0.0781,0.0174,0.0631
1755570173364,0.20492175,-0.03152642,-0.07093445,0.01802997,-0.01569249,-0.00619421,0.9948,-0.0780,0.0173,0.0630
1755570173375,0.20261018,-0.12013024,0.11611294,0.00172519,-0.02221860,-0.03154356,0.9948,-0.0780,0.0172,0.0629
1755570173386,0.22282546,-0.04491669,0.17996046,0.00103366,-0.04294756,-0.04286163,0.9948,-0.0780,0.0170,0.0626
1755570173398,0.29614311,-0.14032338,0.29681091,0.03866816,-0.05050954,-0.05318090,0.9949,-0.0778,0.0167,0.0623
1755570173409,0.34362841,0.14400638,0.52485011,0.02412353,-0.06340641,-0.03883814,0.9949,-0.0777,0.0164,0.0621
1755570173420,0.19157081,0.06772705,0.09675293,0.03335862,-0.07448436,-0.00954895,0.9949,-0.0775,0.0159,0.0620
1755570173433,-0.16657301,0.01965290,-0.09000140,0.02706278,-0.08706779,-0.02774267,0.9950,-0.0773,0.0154,0.0619
1755570173442,0.68480248,0.31842517,-0.11981671,0.04592966,-0.09361287,-0.00986067,0.9950,-0.0771,0.0149,0.0618
1755570173453,0.01853698,-0.05394526,-0.02937771,0.04154774,-0.12302191,0.00363440,0.9950,-0.0769,0.0143,0.0618
1755570173465,0.36360998,0.31371118,0.24588648,0.01353893,-0.11545821,-0.03681440,0.9950,-0.0768,0.0136,0.0616
1755570173475,1.91528847,1.03068224,1.19151484,0.02316038,-0.15575235,-0.04096891,0.9951,-0.0767,0.0128,0.0614
1755570173487,-0.68729226,-0.55395752,0.07233159,0.03990859,-0.19420429,-0.07134722,0.9951,-0.0764,0.0117,0.0610
1755570173498,0.24479896,0.28803138,0.34369213,0.06074966,-0.20116839,-0.13339604,0.9952,-0.0761,0.0105,0.0603
1755570173509,0.74135766,0.72957526,0.58836308,0.07760554,-0.20204909,-0.11126758,0.9953,-0.0757,0.0094,0.0596
1755570173520,0.79027174,0.69813787,0.61603195,0.09096523,-0.26964606,-0.08170475,0.9954,-0.0752,0.0079,0.0592
1755570173531,0.67024124,0.75455271,0.55437019,0.10056324,-0.32039630,-0.08651350,0.9955,-0.0746,0.0061,0.0587
1755570173542,0.82488571,0.47706524,0.47896590,0.12961418,-0.41845659,-0.10013502,0.9956,-0.0739,0.0038,0.0581
1755570173553,0.78990132,1.09289781,0.95982366,0.13916235,-0.48005366,-0.11852687,0.9957,-0.0731,0.0011,0.0575
1755570173565,0.71929672,-0.08029239,0.18490002,0.25015602,-0.55156449,-0.11038119,0.9958,-0.0717,-0.0020,0.0569
1755570173576,1.22602235,1.24083925,0.81799896,0.21935427,-0.61829886,-0.10369580,0.9959,-0.0705,-0.0054,0.0563
1755570173587,0.73890056,0.44634031,0.73135623,0.21834692,-0.69831715,-0.10917149,0.9960,-0.0693,-0.0093,0.0557
1755570173598,0.64934983,0.46726708,0.84837288,0.20536251,-0.75105554,-0.09155137,0.9961,-0.0681,-0.0135,0.0552
1755570173609,1.47282702,0.51008019,1.73434012,0.27210604,-0.87289641,-0.02023609,0.9961,-0.0666,-0.0183,0.0551
1755570173620,0.22941984,0.09238574,0.86498898,0.35178827,-0.93666285,-0.08280485,0.9961,-0.0647,-0.0235,0.0546
1755570173632,0.42586434,-0.07232851,0.06316814,0.39146035,-0.94752522,-0.07648169,0.9962,-0.0624,-0.0289,0.0542
1755570173642,1.01665087,1.26988064,0.91531143,0.43916751,-1.03053249,-0.13257838,0.9962,-0.0600,-0.0345,0.0534
1755570173654,-0.03595557,0.17142979,-0.12739642,0.39613894,-1.05287301,-0.11547347,0.9961,-0.0578,-0.0404,0.0528
1755570173665,0.78877320,0.63149373,0.35352245,0.34901297,-1.04547629,-0.10478561,0.9960,-0.0559,-0.0462,0.0522
1755570173676,0.93561815,-0.18883235,0.18203373,0.40373061,-1.07959615,-0.09408917,0.9959,-0.0536,-0.0522,0.0517
1755570173687,0.11598742,0.49168617,0.60475349,0.33959069,-1.20236592,-0.09642607,0.9956,-0.0518,-0.0588,0.0511
1755570173699,0.03118436,-0.94386236,0.23697534,0.30043083,-1.19841351,-0.05613207,0.9953,-0.0500,-0.0658,0.0508
1755570173709,1.07601876,-0.12658163,1.81286536,0.37381739,-1.40888880,-0.08036452,0.9949,-0.0480,-0.0734,0.0504
1755570173721,0.15071517,-0.96373936,0.06025791,0.46001210,-1.43271915,-0.05911899,0.9944,-0.0454,-0.0814,0.0501
1755570173732,0.77686597,-0.10300626,0.79744963,0.49744286,-1.52147340,-0.08250107,0.9938,-0.0427,-0.0898,0.0496
1755570173743,0.52945429,-0.12501148,0.23934472,0.45481535,-1.51209008,-0.10973172,0.9931,-0.0401,-0.0983,0.0490
1755570173754,-0.33834070,0.31359240,0.33205568,0.31185882,-1.58535189,-0.12241625,0.9923,-0.0384,-0.1072,0.0483
1755570173765,0.67777812,-0.81175140,0.00329672,0.38847311,-1.60250335,-0.12388897,0.9914,-0.0362,-0.1162,0.0476
1755570173776,0.12149404,0.65109325,0.57616372,0.29809923,-1.67167892,-0.09228672,0.9904,-0.0346,-0.1255,0.0471
1755570173788,-0.76327344,-0.69416779,-0.50137852,0.30622047,-1.70029978,-0.03019488,0.9892,-0.0328,-0.1352,0.0469
1755570173799,0.82066857,-1.03733149,0.46848789,0.40095136,-1.73253790,0.06153602,0.9879,-0.0306,-0.1448,0.0473
1755570173810,-0.60350182,-0.72031097,0.18965488,0.35271768,-1.74713204,0.06632862,0.9864,-0.0286,-0.1546,0.0476
1755570173821,1.29251261,0.34072869,1.78801809,0.23394728,-1.80759650,0.08215220,0.9849,-0.0274,-0.1641,0.0481
1755570173832,-1.23368534,-1.18812437,-1.76200215,0.18693640,-1.67579493,-0.00409655,0.9833,-0.0263,-0.1737,0.0480
1755570173843,1.18842864,0.51840139,0.97441538,0.14086973,-1.64781980,-0.04005754,0.9817,-0.0255,-0.1828,0.0478
1755570173854,-1.60032871,-0.01900535,-0.24986885,0.05801460,-1.74421091,-0.07683517,0.9798,-0.0252,-0.1924,0.0474
1755570173865,0.72497273,-0.44923600,0.34598831,0.06965914,-1.56793079,-0.03499015,0.9781,-0.0248,-0.2012,0.0472
1755570173876,-0.87693422,-0.56502142,-0.82918717,0.13222107,-1.62900854,0.01434916,0.9762,-0.0241,-0.2102,0.0473
1755570173888,-0.92591585,-0.53213727,-0.68438854,0.06096310,-1.48181043,0.10119383,0.9743,-0.0237,-0.2186,0.0479
1755570173899,-0.85586671,-0.41592823,-0.07132663,0.10606334,-1.41758546,0.08392933,0.9726,-0.0232,-0.2263,0.0483
1755570173910,-1.32004732,-0.76800526,-0.89076609,-0.00603818,-1.27575295,0.12352899,0.9709,-0.0232,-0.2334,0.0490
1755570173922,-1.85456947,-0.12851126,-1.73437966,-0.09681811,-1.06848357,0.07171777,0.9693,-0.0238,-0.2398,0.0494
1755570173932,1.05536617,-0.24044849,1.04136229,-0.11324263,-1.01831573,0.06320075,0.9679,-0.0244,-0.2451,0.0498
1755570173943,-1.52583098,0.09360149,-1.60092614,-0.05469597,-0.79504525,0.01658656,0.9668,-0.0247,-0.2495,0.0498
1755570173954,-1.72994245,-0.14779011,-1.09137309,-0.03148876,-0.70841989,0.04849318,0.9657,-0.0248,-0.2534,0.0501
1755570173966,-1.23044272,0.01585153,-0.68772263,-0.03415825,-0.49277948,0.06904148,0.9650,-0.0250,-0.2563,0.0505
1755570173977,-1.10814444,-0.11212086,-0.57567699,-0.03911916,-0.39800566,0.07367562,0.9644,-0.0252,-0.2584,0.0509
1755570173990,-1.85537119,-0.54366745,-2.27365744,0.02689937,-0.14826738,0.05671995,0.9641,-0.0251,-0.2594,0.0513
1755570173999,0.87964673,0.22920131,3.14217012,0.09621919,-0.02991058,0.07125801,0.9640,-0.0246,-0.2596,0.0516
1755570174010,-2.89466479,-0.55213051,-3.45115382,0.06792280,0.12382034,0.05115612,0.9642,-0.0243,-0.2589,0.0519
1755570174021,-1.34961361,-0.37223662,-1.61058862,0.01238716,0.28580056,0.03503587,0.9646,-0.0242,-0.2573,0.0521
1755570174033,-0.90823398,-0.29531297,-1.43142373,-0.03389727,0.37155731,0.01037934,0.9652,-0.0244,-0.2549,0.0521
1755570174043,-1.07621440,0.26771712,0.08303854,-0.03805352,0.69119825,-0.08006341,0.9661,-0.0246,-0.2517,0.0518
1755570174054,-0.80854236,-0.87751453,-1.54440278,0.04547448,0.74428177,-0.04546086,0.9672,-0.0244,-0.2475,0.0515
1755570174066,-1.48658812,0.36755063,-0.63826951,0.02898336,0.80155879,-0.05446237,0.9684,-0.0242,-0.2428,0.0512
1755570174076,-1.71815679,-0.65565899,-1.04384110,0.04370847,0.97396235,-0.05274179,0.9697,-0.0240,-0.2376,0.0509
1755570174088,-0.83341968,-0.21275236,-0.55215798,0.04831459,1.11026479,-0.07619481,0.9713,-0.0237,-0.2313,0.0505
1755570174099,-1.48313102,-0.64550106,-0.93990835,0.04177125,1.19013984,-0.09460922,0.9729,-0.0234,-0.2245,0.0499
1755570174110,-1.99682660,0.43308416,-0.49250968,-0.04829127,1.41201100,-0.16227962,0.9747,-0.0237,-0.2169,0.0491
